"success","timeout","failed_images","failed_audio","failed_video","trial_type","trial_index","time_elapsed","internal_node_id","subject_id","sona_id","subjectID","dateInfo","rt","stimulus","response","question_order","choices","speedy","sampleAlg","selected_image","selected_index","correct"
"true","false","[]","[]","[]","preload","0","541","0.0-0.0","0hkvchjl9j","","0hkvchjl9j","""2024-11-14T16:01:49.016Z""","","","","","","","","","",""
"true","","","","","fullscreen","1","8211","0.0-1.0","0hkvchjl9j","","0hkvchjl9j","""2024-11-14T16:01:49.016Z""","","","","","","","","","",""
"","","","","","html-keyboard-response","2","8223","0.0-2.0","0hkvchjl9j","","0hkvchjl9j","""2024-11-14T16:01:49.016Z""","null","","null","","","","","","",""
"","","","","","html-button-response","3","12141","0.0-3.0","0hkvchjl9j","","0hkvchjl9j","""2024-11-14T16:01:49.016Z""","3916","<div style='text-align:center; font-size:20px; line-height:25px; width: 1200px;'>
                Welcome to our experiment! <br>
                <br>At the bottom of this screen, you will see a button that says 'Begin Experiment.
                <br>Please only click that button when you are ready to complete the 25 minute experiment in one sitting. <br>
                <br> Once you click that button, it will not be possible to restart the experiment. <br><br>","0","","","","","","",""
"true","","","","","fullscreen","4","15273","0.0-4.0","0hkvchjl9j","","0hkvchjl9j","""2024-11-14T16:01:49.016Z""","","","","","","","","","",""
"","","","","","survey-multi-select","5","20894","0.0-5.0","0hkvchjl9j","","0hkvchjl9j","""2024-11-14T16:01:49.016Z""","5465","","{""Consent"":[""<strong>I consent</strong>""]}","[0]","","","","","",""
"","","","","","html-button-response","6","22520","0.0-6.0","0hkvchjl9j","","0hkvchjl9j","""2024-11-14T16:01:49.016Z""","1590","Welcome! <p> This experiment involves two parts: demographic information, followed by the experimental task.<p> It will take about 25 minutes to complete both parts.","0","","","","","","",""
"","","","","","survey-text","7","33458","0.0-7.0","0hkvchjl9j","","0hkvchjl9j","""2024-11-14T16:01:49.016Z""","10803","","{""Age"":""18"",""Gender"":""female"",""Race/ethnicity"":""hispanic""}","","","","","","",""
"","","","","","html-button-response","8","46874","0.0-8.0","0hkvchjl9j","","0hkvchjl9j","""2024-11-14T16:01:49.016Z""","13337","<div style='text-align: center;'>
      <p>In each trial of this task, you will see three texture images: one target item on top, and two choices beneath the target item.</p>
      <p><strong>Please select the item that is most like the target item.</strong></p>
      <p>To select the option on the <strong>LEFT</strong>, press the <strong>LEFT ARROW</strong> key. 
      To select the option on the <strong>RIGHT</strong>, press the <strong>RIGHT ARROW</strong> key.</p>
                  <!-- Target Image at the Top -->
      <div style='margin: 20px;'>
        <img src='materials/imgs/instruction_images/InstructionImg1D78.png' alt='Target Image' style='width:200px; height:auto;' />
        <p><em>Target Image</em></p>
      </div>

      <!-- Two Choice Images Below -->
      <div style='display: flex; justify-content: center;'>
        <div style='margin-right: 50px;'>
          <img src='materials/imgs/instruction_images/InstructionImg2D34.png' alt='Choice Image 1' style='width:150px; height:auto;' />
          <p><em><strong>LEFT ARROW</strong></em></p>
        </div>
        <div style='margin-left: 50px;'>
          <img src='materials/imgs/instruction_images/InstructionImg3D80.png' alt='Choice Image 2' style='width:150px; height:auto;' />
          <p><em><strong>RIGHT ARROW</strong></em></p>
        </div>
      </div>
    </div>

      <p>When you are ready to proceed, please click 'Continue' to begin practice.</p>","0","","","","","","",""
"","","","","","html-keyboard-response","9","49378","0.0-9.0","0hkvchjl9j","","0hkvchjl9j","""2024-11-14T16:01:49.016Z""","null","+","null","","","","","","",""
"","","","","","html-keyboard-response","10","49879","0.0-10.0-0.0-0.0","0hkvchjl9j","","0hkvchjl9j","""2024-11-14T16:01:49.016Z""","null","+","null","","","","","","",""
"","","","","","image-keyboard-response","11","52883","0.0-10.0-0.0-1.0","0hkvchjl9j","","0hkvchjl9j","""2024-11-14T16:01:49.016Z""","2359","materials/imgs/D65.png","arrowleft","","[""materials/imgs/D19.png"",""materials/imgs/D37.png""]","false","random","","",""
"","","","","","html-keyboard-response","12","53384","0.0-10.0-0.0-0.1","0hkvchjl9j","","0hkvchjl9j","""2024-11-14T16:01:49.016Z""","null","+","null","","","","","","",""
"","","","","","image-keyboard-response","13","57375","0.0-10.0-0.0-1.1","0hkvchjl9j","","0hkvchjl9j","""2024-11-14T16:01:49.016Z""","3988","materials/imgs/D46.png","arrowright","","[""materials/imgs/D19.png"",""materials/imgs/D96.png""]","false","random","","",""
"","","","","","html-keyboard-response","14","57876","0.0-10.0-0.0-0.2","0hkvchjl9j","","0hkvchjl9j","""2024-11-14T16:01:49.016Z""","null","+","null","","","","","","",""
"","","","","","image-keyboard-response","15","58952","0.0-10.0-0.0-1.2","0hkvchjl9j","","0hkvchjl9j","""2024-11-14T16:01:49.016Z""","1028","materials/imgs/D37.png","arrowleft","","[""materials/imgs/D52.png"",""materials/imgs/D29.png""]","false","random","","",""
"","","","","","html-keyboard-response","16","59454","0.0-10.0-0.0-0.3","0hkvchjl9j","","0hkvchjl9j","""2024-11-14T16:01:49.016Z""","null","+","null","","","","","","",""
"","","","","","image-keyboard-response","17","59898","0.0-10.0-0.0-1.3","0hkvchjl9j","","0hkvchjl9j","""2024-11-14T16:01:49.016Z""","442","materials/imgs/D104.png","arrowleft","","[""materials/imgs/D8.png"",""materials/imgs/D25.png""]","true","random","","",""
"","","","","","html-keyboard-response","18","64132","0.0-10.0-0.0-2.3-0.3","0hkvchjl9j","","0hkvchjl9j","""2024-11-14T16:01:49.016Z""","4233","<p><strong>You're going too fast.</strong><p>Please slow down and assess each triplet.<p>Press 'y' to continue.</p></p>","y","","","","","","",""
"","","","","","html-keyboard-response","19","64633","0.0-10.0-0.0-0.4","0hkvchjl9j","","0hkvchjl9j","""2024-11-14T16:01:49.016Z""","null","+","null","","","","","","",""
"","","","","","image-keyboard-response","20","66395","0.0-10.0-0.0-1.4","0hkvchjl9j","","0hkvchjl9j","""2024-11-14T16:01:49.016Z""","1759","materials/imgs/D75.png","arrowright","","[""materials/imgs/D52.png"",""materials/imgs/D3.png""]","false","random","","",""
"","","","","","html-keyboard-response","21","66896","0.0-10.0-0.0-0.5","0hkvchjl9j","","0hkvchjl9j","""2024-11-14T16:01:49.016Z""","null","+","null","","","","","","",""
"","","","","","image-keyboard-response","22","68760","0.0-10.0-0.0-1.5","0hkvchjl9j","","0hkvchjl9j","""2024-11-14T16:01:49.016Z""","1863","materials/imgs/D4.png","arrowleft","","[""materials/imgs/D85.png"",""materials/imgs/D74.png""]","false","random","","",""
"","","","","","html-keyboard-response","23","69261","0.0-10.0-0.0-0.6","0hkvchjl9j","","0hkvchjl9j","""2024-11-14T16:01:49.016Z""","null","+","null","","","","","","",""
"","","","","","image-keyboard-response","24","72250","0.0-10.0-0.0-1.6","0hkvchjl9j","","0hkvchjl9j","""2024-11-14T16:01:49.016Z""","2987","materials/imgs/D57.png","arrowright","","[""materials/imgs/D22.png"",""materials/imgs/D4.png""]","false","random","","",""
"","","","","","html-keyboard-response","25","72751","0.0-10.0-0.0-0.7","0hkvchjl9j","","0hkvchjl9j","""2024-11-14T16:01:49.016Z""","null","+","null","","","","","","",""
"","","","","","image-keyboard-response","26","75032","0.0-10.0-0.0-1.7","0hkvchjl9j","","0hkvchjl9j","""2024-11-14T16:01:49.016Z""","2200","materials/imgs/D9.png","arrowleft","","[""materials/imgs/D80.png"",""materials/imgs/D35.png""]","false","random","","",""
"","","","","","html-keyboard-response","27","75533","0.0-10.0-0.0-0.8","0hkvchjl9j","","0hkvchjl9j","""2024-11-14T16:01:49.016Z""","null","+","null","","","","","","",""
"","","","","","image-keyboard-response","28","77378","0.0-10.0-0.0-1.8","0hkvchjl9j","","0hkvchjl9j","""2024-11-14T16:01:49.016Z""","1789","materials/imgs/D87.png","arrowright","","[""materials/imgs/D14.png"",""materials/imgs/D24.png""]","false","random","","",""
"","","","","","html-keyboard-response","29","77880","0.0-10.0-0.0-0.9","0hkvchjl9j","","0hkvchjl9j","""2024-11-14T16:01:49.016Z""","null","+","null","","","","","","",""
"","","","","","image-keyboard-response","30","79843","0.0-10.0-0.0-1.9","0hkvchjl9j","","0hkvchjl9j","""2024-11-14T16:01:49.016Z""","1961","materials/imgs/D9.png","arrowright","","[""materials/imgs/D102.png"",""materials/imgs/D37.png""]","false","random","","",""
"","","","","","html-button-response","31","87836","0.0-11.0","0hkvchjl9j","","0hkvchjl9j","""2024-11-14T16:01:49.016Z""","7993","<p>Great job!</p>
      <p>You are now ready to begin the experiment.</p>
      <p>There will be around 200 trials. You will have opportunities to take breaks at three stages of the trials.</p>
      <p>When you are ready to begin please click 'Continue'.</p>","0","","","","","","",""
"","","","","","html-keyboard-response","32","90339","0.0-12.0","0hkvchjl9j","","0hkvchjl9j","""2024-11-14T16:01:49.016Z""","null","+","null","","","","","","",""
"","","","","","html-keyboard-response","33","90841","0.0-13.0-0.0-0.0","0hkvchjl9j","","0hkvchjl9j","""2024-11-14T16:01:49.016Z""","null","+","null","","","","","","",""
"","","","","","image-keyboard-response","34","92071","0.0-13.0-0.0-1.0","0hkvchjl9j","","0hkvchjl9j","""2024-11-14T16:01:49.016Z""","1228","materials/imgs/D85.png","arrowright","","[""materials/imgs/D20.png"",""materials/imgs/D3.png""]","false","random","","",""
"","","","","","html-keyboard-response","35","92573","0.0-13.0-0.0-0.1","0hkvchjl9j","","0hkvchjl9j","""2024-11-14T16:01:49.016Z""","null","+","null","","","","","","",""
"","","","","","image-keyboard-response","36","93636","0.0-13.0-0.0-1.1","0hkvchjl9j","","0hkvchjl9j","""2024-11-14T16:01:49.016Z""","1061","materials/imgs/D53.png","arrowright","","[""materials/imgs/D81.png"",""materials/imgs/D52.png""]","false","random","","",""
"","","","","","html-keyboard-response","37","94138","0.0-13.0-0.0-0.2","0hkvchjl9j","","0hkvchjl9j","""2024-11-14T16:01:49.016Z""","null","+","null","","","","","","",""
"","","","","","image-keyboard-response","38","95333","0.0-13.0-0.0-1.2","0hkvchjl9j","","0hkvchjl9j","""2024-11-14T16:01:49.016Z""","1193","materials/imgs/D92.png","arrowleft","","[""materials/imgs/D65.png"",""materials/imgs/D77.png""]","false","random","","",""
"","","","","","html-keyboard-response","39","95833","0.0-13.0-0.0-0.3","0hkvchjl9j","","0hkvchjl9j","""2024-11-14T16:01:49.016Z""","null","+","null","","","","","","",""
"","","","","","image-keyboard-response","40","96692","0.0-13.0-0.0-1.3","0hkvchjl9j","","0hkvchjl9j","""2024-11-14T16:01:49.016Z""","856","materials/imgs/D29.png","arrowright","","[""materials/imgs/D94.png"",""materials/imgs/D105.png""]","false","random","","",""
"","","","","","html-keyboard-response","41","97193","0.0-13.0-0.0-0.4","0hkvchjl9j","","0hkvchjl9j","""2024-11-14T16:01:49.016Z""","null","+","null","","","","","","",""
"","","","","","image-keyboard-response","42","98295","0.0-13.0-0.0-1.4","0hkvchjl9j","","0hkvchjl9j","""2024-11-14T16:01:49.016Z""","1100","materials/imgs/D102.png","arrowleft","","[""materials/imgs/D34.png"",""materials/imgs/D74.png""]","false","random","","",""
"","","","","","html-keyboard-response","43","98796","0.0-13.0-0.0-0.5","0hkvchjl9j","","0hkvchjl9j","""2024-11-14T16:01:49.016Z""","null","+","null","","","","","","",""
"","","","","","image-keyboard-response","44","99617","0.0-13.0-0.0-1.5","0hkvchjl9j","","0hkvchjl9j","""2024-11-14T16:01:49.016Z""","819","materials/imgs/D36.png","arrowright","","[""materials/imgs/D9.png"",""materials/imgs/D35.png""]","false","random","","",""
"","","","","","html-keyboard-response","45","100119","0.0-13.0-0.0-0.6","0hkvchjl9j","","0hkvchjl9j","""2024-11-14T16:01:49.016Z""","null","+","null","","","","","","",""
"","","","","","image-keyboard-response","46","101273","0.0-13.0-0.0-1.6","0hkvchjl9j","","0hkvchjl9j","""2024-11-14T16:01:49.016Z""","1152","materials/imgs/D6.png","arrowright","","[""materials/imgs/D8.png"",""materials/imgs/D52.png""]","false","random","","",""
"","","","","","html-keyboard-response","47","101774","0.0-13.0-1.0-0.0","0hkvchjl9j","","0hkvchjl9j","""2024-11-14T16:01:49.016Z""","null","+","null","","","","","","",""
"","","","","","image-keyboard-response","48","102505","0.0-13.0-1.0-1.0","0hkvchjl9j","","0hkvchjl9j","""2024-11-14T16:01:49.016Z""","729","materials/imgs/D106.png","arrowleft","","[""materials/imgs/D106.png"",""materials/imgs/D101.png""]","","check","materials/imgs/D106.png","0","true"
"","","","","","html-keyboard-response","49","103006","0.0-13.0-2.0-0.0","0hkvchjl9j","","0hkvchjl9j","""2024-11-14T16:01:49.016Z""","null","+","null","","","","","","",""
"","","","","","image-keyboard-response","50","104402","0.0-13.0-2.0-1.0","0hkvchjl9j","","0hkvchjl9j","""2024-11-14T16:01:49.016Z""","1393","materials/imgs/D47.png","arrowright","","[""materials/imgs/D1.png"",""materials/imgs/D52.png""]","false","validation","","",""
"","","","","","html-keyboard-response","51","104904","0.0-13.0-2.0-0.1","0hkvchjl9j","","0hkvchjl9j","""2024-11-14T16:01:49.016Z""","null","+","null","","","","","","",""
"","","","","","image-keyboard-response","52","106245","0.0-13.0-2.0-1.1","0hkvchjl9j","","0hkvchjl9j","""2024-11-14T16:01:49.016Z""","1339","materials/imgs/D111.png","arrowleft","","[""materials/imgs/D82.png"",""materials/imgs/D95.png""]","false","validation","","",""
"","","","","","html-keyboard-response","53","106747","0.0-13.0-0.1-0.7","0hkvchjl9j","","0hkvchjl9j","""2024-11-14T16:01:49.016Z""","null","+","null","","","","","","",""
"","","","","","image-keyboard-response","54","107591","0.0-13.0-0.1-1.7","0hkvchjl9j","","0hkvchjl9j","""2024-11-14T16:01:49.016Z""","842","materials/imgs/D55.png","arrowright","","[""materials/imgs/D48.png"",""materials/imgs/D49.png""]","false","random","","",""
"","","","","","html-keyboard-response","55","108092","0.0-13.0-0.1-0.8","0hkvchjl9j","","0hkvchjl9j","""2024-11-14T16:01:49.016Z""","null","+","null","","","","","","",""
"","","","","","image-keyboard-response","56","110533","0.0-13.0-0.1-1.8","0hkvchjl9j","","0hkvchjl9j","""2024-11-14T16:01:49.016Z""","2439","materials/imgs/D101.png","arrowright","","[""materials/imgs/D94.png"",""materials/imgs/D104.png""]","false","random","","",""
"","","","","","html-keyboard-response","57","111034","0.0-13.0-0.1-0.9","0hkvchjl9j","","0hkvchjl9j","""2024-11-14T16:01:49.016Z""","null","+","null","","","","","","",""
"","","","","","image-keyboard-response","58","114030","0.0-13.0-0.1-1.9","0hkvchjl9j","","0hkvchjl9j","""2024-11-14T16:01:49.016Z""","2993","materials/imgs/D68.png","arrowleft","","[""materials/imgs/D103.png"",""materials/imgs/D64.png""]","false","random","","",""
"","","","","","html-keyboard-response","59","114531","0.0-13.0-0.1-0.10","0hkvchjl9j","","0hkvchjl9j","""2024-11-14T16:01:49.016Z""","null","+","null","","","","","","",""
"","","","","","image-keyboard-response","60","115465","0.0-13.0-0.1-1.10","0hkvchjl9j","","0hkvchjl9j","""2024-11-14T16:01:49.016Z""","933","materials/imgs/D9.png","arrowleft","","[""materials/imgs/D4.png"",""materials/imgs/D92.png""]","false","random","","",""
"","","","","","html-keyboard-response","61","115965","0.0-13.0-0.1-0.11","0hkvchjl9j","","0hkvchjl9j","""2024-11-14T16:01:49.016Z""","null","+","null","","","","","","",""
"","","","","","image-keyboard-response","62","116962","0.0-13.0-0.1-1.11","0hkvchjl9j","","0hkvchjl9j","""2024-11-14T16:01:49.016Z""","994","materials/imgs/D22.png","arrowleft","","[""materials/imgs/D87.png"",""materials/imgs/D25.png""]","false","random","","",""
"","","","","","html-keyboard-response","63","117463","0.0-13.0-0.1-0.12","0hkvchjl9j","","0hkvchjl9j","""2024-11-14T16:01:49.016Z""","null","+","null","","","","","","",""
"","","","","","image-keyboard-response","64","118784","0.0-13.0-0.1-1.12","0hkvchjl9j","","0hkvchjl9j","""2024-11-14T16:01:49.016Z""","1318","materials/imgs/D11.png","arrowleft","","[""materials/imgs/D14.png"",""materials/imgs/D35.png""]","false","random","","",""
"","","","","","html-keyboard-response","65","119285","0.0-13.0-0.1-0.13","0hkvchjl9j","","0hkvchjl9j","""2024-11-14T16:01:49.016Z""","null","+","null","","","","","","",""
"","","","","","image-keyboard-response","66","123919","0.0-13.0-0.1-1.13","0hkvchjl9j","","0hkvchjl9j","""2024-11-14T16:01:49.016Z""","4632","materials/imgs/D94.png","arrowleft","","[""materials/imgs/D49.png"",""materials/imgs/D102.png""]","false","random","","",""
"","","","","","html-keyboard-response","67","124421","0.0-13.0-1.1-0.1","0hkvchjl9j","","0hkvchjl9j","""2024-11-14T16:01:49.016Z""","null","+","null","","","","","","",""
"","","","","","image-keyboard-response","68","125603","0.0-13.0-1.1-1.1","0hkvchjl9j","","0hkvchjl9j","""2024-11-14T16:01:49.016Z""","1180","materials/imgs/D53.png","arrowright","","[""materials/imgs/D64.png"",""materials/imgs/D53.png""]","","check","materials/imgs/D53.png","1","true"
"","","","","","html-keyboard-response","69","126105","0.0-13.0-2.1-0.2","0hkvchjl9j","","0hkvchjl9j","""2024-11-14T16:01:49.016Z""","null","+","null","","","","","","",""
"","","","","","image-keyboard-response","70","127842","0.0-13.0-2.1-1.2","0hkvchjl9j","","0hkvchjl9j","""2024-11-14T16:01:49.016Z""","1735","materials/imgs/D18.png","arrowleft","","[""materials/imgs/D32.png"",""materials/imgs/D57.png""]","false","validation","","",""
"","","","","","html-keyboard-response","71","128344","0.0-13.0-2.1-0.3","0hkvchjl9j","","0hkvchjl9j","""2024-11-14T16:01:49.016Z""","null","+","null","","","","","","",""
"","","","","","image-keyboard-response","72","130393","0.0-13.0-2.1-1.3","0hkvchjl9j","","0hkvchjl9j","""2024-11-14T16:01:49.016Z""","2048","materials/imgs/D76.png","arrowleft","","[""materials/imgs/D83.png"",""materials/imgs/D6.png""]","false","validation","","",""
"","","","","","html-keyboard-response","73","130895","0.0-13.0-0.2-0.14","0hkvchjl9j","","0hkvchjl9j","""2024-11-14T16:01:49.016Z""","null","+","null","","","","","","",""
"","","","","","image-keyboard-response","74","132886","0.0-13.0-0.2-1.14","0hkvchjl9j","","0hkvchjl9j","""2024-11-14T16:01:49.016Z""","1990","materials/imgs/D49.png","arrowleft","","[""materials/imgs/D29.png"",""materials/imgs/D48.png""]","false","random","","",""
"","","","","","html-keyboard-response","75","133388","0.0-13.0-0.2-0.15","0hkvchjl9j","","0hkvchjl9j","""2024-11-14T16:01:49.016Z""","null","+","null","","","","","","",""
"","","","","","image-keyboard-response","76","134490","0.0-13.0-0.2-1.15","0hkvchjl9j","","0hkvchjl9j","""2024-11-14T16:01:49.016Z""","1099","materials/imgs/D102.png","arrowright","","[""materials/imgs/D68.png"",""materials/imgs/D22.png""]","false","random","","",""
"","","","","","html-keyboard-response","77","134992","0.0-13.0-0.2-0.16","0hkvchjl9j","","0hkvchjl9j","""2024-11-14T16:01:49.016Z""","null","+","null","","","","","","",""
"","","","","","image-keyboard-response","78","137339","0.0-13.0-0.2-1.16","0hkvchjl9j","","0hkvchjl9j","""2024-11-14T16:01:49.016Z""","2344","materials/imgs/D64.png","arrowleft","","[""materials/imgs/D29.png"",""materials/imgs/D14.png""]","false","random","","",""
"","","","","","html-keyboard-response","79","137840","0.0-13.0-0.2-0.17","0hkvchjl9j","","0hkvchjl9j","""2024-11-14T16:01:49.016Z""","null","+","null","","","","","","",""
"","","","","","image-keyboard-response","80","141281","0.0-13.0-0.2-1.17","0hkvchjl9j","","0hkvchjl9j","""2024-11-14T16:01:49.016Z""","3439","materials/imgs/D55.png","arrowright","","[""materials/imgs/D25.png"",""materials/imgs/D87.png""]","false","random","","",""
"","","","","","html-keyboard-response","81","141783","0.0-13.0-0.2-0.18","0hkvchjl9j","","0hkvchjl9j","""2024-11-14T16:01:49.016Z""","null","+","null","","","","","","",""
"","","","","","image-keyboard-response","82","142935","0.0-13.0-0.2-1.18","0hkvchjl9j","","0hkvchjl9j","""2024-11-14T16:01:49.016Z""","1149","materials/imgs/D37.png","arrowleft","","[""materials/imgs/D96.png"",""materials/imgs/D53.png""]","false","random","","",""
"","","","","","html-keyboard-response","83","143436","0.0-13.0-0.2-0.19","0hkvchjl9j","","0hkvchjl9j","""2024-11-14T16:01:49.016Z""","null","+","null","","","","","","",""
"","","","","","image-keyboard-response","84","144550","0.0-13.0-0.2-1.19","0hkvchjl9j","","0hkvchjl9j","""2024-11-14T16:01:49.016Z""","1111","materials/imgs/D66.png","arrowright","","[""materials/imgs/D78.png"",""materials/imgs/D32.png""]","false","random","","",""
"","","","","","html-keyboard-response","85","145051","0.0-13.0-0.2-0.20","0hkvchjl9j","","0hkvchjl9j","""2024-11-14T16:01:49.016Z""","null","+","null","","","","","","",""
"","","","","","image-keyboard-response","86","145887","0.0-13.0-0.2-1.20","0hkvchjl9j","","0hkvchjl9j","""2024-11-14T16:01:49.016Z""","835","materials/imgs/D94.png","arrowleft","","[""materials/imgs/D26.png"",""materials/imgs/D37.png""]","false","random","","",""
"","","","","","html-keyboard-response","87","146389","0.0-13.0-1.2-0.2","0hkvchjl9j","","0hkvchjl9j","""2024-11-14T16:01:49.016Z""","null","+","null","","","","","","",""
"","","","","","image-keyboard-response","88","147011","0.0-13.0-1.2-1.2","0hkvchjl9j","","0hkvchjl9j","""2024-11-14T16:01:49.016Z""","620","materials/imgs/D101.png","arrowright","","[""materials/imgs/D106.png"",""materials/imgs/D101.png""]","","check","materials/imgs/D101.png","1","true"
"","","","","","html-keyboard-response","89","147513","0.0-13.0-2.2-0.4","0hkvchjl9j","","0hkvchjl9j","""2024-11-14T16:01:49.016Z""","null","+","null","","","","","","",""
"","","","","","image-keyboard-response","90","148330","0.0-13.0-2.2-1.4","0hkvchjl9j","","0hkvchjl9j","""2024-11-14T16:01:49.016Z""","816","materials/imgs/D66.png","arrowleft","","[""materials/imgs/D85.png"",""materials/imgs/D25.png""]","false","validation","","",""
"","","","","","html-keyboard-response","91","148832","0.0-13.0-2.2-0.5","0hkvchjl9j","","0hkvchjl9j","""2024-11-14T16:01:49.016Z""","null","+","null","","","","","","",""
"","","","","","image-keyboard-response","92","150207","0.0-13.0-2.2-1.5","0hkvchjl9j","","0hkvchjl9j","""2024-11-14T16:01:49.016Z""","1373","materials/imgs/D20.png","arrowright","","[""materials/imgs/D84.png"",""materials/imgs/D85.png""]","false","validation","","",""
"","","","","","html-keyboard-response","93","150708","0.0-13.0-0.3-0.21","0hkvchjl9j","","0hkvchjl9j","""2024-11-14T16:01:49.016Z""","null","+","null","","","","","","",""
"","","","","","image-keyboard-response","94","152315","0.0-13.0-0.3-1.21","0hkvchjl9j","","0hkvchjl9j","""2024-11-14T16:01:49.016Z""","1606","materials/imgs/D55.png","arrowleft","","[""materials/imgs/D21.png"",""materials/imgs/D95.png""]","false","random","","",""
"","","","","","html-keyboard-response","95","152816","0.0-13.0-0.3-0.22","0hkvchjl9j","","0hkvchjl9j","""2024-11-14T16:01:49.016Z""","null","+","null","","","","","","",""
"","","","","","image-keyboard-response","96","164792","0.0-13.0-0.3-1.22","0hkvchjl9j","","0hkvchjl9j","""2024-11-14T16:01:49.016Z""","11972","materials/imgs/D105.png","arrowright","","[""materials/imgs/D56.png"",""materials/imgs/D22.png""]","false","random","","",""
"","","","","","html-keyboard-response","97","165293","0.0-13.0-0.3-0.23","0hkvchjl9j","","0hkvchjl9j","""2024-11-14T16:01:49.016Z""","null","+","null","","","","","","",""
"","","","","","image-keyboard-response","98","166570","0.0-13.0-0.3-1.23","0hkvchjl9j","","0hkvchjl9j","""2024-11-14T16:01:49.016Z""","1276","materials/imgs/D34.png","arrowright","","[""materials/imgs/D29.png"",""materials/imgs/D102.png""]","false","random","","",""
"","","","","","html-keyboard-response","99","167071","0.0-13.0-0.3-0.24","0hkvchjl9j","","0hkvchjl9j","""2024-11-14T16:01:49.016Z""","null","+","null","","","","","","",""
"","","","","","image-keyboard-response","100","170352","0.0-13.0-0.3-1.24","0hkvchjl9j","","0hkvchjl9j","""2024-11-14T16:01:49.016Z""","3279","materials/imgs/D81.png","arrowleft","","[""materials/imgs/D103.png"",""materials/imgs/D55.png""]","false","random","","",""
"","","","","","html-keyboard-response","101","170853","0.0-13.0-0.3-0.25","0hkvchjl9j","","0hkvchjl9j","""2024-11-14T16:01:49.016Z""","null","+","null","","","","","","",""
"","","","","","image-keyboard-response","102","171477","0.0-13.0-0.3-1.25","0hkvchjl9j","","0hkvchjl9j","""2024-11-14T16:01:49.016Z""","621","materials/imgs/D46.png","arrowright","","[""materials/imgs/D111.png"",""materials/imgs/D82.png""]","false","random","","",""
"","","","","","html-keyboard-response","103","171978","0.0-13.0-0.3-0.26","0hkvchjl9j","","0hkvchjl9j","""2024-11-14T16:01:49.016Z""","null","+","null","","","","","","",""
"","","","","","image-keyboard-response","104","173140","0.0-13.0-0.3-1.26","0hkvchjl9j","","0hkvchjl9j","""2024-11-14T16:01:49.016Z""","1160","materials/imgs/D34.png","arrowright","","[""materials/imgs/D95.png"",""materials/imgs/D80.png""]","false","random","","",""
"","","","","","html-keyboard-response","105","173642","0.0-13.0-0.3-0.27","0hkvchjl9j","","0hkvchjl9j","""2024-11-14T16:01:49.016Z""","null","+","null","","","","","","",""
"","","","","","image-keyboard-response","106","174644","0.0-13.0-0.3-1.27","0hkvchjl9j","","0hkvchjl9j","""2024-11-14T16:01:49.016Z""","1000","materials/imgs/D56.png","arrowleft","","[""materials/imgs/D68.png"",""materials/imgs/D29.png""]","false","random","","",""
"","","","","","html-keyboard-response","107","175145","0.0-13.0-1.3-0.3","0hkvchjl9j","","0hkvchjl9j","""2024-11-14T16:01:49.016Z""","null","+","null","","","","","","",""
"","","","","","image-keyboard-response","108","176242","0.0-13.0-1.3-1.3","0hkvchjl9j","","0hkvchjl9j","""2024-11-14T16:01:49.016Z""","1095","materials/imgs/D46.png","arrowleft","","[""materials/imgs/D46.png"",""materials/imgs/D26.png""]","","check","materials/imgs/D46.png","0","true"
"","","","","","html-keyboard-response","109","176744","0.0-13.0-2.3-0.6","0hkvchjl9j","","0hkvchjl9j","""2024-11-14T16:01:49.016Z""","null","+","null","","","","","","",""
"","","","","","image-keyboard-response","110","178423","0.0-13.0-2.3-1.6","0hkvchjl9j","","0hkvchjl9j","""2024-11-14T16:01:49.016Z""","1678","materials/imgs/D56.png","arrowright","","[""materials/imgs/D25.png"",""materials/imgs/D105.png""]","false","validation","","",""
"","","","","","html-keyboard-response","111","178924","0.0-13.0-2.3-0.7","0hkvchjl9j","","0hkvchjl9j","""2024-11-14T16:01:49.016Z""","null","+","null","","","","","","",""
"","","","","","image-keyboard-response","112","179577","0.0-13.0-2.3-1.7","0hkvchjl9j","","0hkvchjl9j","""2024-11-14T16:01:49.016Z""","651","materials/imgs/D32.png","arrowleft","","[""materials/imgs/D68.png"",""materials/imgs/D96.png""]","false","validation","","",""
"","","","","","html-keyboard-response","113","180079","0.0-13.0-0.4-0.28","0hkvchjl9j","","0hkvchjl9j","""2024-11-14T16:01:49.016Z""","null","+","null","","","","","","",""
"","","","","","image-keyboard-response","114","180904","0.0-13.0-0.4-1.28","0hkvchjl9j","","0hkvchjl9j","""2024-11-14T16:01:49.016Z""","823","materials/imgs/D24.png","arrowleft","","[""materials/imgs/D95.png"",""materials/imgs/D64.png""]","false","random","","",""
"","","","","","html-keyboard-response","115","181406","0.0-13.0-0.4-0.29","0hkvchjl9j","","0hkvchjl9j","""2024-11-14T16:01:49.016Z""","null","+","null","","","","","","",""
"","","","","","image-keyboard-response","116","181999","0.0-13.0-0.4-1.29","0hkvchjl9j","","0hkvchjl9j","""2024-11-14T16:01:49.016Z""","591","materials/imgs/D34.png","arrowright","","[""materials/imgs/D1.png"",""materials/imgs/D55.png""]","false","random","","",""
"","","","","","html-keyboard-response","117","182501","0.0-13.0-0.4-0.30","0hkvchjl9j","","0hkvchjl9j","""2024-11-14T16:01:49.016Z""","null","+","null","","","","","","",""
"","","","","","image-keyboard-response","118","183336","0.0-13.0-0.4-1.30","0hkvchjl9j","","0hkvchjl9j","""2024-11-14T16:01:49.016Z""","833","materials/imgs/D19.png","arrowright","","[""materials/imgs/D101.png"",""materials/imgs/D84.png""]","false","random","","",""
"","","","","","html-keyboard-response","119","183837","0.0-13.0-0.4-0.31","0hkvchjl9j","","0hkvchjl9j","""2024-11-14T16:01:49.016Z""","null","+","null","","","","","","",""
"","","","","","image-keyboard-response","120","184533","0.0-13.0-0.4-1.31","0hkvchjl9j","","0hkvchjl9j","""2024-11-14T16:01:49.016Z""","693","materials/imgs/D35.png","arrowright","","[""materials/imgs/D26.png"",""materials/imgs/D81.png""]","false","random","","",""
"","","","","","html-keyboard-response","121","185034","0.0-13.0-0.4-0.32","0hkvchjl9j","","0hkvchjl9j","""2024-11-14T16:01:49.016Z""","null","+","null","","","","","","",""
"","","","","","image-keyboard-response","122","186112","0.0-13.0-0.4-1.32","0hkvchjl9j","","0hkvchjl9j","""2024-11-14T16:01:49.016Z""","1077","materials/imgs/D6.png","arrowright","","[""materials/imgs/D56.png"",""materials/imgs/D1.png""]","false","random","","",""
"","","","","","html-keyboard-response","123","186613","0.0-13.0-0.4-0.33","0hkvchjl9j","","0hkvchjl9j","""2024-11-14T16:01:49.016Z""","null","+","null","","","","","","",""
"","","","","","image-keyboard-response","124","187202","0.0-13.0-0.4-1.33","0hkvchjl9j","","0hkvchjl9j","""2024-11-14T16:01:49.016Z""","588","materials/imgs/D24.png","arrowright","","[""materials/imgs/D96.png"",""materials/imgs/D57.png""]","false","random","","",""
"","","","","","html-keyboard-response","125","187703","0.0-13.0-0.4-0.34","0hkvchjl9j","","0hkvchjl9j","""2024-11-14T16:01:49.016Z""","null","+","null","","","","","","",""
"","","","","","image-keyboard-response","126","188415","0.0-13.0-0.4-1.34","0hkvchjl9j","","0hkvchjl9j","""2024-11-14T16:01:49.016Z""","709","materials/imgs/D56.png","arrowleft","","[""materials/imgs/D34.png"",""materials/imgs/D32.png""]","false","random","","",""
"","","","","","html-keyboard-response","127","188916","0.0-13.0-1.4-0.4","0hkvchjl9j","","0hkvchjl9j","""2024-11-14T16:01:49.016Z""","null","+","null","","","","","","",""
"","","","","","image-keyboard-response","128","189315","0.0-13.0-1.4-1.4","0hkvchjl9j","","0hkvchjl9j","""2024-11-14T16:01:49.016Z""","397","materials/imgs/D101.png","arrowright","","[""materials/imgs/D106.png"",""materials/imgs/D101.png""]","","check","materials/imgs/D101.png","1","true"
"","","","","","html-keyboard-response","129","189816","0.0-13.0-2.4-0.8","0hkvchjl9j","","0hkvchjl9j","""2024-11-14T16:01:49.016Z""","null","+","null","","","","","","",""
"","","","","","image-keyboard-response","130","190616","0.0-13.0-2.4-1.8","0hkvchjl9j","","0hkvchjl9j","""2024-11-14T16:01:49.016Z""","798","materials/imgs/D26.png","arrowleft","","[""materials/imgs/D36.png"",""materials/imgs/D92.png""]","false","validation","","",""
"","","","","","html-keyboard-response","131","191117","0.0-13.0-2.4-0.9","0hkvchjl9j","","0hkvchjl9j","""2024-11-14T16:01:49.016Z""","null","+","null","","","","","","",""
"","","","","","image-keyboard-response","132","191791","0.0-13.0-2.4-1.9","0hkvchjl9j","","0hkvchjl9j","""2024-11-14T16:01:49.016Z""","672","materials/imgs/D52.png","arrowleft","","[""materials/imgs/D9.png"",""materials/imgs/D19.png""]","false","validation","","",""
"","","","","","html-button-response","133","193509","0.0-14.0","0hkvchjl9j","","0hkvchjl9j","""2024-11-14T16:01:49.016Z""","1717","You have completed 25% of the trials. Please click 'Continue' when you are ready proceed.","0","","","","","","",""
"","","","","","html-keyboard-response","134","194011","0.0-15.0-0.0-0.0","0hkvchjl9j","","0hkvchjl9j","""2024-11-14T16:01:49.016Z""","null","+","null","","","","","","",""
"","","","","","image-keyboard-response","135","194800","0.0-15.0-0.0-1.0","0hkvchjl9j","","0hkvchjl9j","""2024-11-14T16:01:49.016Z""","787","materials/imgs/D34.png","arrowleft","","[""materials/imgs/D22.png"",""materials/imgs/D64.png""]","false","random","","",""
"","","","","","html-keyboard-response","136","195301","0.0-15.0-0.0-0.1","0hkvchjl9j","","0hkvchjl9j","""2024-11-14T16:01:49.016Z""","null","+","null","","","","","","",""
"","","","","","image-keyboard-response","137","195931","0.0-15.0-0.0-1.1","0hkvchjl9j","","0hkvchjl9j","""2024-11-14T16:01:49.016Z""","628","materials/imgs/D55.png","arrowleft","","[""materials/imgs/D3.png"",""materials/imgs/D74.png""]","false","random","","",""
"","","","","","html-keyboard-response","138","196433","0.0-15.0-0.0-0.2","0hkvchjl9j","","0hkvchjl9j","""2024-11-14T16:01:49.016Z""","null","+","null","","","","","","",""
"","","","","","image-keyboard-response","139","196904","0.0-15.0-0.0-1.2","0hkvchjl9j","","0hkvchjl9j","""2024-11-14T16:01:49.016Z""","468","materials/imgs/D83.png","arrowright","","[""materials/imgs/D19.png"",""materials/imgs/D34.png""]","true","random","","",""
"","","","","","html-keyboard-response","140","199541","0.0-15.0-0.0-2.2-0.2","0hkvchjl9j","","0hkvchjl9j","""2024-11-14T16:01:49.016Z""","2637","<p><strong>You're going too fast.</strong><p>Please slow down and assess each triplet.<p>Press 'y' to continue.</p></p>","y","","","","","","",""
"","","","","","html-keyboard-response","141","200043","0.0-15.0-0.0-0.3","0hkvchjl9j","","0hkvchjl9j","""2024-11-14T16:01:49.016Z""","null","+","null","","","","","","",""
"","","","","","image-keyboard-response","142","200650","0.0-15.0-0.0-1.3","0hkvchjl9j","","0hkvchjl9j","""2024-11-14T16:01:49.016Z""","605","materials/imgs/D83.png","arrowleft","","[""materials/imgs/D18.png"",""materials/imgs/D48.png""]","false","random","","",""
"","","","","","html-keyboard-response","143","201151","0.0-15.0-0.0-0.4","0hkvchjl9j","","0hkvchjl9j","""2024-11-14T16:01:49.016Z""","null","+","null","","","","","","",""
"","","","","","image-keyboard-response","144","201758","0.0-15.0-0.0-1.4","0hkvchjl9j","","0hkvchjl9j","""2024-11-14T16:01:49.016Z""","604","materials/imgs/D37.png","arrowright","","[""materials/imgs/D49.png"",""materials/imgs/D66.png""]","false","random","","",""
"","","","","","html-keyboard-response","145","202259","0.0-15.0-0.0-0.5","0hkvchjl9j","","0hkvchjl9j","""2024-11-14T16:01:49.016Z""","null","+","null","","","","","","",""
"","","","","","image-keyboard-response","146","202974","0.0-15.0-0.0-1.5","0hkvchjl9j","","0hkvchjl9j","""2024-11-14T16:01:49.016Z""","713","materials/imgs/D68.png","arrowleft","","[""materials/imgs/D102.png"",""materials/imgs/D56.png""]","false","random","","",""
"","","","","","html-keyboard-response","147","203476","0.0-15.0-0.0-0.6","0hkvchjl9j","","0hkvchjl9j","""2024-11-14T16:01:49.016Z""","null","+","null","","","","","","",""
"","","","","","image-keyboard-response","148","204649","0.0-15.0-0.0-1.6","0hkvchjl9j","","0hkvchjl9j","""2024-11-14T16:01:49.016Z""","1171","materials/imgs/D74.png","arrowright","","[""materials/imgs/D16.png"",""materials/imgs/D18.png""]","false","random","","",""
"","","","","","html-keyboard-response","149","205151","0.0-15.0-1.0-0.0","0hkvchjl9j","","0hkvchjl9j","""2024-11-14T16:01:49.016Z""","null","+","null","","","","","","",""
"","","","","","image-keyboard-response","150","205646","0.0-15.0-1.0-1.0","0hkvchjl9j","","0hkvchjl9j","""2024-11-14T16:01:49.016Z""","494","materials/imgs/D64.png","arrowleft","","[""materials/imgs/D64.png"",""materials/imgs/D53.png""]","","check","materials/imgs/D64.png","0","true"
"","","","","","html-keyboard-response","151","206147","0.0-15.0-2.0-0.0","0hkvchjl9j","","0hkvchjl9j","""2024-11-14T16:01:49.016Z""","null","+","null","","","","","","",""
"","","","","","image-keyboard-response","152","206885","0.0-15.0-2.0-1.0","0hkvchjl9j","","0hkvchjl9j","""2024-11-14T16:01:49.016Z""","735","materials/imgs/D37.png","arrowright","","[""materials/imgs/D84.png"",""materials/imgs/D111.png""]","false","validation","","",""
"","","","","","html-keyboard-response","153","207386","0.0-15.0-2.0-0.1","0hkvchjl9j","","0hkvchjl9j","""2024-11-14T16:01:49.016Z""","null","+","null","","","","","","",""
"","","","","","image-keyboard-response","154","208091","0.0-15.0-2.0-1.1","0hkvchjl9j","","0hkvchjl9j","""2024-11-14T16:01:49.016Z""","703","materials/imgs/D22.png","arrowleft","","[""materials/imgs/D4.png"",""materials/imgs/D25.png""]","false","validation","","",""
"","","","","","html-keyboard-response","155","208592","0.0-15.0-0.1-0.7","0hkvchjl9j","","0hkvchjl9j","""2024-11-14T16:01:49.016Z""","null","+","null","","","","","","",""
"","","","","","image-keyboard-response","156","209168","0.0-15.0-0.1-1.7","0hkvchjl9j","","0hkvchjl9j","""2024-11-14T16:01:49.016Z""","574","materials/imgs/D53.png","arrowright","","[""materials/imgs/D3.png"",""materials/imgs/D21.png""]","false","random","","",""
"","","","","","html-keyboard-response","157","209669","0.0-15.0-0.1-0.8","0hkvchjl9j","","0hkvchjl9j","""2024-11-14T16:01:49.016Z""","null","+","null","","","","","","",""
"","","","","","image-keyboard-response","158","210317","0.0-15.0-0.1-1.8","0hkvchjl9j","","0hkvchjl9j","""2024-11-14T16:01:49.016Z""","646","materials/imgs/D105.png","arrowright","","[""materials/imgs/D8.png"",""materials/imgs/D83.png""]","false","random","","",""
"","","","","","html-keyboard-response","159","210818","0.0-15.0-0.1-0.9","0hkvchjl9j","","0hkvchjl9j","""2024-11-14T16:01:49.016Z""","null","+","null","","","","","","",""
"","","","","","image-keyboard-response","160","211864","0.0-15.0-0.1-1.9","0hkvchjl9j","","0hkvchjl9j","""2024-11-14T16:01:49.016Z""","978","materials/imgs/D101.png","arrowleft","","[""materials/imgs/D95.png"",""materials/imgs/D49.png""]","false","random","","",""
"","","","","","html-keyboard-response","161","212366","0.0-15.0-0.1-0.10","0hkvchjl9j","","0hkvchjl9j","""2024-11-14T16:01:49.016Z""","null","+","null","","","","","","",""
"","","","","","image-keyboard-response","162","213058","0.0-15.0-0.1-1.10","0hkvchjl9j","","0hkvchjl9j","""2024-11-14T16:01:49.016Z""","690","materials/imgs/D47.png","arrowright","","[""materials/imgs/D105.png"",""materials/imgs/D8.png""]","false","random","","",""
"","","","","","html-keyboard-response","163","213560","0.0-15.0-0.1-0.11","0hkvchjl9j","","0hkvchjl9j","""2024-11-14T16:01:49.016Z""","null","+","null","","","","","","",""
"","","","","","image-keyboard-response","164","214465","0.0-15.0-0.1-1.11","0hkvchjl9j","","0hkvchjl9j","""2024-11-14T16:01:49.016Z""","903","materials/imgs/D49.png","arrowright","","[""materials/imgs/D22.png"",""materials/imgs/D53.png""]","false","random","","",""
"","","","","","html-keyboard-response","165","214966","0.0-15.0-0.1-0.12","0hkvchjl9j","","0hkvchjl9j","""2024-11-14T16:01:49.016Z""","null","+","null","","","","","","",""
"","","","","","image-keyboard-response","166","215736","0.0-15.0-0.1-1.12","0hkvchjl9j","","0hkvchjl9j","""2024-11-14T16:01:49.016Z""","768","materials/imgs/D83.png","arrowright","","[""materials/imgs/D56.png"",""materials/imgs/D3.png""]","false","random","","",""
"","","","","","html-keyboard-response","167","216237","0.0-15.0-0.1-0.13","0hkvchjl9j","","0hkvchjl9j","""2024-11-14T16:01:49.016Z""","null","+","null","","","","","","",""
"","","","","","image-keyboard-response","168","216860","0.0-15.0-0.1-1.13","0hkvchjl9j","","0hkvchjl9j","""2024-11-14T16:01:49.016Z""","621","materials/imgs/D6.png","arrowleft","","[""materials/imgs/D80.png"",""materials/imgs/D1.png""]","false","random","","",""
"","","","","","html-keyboard-response","169","217362","0.0-15.0-1.1-0.1","0hkvchjl9j","","0hkvchjl9j","""2024-11-14T16:01:49.016Z""","null","+","null","","","","","","",""
"","","","","","image-keyboard-response","170","218163","0.0-15.0-1.1-1.1","0hkvchjl9j","","0hkvchjl9j","""2024-11-14T16:01:49.016Z""","799","materials/imgs/D64.png","arrowleft","","[""materials/imgs/D64.png"",""materials/imgs/D53.png""]","","check","materials/imgs/D64.png","0","true"
"","","","","","html-keyboard-response","171","218664","0.0-15.0-2.1-0.2","0hkvchjl9j","","0hkvchjl9j","""2024-11-14T16:01:49.016Z""","null","+","null","","","","","","",""
"","","","","","image-keyboard-response","172","219608","0.0-15.0-2.1-1.2","0hkvchjl9j","","0hkvchjl9j","""2024-11-14T16:01:49.016Z""","943","materials/imgs/D57.png","arrowright","","[""materials/imgs/D111.png"",""materials/imgs/D4.png""]","false","validation","","",""
"","","","","","html-keyboard-response","173","220109","0.0-15.0-2.1-0.3","0hkvchjl9j","","0hkvchjl9j","""2024-11-14T16:01:49.016Z""","null","+","null","","","","","","",""
"","","","","","image-keyboard-response","174","221724","0.0-15.0-2.1-1.3","0hkvchjl9j","","0hkvchjl9j","""2024-11-14T16:01:49.016Z""","1613","materials/imgs/D79.png","arrowleft","","[""materials/imgs/D51.png"",""materials/imgs/D64.png""]","false","validation","","",""
"","","","","","html-keyboard-response","175","222225","0.0-15.0-0.2-0.14","0hkvchjl9j","","0hkvchjl9j","""2024-11-14T16:01:49.016Z""","null","+","null","","","","","","",""
"","","","","","image-keyboard-response","176","222930","0.0-15.0-0.2-1.14","0hkvchjl9j","","0hkvchjl9j","""2024-11-14T16:01:49.016Z""","703","materials/imgs/D52.png","arrowright","","[""materials/imgs/D82.png"",""materials/imgs/D29.png""]","false","random","","",""
"","","","","","html-keyboard-response","177","223431","0.0-15.0-0.2-0.15","0hkvchjl9j","","0hkvchjl9j","""2024-11-14T16:01:49.016Z""","null","+","null","","","","","","",""
"","","","","","image-keyboard-response","178","224454","0.0-15.0-0.2-1.15","0hkvchjl9j","","0hkvchjl9j","""2024-11-14T16:01:49.016Z""","1020","materials/imgs/D92.png","arrowright","","[""materials/imgs/D26.png"",""materials/imgs/D29.png""]","false","random","","",""
"","","","","","html-keyboard-response","179","224955","0.0-15.0-0.2-0.16","0hkvchjl9j","","0hkvchjl9j","""2024-11-14T16:01:49.016Z""","null","+","null","","","","","","",""
"","","","","","image-keyboard-response","180","225563","0.0-15.0-0.2-1.16","0hkvchjl9j","","0hkvchjl9j","""2024-11-14T16:01:49.016Z""","606","materials/imgs/D53.png","arrowright","","[""materials/imgs/D104.png"",""materials/imgs/D14.png""]","false","random","","",""
"","","","","","html-keyboard-response","181","226064","0.0-15.0-0.2-0.17","0hkvchjl9j","","0hkvchjl9j","""2024-11-14T16:01:49.016Z""","null","+","null","","","","","","",""
"","","","","","image-keyboard-response","182","227189","0.0-15.0-0.2-1.17","0hkvchjl9j","","0hkvchjl9j","""2024-11-14T16:01:49.016Z""","1123","materials/imgs/D21.png","arrowleft","","[""materials/imgs/D3.png"",""materials/imgs/D80.png""]","false","random","","",""
"","","","","","html-keyboard-response","183","227691","0.0-15.0-0.2-0.18","0hkvchjl9j","","0hkvchjl9j","""2024-11-14T16:01:49.016Z""","null","+","null","","","","","","",""
"","","","","","image-keyboard-response","184","228359","0.0-15.0-0.2-1.18","0hkvchjl9j","","0hkvchjl9j","""2024-11-14T16:01:49.016Z""","666","materials/imgs/D74.png","arrowright","","[""materials/imgs/D11.png"",""materials/imgs/D80.png""]","false","random","","",""
"","","","","","html-keyboard-response","185","228860","0.0-15.0-0.2-0.19","0hkvchjl9j","","0hkvchjl9j","""2024-11-14T16:01:49.016Z""","null","+","null","","","","","","",""
"","","","","","image-keyboard-response","186","230628","0.0-15.0-0.2-1.19","0hkvchjl9j","","0hkvchjl9j","""2024-11-14T16:01:49.016Z""","1766","materials/imgs/D96.png","arrowleft","","[""materials/imgs/D102.png"",""materials/imgs/D16.png""]","false","random","","",""
"","","","","","html-keyboard-response","187","231129","0.0-15.0-0.2-0.20","0hkvchjl9j","","0hkvchjl9j","""2024-11-14T16:01:49.016Z""","null","+","null","","","","","","",""
"","","","","","image-keyboard-response","188","232185","0.0-15.0-0.2-1.20","0hkvchjl9j","","0hkvchjl9j","""2024-11-14T16:01:49.016Z""","1053","materials/imgs/D102.png","arrowleft","","[""materials/imgs/D37.png"",""materials/imgs/D4.png""]","false","random","","",""
"","","","","","html-keyboard-response","189","232686","0.0-15.0-1.2-0.2","0hkvchjl9j","","0hkvchjl9j","""2024-11-14T16:01:49.016Z""","null","+","null","","","","","","",""
"","","","","","image-keyboard-response","190","233785","0.0-15.0-1.2-1.2","0hkvchjl9j","","0hkvchjl9j","""2024-11-14T16:01:49.016Z""","1097","materials/imgs/D76.png","arrowright","","[""materials/imgs/D76.png"",""materials/imgs/D78.png""]","","check","materials/imgs/D78.png","1","false"
"","","","","","html-keyboard-response","191","238099","0.0-15.0-1.2-2.2-0.2","0hkvchjl9j","","0hkvchjl9j","""2024-11-14T16:01:49.016Z""","4313","<p><strong>Incorrect!</strong></p>That was an attention check. Please pay attention while completing this task.<p>Press 'y' to continue.</p>","y","","","","","","",""
"","","","","","html-keyboard-response","192","238601","0.0-15.0-2.2-0.4","0hkvchjl9j","","0hkvchjl9j","""2024-11-14T16:01:49.016Z""","null","+","null","","","","","","",""
"","","","","","image-keyboard-response","193","239902","0.0-15.0-2.2-1.4","0hkvchjl9j","","0hkvchjl9j","""2024-11-14T16:01:49.016Z""","1300","materials/imgs/D22.png","arrowleft","","[""materials/imgs/D4.png"",""materials/imgs/D25.png""]","false","validation","","",""
"","","","","","html-keyboard-response","194","240404","0.0-15.0-2.2-0.5","0hkvchjl9j","","0hkvchjl9j","""2024-11-14T16:01:49.016Z""","null","+","null","","","","","","",""
"","","","","","image-keyboard-response","195","241937","0.0-15.0-2.2-1.5","0hkvchjl9j","","0hkvchjl9j","""2024-11-14T16:01:49.016Z""","1532","materials/imgs/D102.png","arrowleft","","[""materials/imgs/D32.png"",""materials/imgs/D111.png""]","false","validation","","",""
"","","","","","html-keyboard-response","196","242439","0.0-15.0-0.3-0.21","0hkvchjl9j","","0hkvchjl9j","""2024-11-14T16:01:49.016Z""","null","+","null","","","","","","",""
"","","","","","image-keyboard-response","197","243449","0.0-15.0-0.3-1.21","0hkvchjl9j","","0hkvchjl9j","""2024-11-14T16:01:49.016Z""","1008","materials/imgs/D26.png","arrowright","","[""materials/imgs/D101.png"",""materials/imgs/D56.png""]","false","random","","",""
"","","","","","html-keyboard-response","198","243950","0.0-15.0-0.3-0.22","0hkvchjl9j","","0hkvchjl9j","""2024-11-14T16:01:49.016Z""","null","+","null","","","","","","",""
"","","","","","image-keyboard-response","199","244805","0.0-15.0-0.3-1.22","0hkvchjl9j","","0hkvchjl9j","""2024-11-14T16:01:49.016Z""","853","materials/imgs/D85.png","arrowright","","[""materials/imgs/D84.png"",""materials/imgs/D92.png""]","false","random","","",""
"","","","","","html-keyboard-response","200","245306","0.0-15.0-0.3-0.23","0hkvchjl9j","","0hkvchjl9j","""2024-11-14T16:01:49.016Z""","null","+","null","","","","","","",""
"","","","","","image-keyboard-response","201","246307","0.0-15.0-0.3-1.23","0hkvchjl9j","","0hkvchjl9j","""2024-11-14T16:01:49.016Z""","999","materials/imgs/D4.png","arrowleft","","[""materials/imgs/D104.png"",""materials/imgs/D1.png""]","false","random","","",""
"","","","","","html-keyboard-response","202","246808","0.0-15.0-0.3-0.24","0hkvchjl9j","","0hkvchjl9j","""2024-11-14T16:01:49.016Z""","null","+","null","","","","","","",""
"","","","","","image-keyboard-response","203","247488","0.0-15.0-0.3-1.24","0hkvchjl9j","","0hkvchjl9j","""2024-11-14T16:01:49.016Z""","678","materials/imgs/D37.png","arrowright","","[""materials/imgs/D75.png"",""materials/imgs/D85.png""]","false","random","","",""
"","","","","","html-keyboard-response","204","247989","0.0-15.0-0.3-0.25","0hkvchjl9j","","0hkvchjl9j","""2024-11-14T16:01:49.016Z""","null","+","null","","","","","","",""
"","","","","","image-keyboard-response","205","248694","0.0-15.0-0.3-1.25","0hkvchjl9j","","0hkvchjl9j","""2024-11-14T16:01:49.016Z""","703","materials/imgs/D78.png","arrowright","","[""materials/imgs/D64.png"",""materials/imgs/D21.png""]","false","random","","",""
"","","","","","html-keyboard-response","206","249195","0.0-15.0-0.3-0.26","0hkvchjl9j","","0hkvchjl9j","""2024-11-14T16:01:49.016Z""","null","+","null","","","","","","",""
"","","","","","image-keyboard-response","207","249834","0.0-15.0-0.3-1.26","0hkvchjl9j","","0hkvchjl9j","""2024-11-14T16:01:49.016Z""","637","materials/imgs/D53.png","arrowleft","","[""materials/imgs/D35.png"",""materials/imgs/D26.png""]","false","random","","",""
"","","","","","html-keyboard-response","208","250335","0.0-15.0-0.3-0.27","0hkvchjl9j","","0hkvchjl9j","""2024-11-14T16:01:49.016Z""","null","+","null","","","","","","",""
"","","","","","image-keyboard-response","209","251180","0.0-15.0-0.3-1.27","0hkvchjl9j","","0hkvchjl9j","""2024-11-14T16:01:49.016Z""","843","materials/imgs/D14.png","arrowright","","[""materials/imgs/D24.png"",""materials/imgs/D16.png""]","false","random","","",""
"","","","","","html-keyboard-response","210","251682","0.0-15.0-1.3-0.3","0hkvchjl9j","","0hkvchjl9j","""2024-11-14T16:01:49.016Z""","null","+","null","","","","","","",""
"","","","","","image-keyboard-response","211","252354","0.0-15.0-1.3-1.3","0hkvchjl9j","","0hkvchjl9j","""2024-11-14T16:01:49.016Z""","670","materials/imgs/D26.png","arrowleft","","[""materials/imgs/D26.png"",""materials/imgs/D46.png""]","","check","materials/imgs/D26.png","0","true"
"","","","","","html-keyboard-response","212","252856","0.0-15.0-2.3-0.6","0hkvchjl9j","","0hkvchjl9j","""2024-11-14T16:01:49.016Z""","null","+","null","","","","","","",""
"","","","","","image-keyboard-response","213","254022","0.0-15.0-2.3-1.6","0hkvchjl9j","","0hkvchjl9j","""2024-11-14T16:01:49.016Z""","1164","materials/imgs/D102.png","arrowleft","","[""materials/imgs/D32.png"",""materials/imgs/D111.png""]","false","validation","","",""
"","","","","","html-keyboard-response","214","254524","0.0-15.0-2.3-0.7","0hkvchjl9j","","0hkvchjl9j","""2024-11-14T16:01:49.016Z""","null","+","null","","","","","","",""
"","","","","","image-keyboard-response","215","256830","0.0-15.0-2.3-1.7","0hkvchjl9j","","0hkvchjl9j","""2024-11-14T16:01:49.016Z""","2305","materials/imgs/D106.png","arrowright","","[""materials/imgs/D57.png"",""materials/imgs/D18.png""]","false","validation","","",""
"","","","","","html-keyboard-response","216","257332","0.0-15.0-0.4-0.28","0hkvchjl9j","","0hkvchjl9j","""2024-11-14T16:01:49.016Z""","null","+","null","","","","","","",""
"","","","","","image-keyboard-response","217","261936","0.0-15.0-0.4-1.28","0hkvchjl9j","","0hkvchjl9j","""2024-11-14T16:01:49.016Z""","4602","materials/imgs/D24.png","arrowright","","[""materials/imgs/D64.png"",""materials/imgs/D65.png""]","false","random","","",""
"","","","","","html-keyboard-response","218","262437","0.0-15.0-0.4-0.29","0hkvchjl9j","","0hkvchjl9j","""2024-11-14T16:01:49.016Z""","null","+","null","","","","","","",""
"","","","","","image-keyboard-response","219","263352","0.0-15.0-0.4-1.29","0hkvchjl9j","","0hkvchjl9j","""2024-11-14T16:01:49.016Z""","913","materials/imgs/D19.png","arrowleft","","[""materials/imgs/D76.png"",""materials/imgs/D1.png""]","false","random","","",""
"","","","","","html-keyboard-response","220","263853","0.0-15.0-0.4-0.30","0hkvchjl9j","","0hkvchjl9j","""2024-11-14T16:01:49.016Z""","null","+","null","","","","","","",""
"","","","","","image-keyboard-response","221","264659","0.0-15.0-0.4-1.30","0hkvchjl9j","","0hkvchjl9j","""2024-11-14T16:01:49.016Z""","804","materials/imgs/D56.png","arrowleft","","[""materials/imgs/D46.png"",""materials/imgs/D16.png""]","false","random","","",""
"","","","","","html-keyboard-response","222","265160","0.0-15.0-0.4-0.31","0hkvchjl9j","","0hkvchjl9j","""2024-11-14T16:01:49.016Z""","null","+","null","","","","","","",""
"","","","","","image-keyboard-response","223","265977","0.0-15.0-0.4-1.31","0hkvchjl9j","","0hkvchjl9j","""2024-11-14T16:01:49.016Z""","815","materials/imgs/D22.png","arrowright","","[""materials/imgs/D68.png"",""materials/imgs/D80.png""]","false","random","","",""
"","","","","","html-keyboard-response","224","266479","0.0-15.0-0.4-0.32","0hkvchjl9j","","0hkvchjl9j","""2024-11-14T16:01:49.016Z""","null","+","null","","","","","","",""
"","","","","","image-keyboard-response","225","267256","0.0-15.0-0.4-1.32","0hkvchjl9j","","0hkvchjl9j","""2024-11-14T16:01:49.016Z""","775","materials/imgs/D68.png","arrowright","","[""materials/imgs/D66.png"",""materials/imgs/D25.png""]","false","random","","",""
"","","","","","html-keyboard-response","226","267757","0.0-15.0-0.4-0.33","0hkvchjl9j","","0hkvchjl9j","""2024-11-14T16:01:49.016Z""","null","+","null","","","","","","",""
"","","","","","image-keyboard-response","227","269756","0.0-15.0-0.4-1.33","0hkvchjl9j","","0hkvchjl9j","""2024-11-14T16:01:49.016Z""","1997","materials/imgs/D111.png","arrowright","","[""materials/imgs/D81.png"",""materials/imgs/D80.png""]","false","random","","",""
"","","","","","html-keyboard-response","228","270257","0.0-15.0-0.4-0.34","0hkvchjl9j","","0hkvchjl9j","""2024-11-14T16:01:49.016Z""","null","+","null","","","","","","",""
"","","","","","image-keyboard-response","229","295106","0.0-15.0-0.4-1.34","0hkvchjl9j","","0hkvchjl9j","""2024-11-14T16:01:49.016Z""","24846","materials/imgs/D22.png","arrowright","","[""materials/imgs/D21.png"",""materials/imgs/D16.png""]","false","random","","",""
"","","","","","html-keyboard-response","230","295607","0.0-15.0-1.4-0.4","0hkvchjl9j","","0hkvchjl9j","""2024-11-14T16:01:49.016Z""","null","+","null","","","","","","",""
"","","","","","image-keyboard-response","231","296534","0.0-15.0-1.4-1.4","0hkvchjl9j","","0hkvchjl9j","""2024-11-14T16:01:49.016Z""","925","materials/imgs/D106.png","arrowleft","","[""materials/imgs/D106.png"",""materials/imgs/D101.png""]","","check","materials/imgs/D106.png","0","true"
"","","","","","html-keyboard-response","232","297035","0.0-15.0-2.4-0.8","0hkvchjl9j","","0hkvchjl9j","""2024-11-14T16:01:49.016Z""","null","+","null","","","","","","",""
"","","","","","image-keyboard-response","233","298266","0.0-15.0-2.4-1.8","0hkvchjl9j","","0hkvchjl9j","""2024-11-14T16:01:49.016Z""","1229","materials/imgs/D96.png","arrowleft","","[""materials/imgs/D46.png"",""materials/imgs/D18.png""]","false","validation","","",""
"","","","","","html-keyboard-response","234","298768","0.0-15.0-2.4-0.9","0hkvchjl9j","","0hkvchjl9j","""2024-11-14T16:01:49.016Z""","null","+","null","","","","","","",""
"","","","","","image-keyboard-response","235","319378","0.0-15.0-2.4-1.9","0hkvchjl9j","","0hkvchjl9j","""2024-11-14T16:01:49.016Z""","20608","materials/imgs/D11.png","arrowleft","","[""materials/imgs/D83.png"",""materials/imgs/D48.png""]","false","validation","","",""
"","","","","","html-button-response","236","320887","0.0-16.0","0hkvchjl9j","","0hkvchjl9j","""2024-11-14T16:01:49.016Z""","1507","You have completed 50% of the trials. Please click 'Continue' when you are ready proceed.","0","","","","","","",""
"","","","","","html-keyboard-response","237","321388","0.0-17.0-0.0-0.0","0hkvchjl9j","","0hkvchjl9j","""2024-11-14T16:01:49.016Z""","null","+","null","","","","","","",""
"","","","","","image-keyboard-response","238","322729","0.0-17.0-0.0-1.0","0hkvchjl9j","","0hkvchjl9j","""2024-11-14T16:01:49.016Z""","1338","materials/imgs/D11.png","arrowleft","","[""materials/imgs/D16.png"",""materials/imgs/D102.png""]","false","random","","",""
"","","","","","html-keyboard-response","239","323231","0.0-17.0-0.0-0.1","0hkvchjl9j","","0hkvchjl9j","""2024-11-14T16:01:49.016Z""","null","+","null","","","","","","",""
"","","","","","image-keyboard-response","240","324058","0.0-17.0-0.0-1.1","0hkvchjl9j","","0hkvchjl9j","""2024-11-14T16:01:49.016Z""","825","materials/imgs/D32.png","arrowright","","[""materials/imgs/D14.png"",""materials/imgs/D87.png""]","false","random","","",""
"","","","","","html-keyboard-response","241","324559","0.0-17.0-0.0-0.2","0hkvchjl9j","","0hkvchjl9j","""2024-11-14T16:01:49.016Z""","null","+","null","","","","","","",""
"","","","","","image-keyboard-response","242","325484","0.0-17.0-0.0-1.2","0hkvchjl9j","","0hkvchjl9j","""2024-11-14T16:01:49.016Z""","922","materials/imgs/D77.png","arrowright","","[""materials/imgs/D20.png"",""materials/imgs/D84.png""]","false","random","","",""
"","","","","","html-keyboard-response","243","325986","0.0-17.0-0.0-0.3","0hkvchjl9j","","0hkvchjl9j","""2024-11-14T16:01:49.016Z""","null","+","null","","","","","","",""
"","","","","","image-keyboard-response","244","326954","0.0-17.0-0.0-1.3","0hkvchjl9j","","0hkvchjl9j","""2024-11-14T16:01:49.016Z""","965","materials/imgs/D79.png","arrowright","","[""materials/imgs/D96.png"",""materials/imgs/D65.png""]","false","random","","",""
"","","","","","html-keyboard-response","245","327455","0.0-17.0-0.0-0.4","0hkvchjl9j","","0hkvchjl9j","""2024-11-14T16:01:49.016Z""","null","+","null","","","","","","",""
"","","","","","image-keyboard-response","246","328424","0.0-17.0-0.0-1.4","0hkvchjl9j","","0hkvchjl9j","""2024-11-14T16:01:49.016Z""","967","materials/imgs/D49.png","arrowright","","[""materials/imgs/D80.png"",""materials/imgs/D85.png""]","false","random","","",""
"","","","","","html-keyboard-response","247","328925","0.0-17.0-0.0-0.5","0hkvchjl9j","","0hkvchjl9j","""2024-11-14T16:01:49.016Z""","null","+","null","","","","","","",""
"","","","","","image-keyboard-response","248","329717","0.0-17.0-0.0-1.5","0hkvchjl9j","","0hkvchjl9j","""2024-11-14T16:01:49.016Z""","789","materials/imgs/D65.png","arrowleft","","[""materials/imgs/D74.png"",""materials/imgs/D51.png""]","false","random","","",""
"","","","","","html-keyboard-response","249","330218","0.0-17.0-0.0-0.6","0hkvchjl9j","","0hkvchjl9j","""2024-11-14T16:01:49.016Z""","null","+","null","","","","","","",""
"","","","","","image-keyboard-response","250","333113","0.0-17.0-0.0-1.6","0hkvchjl9j","","0hkvchjl9j","""2024-11-14T16:01:49.016Z""","2893","materials/imgs/D16.png","arrowleft","","[""materials/imgs/D84.png"",""materials/imgs/D24.png""]","false","random","","",""
"","","","","","html-keyboard-response","251","333614","0.0-17.0-1.0-0.0","0hkvchjl9j","","0hkvchjl9j","""2024-11-14T16:01:49.016Z""","null","+","null","","","","","","",""
"","","","","","image-keyboard-response","252","339044","0.0-17.0-1.0-1.0","0hkvchjl9j","","0hkvchjl9j","""2024-11-14T16:01:49.016Z""","5428","materials/imgs/D46.png","arrowleft","","[""materials/imgs/D46.png"",""materials/imgs/D26.png""]","","check","materials/imgs/D46.png","0","true"
"","","","","","html-keyboard-response","253","339546","0.0-17.0-2.0-0.0","0hkvchjl9j","","0hkvchjl9j","""2024-11-14T16:01:49.016Z""","null","+","null","","","","","","",""
"","","","","","image-keyboard-response","254","340436","0.0-17.0-2.0-1.0","0hkvchjl9j","","0hkvchjl9j","""2024-11-14T16:01:49.016Z""","889","materials/imgs/D66.png","arrowleft","","[""materials/imgs/D85.png"",""materials/imgs/D25.png""]","false","validation","","",""
"","","","","","html-keyboard-response","255","340937","0.0-17.0-2.0-0.1","0hkvchjl9j","","0hkvchjl9j","""2024-11-14T16:01:49.016Z""","null","+","null","","","","","","",""
"","","","","","image-keyboard-response","256","341794","0.0-17.0-2.0-1.1","0hkvchjl9j","","0hkvchjl9j","""2024-11-14T16:01:49.016Z""","855","materials/imgs/D96.png","arrowright","","[""materials/imgs/D46.png"",""materials/imgs/D18.png""]","false","validation","","",""
"","","","","","html-keyboard-response","257","342295","0.0-17.0-0.1-0.7","0hkvchjl9j","","0hkvchjl9j","""2024-11-14T16:01:49.016Z""","null","+","null","","","","","","",""
"","","","","","image-keyboard-response","258","343344","0.0-17.0-0.1-1.7","0hkvchjl9j","","0hkvchjl9j","""2024-11-14T16:01:49.016Z""","1046","materials/imgs/D66.png","arrowleft","","[""materials/imgs/D35.png"",""materials/imgs/D22.png""]","false","random","","",""
"","","","","","html-keyboard-response","259","343845","0.0-17.0-0.1-0.8","0hkvchjl9j","","0hkvchjl9j","""2024-11-14T16:01:49.016Z""","null","+","null","","","","","","",""
"","","","","","image-keyboard-response","260","344809","0.0-17.0-0.1-1.8","0hkvchjl9j","","0hkvchjl9j","""2024-11-14T16:01:49.016Z""","962","materials/imgs/D52.png","arrowleft","","[""materials/imgs/D16.png"",""materials/imgs/D103.png""]","false","random","","",""
"","","","","","html-keyboard-response","261","345310","0.0-17.0-0.1-0.9","0hkvchjl9j","","0hkvchjl9j","""2024-11-14T16:01:49.016Z""","null","+","null","","","","","","",""
"","","","","","image-keyboard-response","262","346676","0.0-17.0-0.1-1.9","0hkvchjl9j","","0hkvchjl9j","""2024-11-14T16:01:49.016Z""","1363","materials/imgs/D52.png","arrowright","","[""materials/imgs/D102.png"",""materials/imgs/D21.png""]","false","random","","",""
"","","","","","html-keyboard-response","263","347177","0.0-17.0-0.1-0.10","0hkvchjl9j","","0hkvchjl9j","""2024-11-14T16:01:49.016Z""","null","+","null","","","","","","",""
"","","","","","image-keyboard-response","264","347921","0.0-17.0-0.1-1.10","0hkvchjl9j","","0hkvchjl9j","""2024-11-14T16:01:49.016Z""","742","materials/imgs/D37.png","arrowleft","","[""materials/imgs/D95.png"",""materials/imgs/D25.png""]","false","random","","",""
"","","","","","html-keyboard-response","265","348422","0.0-17.0-0.1-0.11","0hkvchjl9j","","0hkvchjl9j","""2024-11-14T16:01:49.016Z""","null","+","null","","","","","","",""
"","","","","","image-keyboard-response","266","349258","0.0-17.0-0.1-1.11","0hkvchjl9j","","0hkvchjl9j","""2024-11-14T16:01:49.016Z""","833","materials/imgs/D103.png","arrowleft","","[""materials/imgs/D77.png"",""materials/imgs/D46.png""]","false","random","","",""
"","","","","","html-keyboard-response","267","349760","0.0-17.0-0.1-0.12","0hkvchjl9j","","0hkvchjl9j","""2024-11-14T16:01:49.016Z""","null","+","null","","","","","","",""
"","","","","","image-keyboard-response","268","351243","0.0-17.0-0.1-1.12","0hkvchjl9j","","0hkvchjl9j","""2024-11-14T16:01:49.016Z""","1482","materials/imgs/D20.png","arrowleft","","[""materials/imgs/D95.png"",""materials/imgs/D24.png""]","false","random","","",""
"","","","","","html-keyboard-response","269","351744","0.0-17.0-0.1-0.13","0hkvchjl9j","","0hkvchjl9j","""2024-11-14T16:01:49.016Z""","null","+","null","","","","","","",""
"","","","","","image-keyboard-response","270","352498","0.0-17.0-0.1-1.13","0hkvchjl9j","","0hkvchjl9j","""2024-11-14T16:01:49.016Z""","751","materials/imgs/D19.png","arrowright","","[""materials/imgs/D68.png"",""materials/imgs/D32.png""]","false","random","","",""
"","","","","","html-keyboard-response","271","352999","0.0-17.0-1.1-0.1","0hkvchjl9j","","0hkvchjl9j","""2024-11-14T16:01:49.016Z""","null","+","null","","","","","","",""
"","","","","","image-keyboard-response","272","354669","0.0-17.0-1.1-1.1","0hkvchjl9j","","0hkvchjl9j","""2024-11-14T16:01:49.016Z""","1668","materials/imgs/D106.png","arrowleft","","[""materials/imgs/D106.png"",""materials/imgs/D101.png""]","","check","materials/imgs/D106.png","0","true"
"","","","","","html-keyboard-response","273","355170","0.0-17.0-2.1-0.2","0hkvchjl9j","","0hkvchjl9j","""2024-11-14T16:01:49.016Z""","null","+","null","","","","","","",""
"","","","","","image-keyboard-response","274","355989","0.0-17.0-2.1-1.2","0hkvchjl9j","","0hkvchjl9j","""2024-11-14T16:01:49.016Z""","816","materials/imgs/D111.png","arrowleft","","[""materials/imgs/D82.png"",""materials/imgs/D95.png""]","false","validation","","",""
"","","","","","html-keyboard-response","275","356490","0.0-17.0-2.1-0.3","0hkvchjl9j","","0hkvchjl9j","""2024-11-14T16:01:49.016Z""","null","+","null","","","","","","",""
"","","","","","image-keyboard-response","276","357231","0.0-17.0-2.1-1.3","0hkvchjl9j","","0hkvchjl9j","""2024-11-14T16:01:49.016Z""","739","materials/imgs/D35.png","arrowright","","[""materials/imgs/D83.png"",""materials/imgs/D24.png""]","false","validation","","",""
"","","","","","html-keyboard-response","277","357732","0.0-17.0-0.2-0.14","0hkvchjl9j","","0hkvchjl9j","""2024-11-14T16:01:49.016Z""","null","+","null","","","","","","",""
"","","","","","image-keyboard-response","278","358612","0.0-17.0-0.2-1.14","0hkvchjl9j","","0hkvchjl9j","""2024-11-14T16:01:49.016Z""","878","materials/imgs/D80.png","arrowright","","[""materials/imgs/D94.png"",""materials/imgs/D103.png""]","false","random","","",""
"","","","","","html-keyboard-response","279","359113","0.0-17.0-0.2-0.15","0hkvchjl9j","","0hkvchjl9j","""2024-11-14T16:01:49.016Z""","null","+","null","","","","","","",""
"","","","","","image-keyboard-response","280","360546","0.0-17.0-0.2-1.15","0hkvchjl9j","","0hkvchjl9j","""2024-11-14T16:01:49.016Z""","1430","materials/imgs/D46.png","arrowleft","","[""materials/imgs/D105.png"",""materials/imgs/D81.png""]","false","random","","",""
"","","","","","html-keyboard-response","281","361046","0.0-17.0-0.2-0.16","0hkvchjl9j","","0hkvchjl9j","""2024-11-14T16:01:49.016Z""","null","+","null","","","","","","",""
"","","","","","image-keyboard-response","282","361959","0.0-17.0-0.2-1.16","0hkvchjl9j","","0hkvchjl9j","""2024-11-14T16:01:49.016Z""","910","materials/imgs/D26.png","arrowright","","[""materials/imgs/D87.png"",""materials/imgs/D55.png""]","false","random","","",""
"","","","","","html-keyboard-response","283","362460","0.0-17.0-0.2-0.17","0hkvchjl9j","","0hkvchjl9j","""2024-11-14T16:01:49.016Z""","null","+","null","","","","","","",""
"","","","","","image-keyboard-response","284","363600","0.0-17.0-0.2-1.17","0hkvchjl9j","","0hkvchjl9j","""2024-11-14T16:01:49.016Z""","1138","materials/imgs/D105.png","arrowright","","[""materials/imgs/D1.png"",""materials/imgs/D75.png""]","false","random","","",""
"","","","","","html-keyboard-response","285","364101","0.0-17.0-0.2-0.18","0hkvchjl9j","","0hkvchjl9j","""2024-11-14T16:01:49.016Z""","null","+","null","","","","","","",""
"","","","","","image-keyboard-response","286","364925","0.0-17.0-0.2-1.18","0hkvchjl9j","","0hkvchjl9j","""2024-11-14T16:01:49.016Z""","822","materials/imgs/D87.png","arrowright","","[""materials/imgs/D68.png"",""materials/imgs/D32.png""]","false","random","","",""
"","","","","","html-keyboard-response","287","365427","0.0-17.0-0.2-0.19","0hkvchjl9j","","0hkvchjl9j","""2024-11-14T16:01:49.016Z""","null","+","null","","","","","","",""
"","","","","","image-keyboard-response","288","366200","0.0-17.0-0.2-1.19","0hkvchjl9j","","0hkvchjl9j","""2024-11-14T16:01:49.016Z""","765","materials/imgs/D96.png","arrowleft","","[""materials/imgs/D53.png"",""materials/imgs/D32.png""]","false","random","","",""
"","","","","","html-keyboard-response","289","366701","0.0-17.0-0.2-0.20","0hkvchjl9j","","0hkvchjl9j","""2024-11-14T16:01:49.016Z""","null","+","null","","","","","","",""
"","","","","","image-keyboard-response","290","367573","0.0-17.0-0.2-1.20","0hkvchjl9j","","0hkvchjl9j","""2024-11-14T16:01:49.016Z""","870","materials/imgs/D1.png","arrowright","","[""materials/imgs/D6.png"",""materials/imgs/D11.png""]","false","random","","",""
"","","","","","html-keyboard-response","291","368075","0.0-17.0-1.2-0.2","0hkvchjl9j","","0hkvchjl9j","""2024-11-14T16:01:49.016Z""","null","+","null","","","","","","",""
"","","","","","image-keyboard-response","292","368706","0.0-17.0-1.2-1.2","0hkvchjl9j","","0hkvchjl9j","""2024-11-14T16:01:49.016Z""","630","materials/imgs/D106.png","arrowleft","","[""materials/imgs/D106.png"",""materials/imgs/D101.png""]","","check","materials/imgs/D106.png","0","true"
"","","","","","html-keyboard-response","293","369208","0.0-17.0-2.2-0.4","0hkvchjl9j","","0hkvchjl9j","""2024-11-14T16:01:49.016Z""","null","+","null","","","","","","",""
"","","","","","image-keyboard-response","294","370278","0.0-17.0-2.2-1.4","0hkvchjl9j","","0hkvchjl9j","""2024-11-14T16:01:49.016Z""","1068","materials/imgs/D53.png","arrowleft","","[""materials/imgs/D77.png"",""materials/imgs/D75.png""]","false","validation","","",""
"","","","","","html-keyboard-response","295","370779","0.0-17.0-2.2-0.5","0hkvchjl9j","","0hkvchjl9j","""2024-11-14T16:01:49.016Z""","null","+","null","","","","","","",""
"","","","","","image-keyboard-response","296","371799","0.0-17.0-2.2-1.5","0hkvchjl9j","","0hkvchjl9j","""2024-11-14T16:01:49.016Z""","1018","materials/imgs/D101.png","arrowright","","[""materials/imgs/D76.png"",""materials/imgs/D47.png""]","false","validation","","",""
"","","","","","html-keyboard-response","297","372301","0.0-17.0-0.3-0.21","0hkvchjl9j","","0hkvchjl9j","""2024-11-14T16:01:49.016Z""","null","+","null","","","","","","",""
"","","","","","image-keyboard-response","298","373061","0.0-17.0-0.3-1.21","0hkvchjl9j","","0hkvchjl9j","""2024-11-14T16:01:49.016Z""","759","materials/imgs/D8.png","arrowleft","","[""materials/imgs/D96.png"",""materials/imgs/D80.png""]","false","random","","",""
"","","","","","html-keyboard-response","299","373563","0.0-17.0-0.3-0.22","0hkvchjl9j","","0hkvchjl9j","""2024-11-14T16:01:49.016Z""","null","+","null","","","","","","",""
"","","","","","image-keyboard-response","300","374326","0.0-17.0-0.3-1.22","0hkvchjl9j","","0hkvchjl9j","""2024-11-14T16:01:49.016Z""","761","materials/imgs/D48.png","arrowright","","[""materials/imgs/D87.png"",""materials/imgs/D9.png""]","false","random","","",""
"","","","","","html-keyboard-response","301","374827","0.0-17.0-0.3-0.23","0hkvchjl9j","","0hkvchjl9j","""2024-11-14T16:01:49.016Z""","null","+","null","","","","","","",""
"","","","","","image-keyboard-response","302","375836","0.0-17.0-0.3-1.23","0hkvchjl9j","","0hkvchjl9j","""2024-11-14T16:01:49.016Z""","1007","materials/imgs/D57.png","arrowleft","","[""materials/imgs/D77.png"",""materials/imgs/D35.png""]","false","random","","",""
"","","","","","html-keyboard-response","303","376338","0.0-17.0-0.3-0.24","0hkvchjl9j","","0hkvchjl9j","""2024-11-14T16:01:49.016Z""","null","+","null","","","","","","",""
"","","","","","image-keyboard-response","304","377015","0.0-17.0-0.3-1.24","0hkvchjl9j","","0hkvchjl9j","""2024-11-14T16:01:49.016Z""","675","materials/imgs/D11.png","arrowleft","","[""materials/imgs/D111.png"",""materials/imgs/D36.png""]","false","random","","",""
"","","","","","html-keyboard-response","305","377517","0.0-17.0-0.3-0.25","0hkvchjl9j","","0hkvchjl9j","""2024-11-14T16:01:49.016Z""","null","+","null","","","","","","",""
"","","","","","image-keyboard-response","306","378106","0.0-17.0-0.3-1.25","0hkvchjl9j","","0hkvchjl9j","""2024-11-14T16:01:49.016Z""","587","materials/imgs/D55.png","arrowright","","[""materials/imgs/D83.png"",""materials/imgs/D77.png""]","false","random","","",""
"","","","","","html-keyboard-response","307","378608","0.0-17.0-0.3-0.26","0hkvchjl9j","","0hkvchjl9j","""2024-11-14T16:01:49.016Z""","null","+","null","","","","","","",""
"","","","","","image-keyboard-response","308","379162","0.0-17.0-0.3-1.26","0hkvchjl9j","","0hkvchjl9j","""2024-11-14T16:01:49.016Z""","552","materials/imgs/D51.png","arrowleft","","[""materials/imgs/D78.png"",""materials/imgs/D104.png""]","false","random","","",""
"","","","","","html-keyboard-response","309","379664","0.0-17.0-0.3-0.27","0hkvchjl9j","","0hkvchjl9j","""2024-11-14T16:01:49.016Z""","null","+","null","","","","","","",""
"","","","","","image-keyboard-response","310","380277","0.0-17.0-0.3-1.27","0hkvchjl9j","","0hkvchjl9j","""2024-11-14T16:01:49.016Z""","611","materials/imgs/D106.png","arrowleft","","[""materials/imgs/D68.png"",""materials/imgs/D47.png""]","false","random","","",""
"","","","","","html-keyboard-response","311","380778","0.0-17.0-1.3-0.3","0hkvchjl9j","","0hkvchjl9j","""2024-11-14T16:01:49.016Z""","null","+","null","","","","","","",""
"","","","","","image-keyboard-response","312","381315","0.0-17.0-1.3-1.3","0hkvchjl9j","","0hkvchjl9j","""2024-11-14T16:01:49.016Z""","536","materials/imgs/D64.png","arrowleft","","[""materials/imgs/D64.png"",""materials/imgs/D53.png""]","","check","materials/imgs/D64.png","0","true"
"","","","","","html-keyboard-response","313","381816","0.0-17.0-2.3-0.6","0hkvchjl9j","","0hkvchjl9j","""2024-11-14T16:01:49.016Z""","null","+","null","","","","","","",""
"","","","","","image-keyboard-response","314","382487","0.0-17.0-2.3-1.6","0hkvchjl9j","","0hkvchjl9j","""2024-11-14T16:01:49.016Z""","669","materials/imgs/D9.png","arrowright","","[""materials/imgs/D103.png"",""materials/imgs/D4.png""]","false","validation","","",""
"","","","","","html-keyboard-response","315","382988","0.0-17.0-2.3-0.7","0hkvchjl9j","","0hkvchjl9j","""2024-11-14T16:01:49.016Z""","null","+","null","","","","","","",""
"","","","","","image-keyboard-response","316","383677","0.0-17.0-2.3-1.7","0hkvchjl9j","","0hkvchjl9j","""2024-11-14T16:01:49.016Z""","688","materials/imgs/D64.png","arrowleft","","[""materials/imgs/D6.png"",""materials/imgs/D81.png""]","false","validation","","",""
"","","","","","html-keyboard-response","317","384178","0.0-17.0-0.4-0.28","0hkvchjl9j","","0hkvchjl9j","""2024-11-14T16:01:49.016Z""","null","+","null","","","","","","",""
"","","","","","image-keyboard-response","318","384812","0.0-17.0-0.4-1.28","0hkvchjl9j","","0hkvchjl9j","""2024-11-14T16:01:49.016Z""","633","materials/imgs/D3.png","arrowright","","[""materials/imgs/D37.png"",""materials/imgs/D26.png""]","false","random","","",""
"","","","","","html-keyboard-response","319","385313","0.0-17.0-0.4-0.29","0hkvchjl9j","","0hkvchjl9j","""2024-11-14T16:01:49.016Z""","null","+","null","","","","","","",""
"","","","","","image-keyboard-response","320","386145","0.0-17.0-0.4-1.29","0hkvchjl9j","","0hkvchjl9j","""2024-11-14T16:01:49.016Z""","829","materials/imgs/D37.png","arrowright","","[""materials/imgs/D22.png"",""materials/imgs/D78.png""]","false","random","","",""
"","","","","","html-keyboard-response","321","386646","0.0-17.0-0.4-0.30","0hkvchjl9j","","0hkvchjl9j","""2024-11-14T16:01:49.016Z""","null","+","null","","","","","","",""
"","","","","","image-keyboard-response","322","387897","0.0-17.0-0.4-1.30","0hkvchjl9j","","0hkvchjl9j","""2024-11-14T16:01:49.016Z""","1249","materials/imgs/D34.png","arrowright","","[""materials/imgs/D18.png"",""materials/imgs/D49.png""]","false","random","","",""
"","","","","","html-keyboard-response","323","388399","0.0-17.0-0.4-0.31","0hkvchjl9j","","0hkvchjl9j","""2024-11-14T16:01:49.016Z""","null","+","null","","","","","","",""
"","","","","","image-keyboard-response","324","388902","0.0-17.0-0.4-1.31","0hkvchjl9j","","0hkvchjl9j","""2024-11-14T16:01:49.016Z""","501","materials/imgs/D1.png","arrowleft","","[""materials/imgs/D80.png"",""materials/imgs/D111.png""]","false","random","","",""
"","","","","","html-keyboard-response","325","389403","0.0-17.0-0.4-0.32","0hkvchjl9j","","0hkvchjl9j","""2024-11-14T16:01:49.016Z""","null","+","null","","","","","","",""
"","","","","","image-keyboard-response","326","389939","0.0-17.0-0.4-1.32","0hkvchjl9j","","0hkvchjl9j","""2024-11-14T16:01:49.016Z""","533","materials/imgs/D11.png","arrowleft","","[""materials/imgs/D79.png"",""materials/imgs/D3.png""]","false","random","","",""
"","","","","","html-keyboard-response","327","390440","0.0-17.0-0.4-0.33","0hkvchjl9j","","0hkvchjl9j","""2024-11-14T16:01:49.016Z""","null","+","null","","","","","","",""
"","","","","","image-keyboard-response","328","391164","0.0-17.0-0.4-1.33","0hkvchjl9j","","0hkvchjl9j","""2024-11-14T16:01:49.016Z""","723","materials/imgs/D101.png","arrowright","","[""materials/imgs/D94.png"",""materials/imgs/D83.png""]","false","random","","",""
"","","","","","html-keyboard-response","329","391665","0.0-17.0-0.4-0.34","0hkvchjl9j","","0hkvchjl9j","""2024-11-14T16:01:49.016Z""","null","+","null","","","","","","",""
"","","","","","image-keyboard-response","330","392339","0.0-17.0-0.4-1.34","0hkvchjl9j","","0hkvchjl9j","""2024-11-14T16:01:49.016Z""","672","materials/imgs/D84.png","arrowright","","[""materials/imgs/D37.png"",""materials/imgs/D14.png""]","false","random","","",""
"","","","","","html-keyboard-response","331","392839","0.0-17.0-1.4-0.4","0hkvchjl9j","","0hkvchjl9j","""2024-11-14T16:01:49.016Z""","null","+","null","","","","","","",""
"","","","","","image-keyboard-response","332","393476","0.0-17.0-1.4-1.4","0hkvchjl9j","","0hkvchjl9j","""2024-11-14T16:01:49.016Z""","635","materials/imgs/D8.png","arrowright","","[""materials/imgs/D18.png"",""materials/imgs/D8.png""]","","check","materials/imgs/D8.png","1","true"
"","","","","","html-keyboard-response","333","393978","0.0-17.0-2.4-0.8","0hkvchjl9j","","0hkvchjl9j","""2024-11-14T16:01:49.016Z""","null","+","null","","","","","","",""
"","","","","","image-keyboard-response","334","394643","0.0-17.0-2.4-1.8","0hkvchjl9j","","0hkvchjl9j","""2024-11-14T16:01:49.016Z""","663","materials/imgs/D65.png","arrowleft","","[""materials/imgs/D4.png"",""materials/imgs/D16.png""]","false","validation","","",""
"","","","","","html-keyboard-response","335","395144","0.0-17.0-2.4-0.9","0hkvchjl9j","","0hkvchjl9j","""2024-11-14T16:01:49.016Z""","null","+","null","","","","","","",""
"","","","","","image-keyboard-response","336","395764","0.0-17.0-2.4-1.9","0hkvchjl9j","","0hkvchjl9j","""2024-11-14T16:01:49.016Z""","619","materials/imgs/D103.png","arrowright","","[""materials/imgs/D76.png"",""materials/imgs/D106.png""]","false","validation","","",""
"","","","","","html-button-response","337","397049","0.0-18.0","0hkvchjl9j","","0hkvchjl9j","""2024-11-14T16:01:49.016Z""","1284","You have completed 75% of the trials. Please click 'Continue' when you are ready proceed.","0","","","","","","",""
"","","","","","html-keyboard-response","338","397550","0.0-19.0-0.0-0.0","0hkvchjl9j","","0hkvchjl9j","""2024-11-14T16:01:49.016Z""","null","+","null","","","","","","",""
"","","","","","image-keyboard-response","339","398145","0.0-19.0-0.0-1.0","0hkvchjl9j","","0hkvchjl9j","""2024-11-14T16:01:49.016Z""","592","materials/imgs/D80.png","arrowright","","[""materials/imgs/D36.png"",""materials/imgs/D24.png""]","false","random","","",""
"","","","","","html-keyboard-response","340","398646","0.0-19.0-0.0-0.1","0hkvchjl9j","","0hkvchjl9j","""2024-11-14T16:01:49.016Z""","null","+","null","","","","","","",""
"","","","","","image-keyboard-response","341","399610","0.0-19.0-0.0-1.1","0hkvchjl9j","","0hkvchjl9j","""2024-11-14T16:01:49.016Z""","963","materials/imgs/D96.png","arrowright","","[""materials/imgs/D29.png"",""materials/imgs/D18.png""]","false","random","","",""
"","","","","","html-keyboard-response","342","400111","0.0-19.0-0.0-0.2","0hkvchjl9j","","0hkvchjl9j","""2024-11-14T16:01:49.016Z""","null","+","null","","","","","","",""
"","","","","","image-keyboard-response","343","400797","0.0-19.0-0.0-1.2","0hkvchjl9j","","0hkvchjl9j","""2024-11-14T16:01:49.016Z""","684","materials/imgs/D49.png","arrowleft","","[""materials/imgs/D11.png"",""materials/imgs/D96.png""]","false","random","","",""
"","","","","","html-keyboard-response","344","401299","0.0-19.0-0.0-0.3","0hkvchjl9j","","0hkvchjl9j","""2024-11-14T16:01:49.016Z""","null","+","null","","","","","","",""
"","","","","","image-keyboard-response","345","401742","0.0-19.0-0.0-1.3","0hkvchjl9j","","0hkvchjl9j","""2024-11-14T16:01:49.016Z""","441","materials/imgs/D92.png","arrowright","","[""materials/imgs/D18.png"",""materials/imgs/D78.png""]","true","random","","",""
"","","","","","html-keyboard-response","346","403882","0.0-19.0-0.0-2.3-0.3","0hkvchjl9j","","0hkvchjl9j","""2024-11-14T16:01:49.016Z""","2139","<p><strong>You're going too fast.</strong><p>Please slow down and assess each triplet.<p>Press 'y' to continue.</p></p>","y","","","","","","",""
"","","","","","html-keyboard-response","347","404383","0.0-19.0-0.0-0.4","0hkvchjl9j","","0hkvchjl9j","""2024-11-14T16:01:49.016Z""","null","+","null","","","","","","",""
"","","","","","image-keyboard-response","348","404836","0.0-19.0-0.0-1.4","0hkvchjl9j","","0hkvchjl9j","""2024-11-14T16:01:49.016Z""","451","materials/imgs/D80.png","arrowright","","[""materials/imgs/D95.png"",""materials/imgs/D82.png""]","true","random","","",""
"","","","","","html-keyboard-response","349","408688","0.0-19.0-0.0-2.4-0.4","0hkvchjl9j","","0hkvchjl9j","""2024-11-14T16:01:49.016Z""","3851","<p><strong>You're going too fast.</strong><p>Please slow down and assess each triplet.<p>Press 'y' to continue.</p></p>","y","","","","","","",""
"","","","","","html-keyboard-response","350","409189","0.0-19.0-0.0-0.5","0hkvchjl9j","","0hkvchjl9j","""2024-11-14T16:01:49.016Z""","null","+","null","","","","","","",""
"","","","","","image-keyboard-response","351","410378","0.0-19.0-0.0-1.5","0hkvchjl9j","","0hkvchjl9j","""2024-11-14T16:01:49.016Z""","1186","materials/imgs/D92.png","arrowleft","","[""materials/imgs/D68.png"",""materials/imgs/D34.png""]","false","random","","",""
"","","","","","html-keyboard-response","352","410879","0.0-19.0-0.0-0.6","0hkvchjl9j","","0hkvchjl9j","""2024-11-14T16:01:49.016Z""","null","+","null","","","","","","",""
"","","","","","image-keyboard-response","353","411631","0.0-19.0-0.0-1.6","0hkvchjl9j","","0hkvchjl9j","""2024-11-14T16:01:49.016Z""","750","materials/imgs/D9.png","arrowleft","","[""materials/imgs/D32.png"",""materials/imgs/D75.png""]","false","random","","",""
"","","","","","html-keyboard-response","354","412132","0.0-19.0-1.0-0.0","0hkvchjl9j","","0hkvchjl9j","""2024-11-14T16:01:49.016Z""","null","+","null","","","","","","",""
"","","","","","image-keyboard-response","355","412976","0.0-19.0-1.0-1.0","0hkvchjl9j","","0hkvchjl9j","""2024-11-14T16:01:49.016Z""","841","materials/imgs/D78.png","arrowright","","[""materials/imgs/D76.png"",""materials/imgs/D78.png""]","","check","materials/imgs/D78.png","1","true"
"","","","","","html-keyboard-response","356","413476","0.0-19.0-2.0-0.0","0hkvchjl9j","","0hkvchjl9j","""2024-11-14T16:01:49.016Z""","null","+","null","","","","","","",""
"","","","","","image-keyboard-response","357","414167","0.0-19.0-2.0-1.0","0hkvchjl9j","","0hkvchjl9j","""2024-11-14T16:01:49.016Z""","688","materials/imgs/D4.png","arrowleft","","[""materials/imgs/D52.png"",""materials/imgs/D83.png""]","false","validation","","",""
"","","","","","html-keyboard-response","358","414668","0.0-19.0-2.0-0.1","0hkvchjl9j","","0hkvchjl9j","""2024-11-14T16:01:49.016Z""","null","+","null","","","","","","",""
"","","","","","image-keyboard-response","359","415209","0.0-19.0-2.0-1.1","0hkvchjl9j","","0hkvchjl9j","""2024-11-14T16:01:49.016Z""","539","materials/imgs/D53.png","arrowleft","","[""materials/imgs/D77.png"",""materials/imgs/D75.png""]","false","validation","","",""
"","","","","","html-keyboard-response","360","415710","0.0-19.0-0.1-0.7","0hkvchjl9j","","0hkvchjl9j","""2024-11-14T16:01:49.016Z""","null","+","null","","","","","","",""
"","","","","","image-keyboard-response","361","416291","0.0-19.0-0.1-1.7","0hkvchjl9j","","0hkvchjl9j","""2024-11-14T16:01:49.016Z""","579","materials/imgs/D101.png","arrowright","","[""materials/imgs/D95.png"",""materials/imgs/D81.png""]","false","random","","",""
"","","","","","html-keyboard-response","362","416792","0.0-19.0-0.1-0.8","0hkvchjl9j","","0hkvchjl9j","""2024-11-14T16:01:49.016Z""","null","+","null","","","","","","",""
"","","","","","image-keyboard-response","363","417448","0.0-19.0-0.1-1.8","0hkvchjl9j","","0hkvchjl9j","""2024-11-14T16:01:49.016Z""","654","materials/imgs/D111.png","arrowleft","","[""materials/imgs/D16.png"",""materials/imgs/D77.png""]","false","random","","",""
"","","","","","html-keyboard-response","364","417949","0.0-19.0-0.1-0.9","0hkvchjl9j","","0hkvchjl9j","""2024-11-14T16:01:49.016Z""","null","+","null","","","","","","",""
"","","","","","image-keyboard-response","365","418892","0.0-19.0-0.1-1.9","0hkvchjl9j","","0hkvchjl9j","""2024-11-14T16:01:49.016Z""","940","materials/imgs/D56.png","arrowright","","[""materials/imgs/D52.png"",""materials/imgs/D25.png""]","false","random","","",""
"","","","","","html-keyboard-response","366","419394","0.0-19.0-0.1-0.10","0hkvchjl9j","","0hkvchjl9j","""2024-11-14T16:01:49.016Z""","null","+","null","","","","","","",""
"","","","","","image-keyboard-response","367","420106","0.0-19.0-0.1-1.10","0hkvchjl9j","","0hkvchjl9j","""2024-11-14T16:01:49.016Z""","710","materials/imgs/D64.png","arrowleft","","[""materials/imgs/D49.png"",""materials/imgs/D3.png""]","false","random","","",""
"","","","","","html-keyboard-response","368","420607","0.0-19.0-0.1-0.11","0hkvchjl9j","","0hkvchjl9j","""2024-11-14T16:01:49.016Z""","null","+","null","","","","","","",""
"","","","","","image-keyboard-response","369","421398","0.0-19.0-0.1-1.11","0hkvchjl9j","","0hkvchjl9j","""2024-11-14T16:01:49.016Z""","789","materials/imgs/D6.png","arrowright","","[""materials/imgs/D87.png"",""materials/imgs/D20.png""]","false","random","","",""
"","","","","","html-keyboard-response","370","421899","0.0-19.0-0.1-0.12","0hkvchjl9j","","0hkvchjl9j","""2024-11-14T16:01:49.016Z""","null","+","null","","","","","","",""
"","","","","","image-keyboard-response","371","422738","0.0-19.0-0.1-1.12","0hkvchjl9j","","0hkvchjl9j","""2024-11-14T16:01:49.016Z""","837","materials/imgs/D36.png","arrowright","","[""materials/imgs/D48.png"",""materials/imgs/D20.png""]","false","random","","",""
"","","","","","html-keyboard-response","372","423240","0.0-19.0-0.1-0.13","0hkvchjl9j","","0hkvchjl9j","""2024-11-14T16:01:49.016Z""","null","+","null","","","","","","",""
"","","","","","image-keyboard-response","373","425496","0.0-19.0-0.1-1.13","0hkvchjl9j","","0hkvchjl9j","""2024-11-14T16:01:49.016Z""","2254","materials/imgs/D111.png","arrowleft","","[""materials/imgs/D8.png"",""materials/imgs/D94.png""]","false","random","","",""
"","","","","","html-keyboard-response","374","425997","0.0-19.0-1.1-0.1","0hkvchjl9j","","0hkvchjl9j","""2024-11-14T16:01:49.016Z""","null","+","null","","","","","","",""
"","","","","","image-keyboard-response","375","426697","0.0-19.0-1.1-1.1","0hkvchjl9j","","0hkvchjl9j","""2024-11-14T16:01:49.016Z""","698","materials/imgs/D26.png","arrowleft","","[""materials/imgs/D26.png"",""materials/imgs/D46.png""]","","check","materials/imgs/D26.png","0","true"
"","","","","","html-keyboard-response","376","427199","0.0-19.0-2.1-0.2","0hkvchjl9j","","0hkvchjl9j","""2024-11-14T16:01:49.016Z""","null","+","null","","","","","","",""
"","","","","","image-keyboard-response","377","427802","0.0-19.0-2.1-1.2","0hkvchjl9j","","0hkvchjl9j","""2024-11-14T16:01:49.016Z""","602","materials/imgs/D3.png","arrowleft","","[""materials/imgs/D79.png"",""materials/imgs/D48.png""]","false","validation","","",""
"","","","","","html-keyboard-response","378","428303","0.0-19.0-2.1-0.3","0hkvchjl9j","","0hkvchjl9j","""2024-11-14T16:01:49.016Z""","null","+","null","","","","","","",""
"","","","","","image-keyboard-response","379","428993","0.0-19.0-2.1-1.3","0hkvchjl9j","","0hkvchjl9j","""2024-11-14T16:01:49.016Z""","687","materials/imgs/D20.png","arrowright","","[""materials/imgs/D84.png"",""materials/imgs/D85.png""]","false","validation","","",""
"","","","","","html-keyboard-response","380","429494","0.0-19.0-0.2-0.14","0hkvchjl9j","","0hkvchjl9j","""2024-11-14T16:01:49.016Z""","null","+","null","","","","","","",""
"","","","","","image-keyboard-response","381","430148","0.0-19.0-0.2-1.14","0hkvchjl9j","","0hkvchjl9j","""2024-11-14T16:01:49.016Z""","651","materials/imgs/D77.png","arrowleft","","[""materials/imgs/D81.png"",""materials/imgs/D64.png""]","false","random","","",""
"","","","","","html-keyboard-response","382","430649","0.0-19.0-0.2-0.15","0hkvchjl9j","","0hkvchjl9j","""2024-11-14T16:01:49.016Z""","null","+","null","","","","","","",""
"","","","","","image-keyboard-response","383","431304","0.0-19.0-0.2-1.15","0hkvchjl9j","","0hkvchjl9j","""2024-11-14T16:01:49.016Z""","653","materials/imgs/D26.png","arrowright","","[""materials/imgs/D11.png"",""materials/imgs/D94.png""]","false","random","","",""
"","","","","","html-keyboard-response","384","431805","0.0-19.0-0.2-0.16","0hkvchjl9j","","0hkvchjl9j","""2024-11-14T16:01:49.016Z""","null","+","null","","","","","","",""
"","","","","","image-keyboard-response","385","432407","0.0-19.0-0.2-1.16","0hkvchjl9j","","0hkvchjl9j","""2024-11-14T16:01:49.016Z""","601","materials/imgs/D34.png","arrowright","","[""materials/imgs/D75.png"",""materials/imgs/D78.png""]","false","random","","",""
"","","","","","html-keyboard-response","386","432908","0.0-19.0-0.2-0.17","0hkvchjl9j","","0hkvchjl9j","""2024-11-14T16:01:49.016Z""","null","+","null","","","","","","",""
"","","","","","image-keyboard-response","387","433611","0.0-19.0-0.2-1.17","0hkvchjl9j","","0hkvchjl9j","""2024-11-14T16:01:49.016Z""","701","materials/imgs/D51.png","arrowleft","","[""materials/imgs/D29.png"",""materials/imgs/D82.png""]","false","random","","",""
"","","","","","html-keyboard-response","388","434113","0.0-19.0-0.2-0.18","0hkvchjl9j","","0hkvchjl9j","""2024-11-14T16:01:49.016Z""","null","+","null","","","","","","",""
"","","","","","image-keyboard-response","389","434773","0.0-19.0-0.2-1.18","0hkvchjl9j","","0hkvchjl9j","""2024-11-14T16:01:49.016Z""","658","materials/imgs/D83.png","arrowright","","[""materials/imgs/D68.png"",""materials/imgs/D6.png""]","false","random","","",""
"","","","","","html-keyboard-response","390","435274","0.0-19.0-0.2-0.19","0hkvchjl9j","","0hkvchjl9j","""2024-11-14T16:01:49.016Z""","null","+","null","","","","","","",""
"","","","","","image-keyboard-response","391","435887","0.0-19.0-0.2-1.19","0hkvchjl9j","","0hkvchjl9j","""2024-11-14T16:01:49.016Z""","610","materials/imgs/D24.png","arrowleft","","[""materials/imgs/D11.png"",""materials/imgs/D8.png""]","false","random","","",""
"","","","","","html-keyboard-response","392","436388","0.0-19.0-0.2-0.20","0hkvchjl9j","","0hkvchjl9j","""2024-11-14T16:01:49.016Z""","null","+","null","","","","","","",""
"","","","","","image-keyboard-response","393","437093","0.0-19.0-0.2-1.20","0hkvchjl9j","","0hkvchjl9j","""2024-11-14T16:01:49.016Z""","703","materials/imgs/D103.png","arrowright","","[""materials/imgs/D36.png"",""materials/imgs/D21.png""]","false","random","","",""
"","","","","","html-keyboard-response","394","437594","0.0-19.0-1.2-0.2","0hkvchjl9j","","0hkvchjl9j","""2024-11-14T16:01:49.016Z""","null","+","null","","","","","","",""
"","","","","","image-keyboard-response","395","438774","0.0-19.0-1.2-1.2","0hkvchjl9j","","0hkvchjl9j","""2024-11-14T16:01:49.016Z""","1178","materials/imgs/D18.png","arrowright","","[""materials/imgs/D8.png"",""materials/imgs/D18.png""]","","check","materials/imgs/D18.png","1","true"
"","","","","","html-keyboard-response","396","439276","0.0-19.0-2.2-0.4","0hkvchjl9j","","0hkvchjl9j","""2024-11-14T16:01:49.016Z""","null","+","null","","","","","","",""
"","","","","","image-keyboard-response","397","439979","0.0-19.0-2.2-1.4","0hkvchjl9j","","0hkvchjl9j","""2024-11-14T16:01:49.016Z""","701","materials/imgs/D49.png","arrowleft","","[""materials/imgs/D8.png"",""materials/imgs/D101.png""]","false","validation","","",""
"","","","","","html-keyboard-response","398","440480","0.0-19.0-2.2-0.5","0hkvchjl9j","","0hkvchjl9j","""2024-11-14T16:01:49.016Z""","null","+","null","","","","","","",""
"","","","","","image-keyboard-response","399","441244","0.0-19.0-2.2-1.5","0hkvchjl9j","","0hkvchjl9j","""2024-11-14T16:01:49.016Z""","761","materials/imgs/D68.png","arrowleft","","[""materials/imgs/D96.png"",""materials/imgs/D48.png""]","false","validation","","",""
"","","","","","html-keyboard-response","400","441745","0.0-19.0-0.3-0.21","0hkvchjl9j","","0hkvchjl9j","""2024-11-14T16:01:49.016Z""","null","+","null","","","","","","",""
"","","","","","image-keyboard-response","401","442484","0.0-19.0-0.3-1.21","0hkvchjl9j","","0hkvchjl9j","""2024-11-14T16:01:49.016Z""","737","materials/imgs/D111.png","arrowright","","[""materials/imgs/D92.png"",""materials/imgs/D37.png""]","false","random","","",""
"","","","","","html-keyboard-response","402","442985","0.0-19.0-0.3-0.22","0hkvchjl9j","","0hkvchjl9j","""2024-11-14T16:01:49.016Z""","null","+","null","","","","","","",""
"","","","","","image-keyboard-response","403","443480","0.0-19.0-0.3-1.22","0hkvchjl9j","","0hkvchjl9j","""2024-11-14T16:01:49.016Z""","493","materials/imgs/D53.png","arrowright","","[""materials/imgs/D8.png"",""materials/imgs/D82.png""]","true","random","","",""
"","","","","","html-keyboard-response","404","444916","0.0-19.0-0.3-2.22-0.22","0hkvchjl9j","","0hkvchjl9j","""2024-11-14T16:01:49.016Z""","1435","<p><strong>You're going too fast.</strong><p>Please slow down and assess each triplet.<p>Press 'y' to continue.</p></p>","y","","","","","","",""
"","","","","","html-keyboard-response","405","445417","0.0-19.0-0.3-0.23","0hkvchjl9j","","0hkvchjl9j","""2024-11-14T16:01:49.016Z""","null","+","null","","","","","","",""
"","","","","","image-keyboard-response","406","446201","0.0-19.0-0.3-1.23","0hkvchjl9j","","0hkvchjl9j","""2024-11-14T16:01:49.016Z""","781","materials/imgs/D20.png","arrowright","","[""materials/imgs/D85.png"",""materials/imgs/D16.png""]","false","random","","",""
"","","","","","html-keyboard-response","407","446702","0.0-19.0-0.3-0.24","0hkvchjl9j","","0hkvchjl9j","""2024-11-14T16:01:49.016Z""","null","+","null","","","","","","",""
"","","","","","image-keyboard-response","408","447738","0.0-19.0-0.3-1.24","0hkvchjl9j","","0hkvchjl9j","""2024-11-14T16:01:49.016Z""","1033","materials/imgs/D105.png","arrowright","","[""materials/imgs/D94.png"",""materials/imgs/D29.png""]","false","random","","",""
"","","","","","html-keyboard-response","409","448239","0.0-19.0-0.3-0.25","0hkvchjl9j","","0hkvchjl9j","""2024-11-14T16:01:49.016Z""","null","+","null","","","","","","",""
"","","","","","image-keyboard-response","410","449467","0.0-19.0-0.3-1.25","0hkvchjl9j","","0hkvchjl9j","""2024-11-14T16:01:49.016Z""","1225","materials/imgs/D16.png","arrowright","","[""materials/imgs/D75.png"",""materials/imgs/D76.png""]","false","random","","",""
"","","","","","html-keyboard-response","411","449967","0.0-19.0-0.3-0.26","0hkvchjl9j","","0hkvchjl9j","""2024-11-14T16:01:49.016Z""","null","+","null","","","","","","",""
"","","","","","image-keyboard-response","412","451455","0.0-19.0-0.3-1.26","0hkvchjl9j","","0hkvchjl9j","""2024-11-14T16:01:49.016Z""","1486","materials/imgs/D11.png","arrowleft","","[""materials/imgs/D8.png"",""materials/imgs/D48.png""]","false","random","","",""
"","","","","","html-keyboard-response","413","451957","0.0-19.0-0.3-0.27","0hkvchjl9j","","0hkvchjl9j","""2024-11-14T16:01:49.016Z""","null","+","null","","","","","","",""
"","","","","","image-keyboard-response","414","453031","0.0-19.0-0.3-1.27","0hkvchjl9j","","0hkvchjl9j","""2024-11-14T16:01:49.016Z""","1072","materials/imgs/D37.png","arrowright","","[""materials/imgs/D49.png"",""materials/imgs/D84.png""]","false","random","","",""
"","","","","","html-keyboard-response","415","453532","0.0-19.0-1.3-0.3","0hkvchjl9j","","0hkvchjl9j","""2024-11-14T16:01:49.016Z""","null","+","null","","","","","","",""
"","","","","","image-keyboard-response","416","454231","0.0-19.0-1.3-1.3","0hkvchjl9j","","0hkvchjl9j","""2024-11-14T16:01:49.016Z""","697","materials/imgs/D76.png","arrowleft","","[""materials/imgs/D76.png"",""materials/imgs/D78.png""]","","check","materials/imgs/D76.png","0","true"
"","","","","","html-keyboard-response","417","454732","0.0-19.0-2.3-0.6","0hkvchjl9j","","0hkvchjl9j","""2024-11-14T16:01:49.016Z""","null","+","null","","","","","","",""
"","","","","","image-keyboard-response","418","456032","0.0-19.0-2.3-1.6","0hkvchjl9j","","0hkvchjl9j","""2024-11-14T16:01:49.016Z""","1290","materials/imgs/D4.png","arrowright","","[""materials/imgs/D52.png"",""materials/imgs/D83.png""]","false","validation","","",""
"","","","","","html-keyboard-response","419","456533","0.0-19.0-2.3-0.7","0hkvchjl9j","","0hkvchjl9j","""2024-11-14T16:01:49.016Z""","null","+","null","","","","","","",""
"","","","","","image-keyboard-response","420","457366","0.0-19.0-2.3-1.7","0hkvchjl9j","","0hkvchjl9j","""2024-11-14T16:01:49.016Z""","831","materials/imgs/D68.png","arrowright","","[""materials/imgs/D96.png"",""materials/imgs/D48.png""]","false","validation","","",""
"","","","","","html-keyboard-response","421","457867","0.0-19.0-0.4-0.28","0hkvchjl9j","","0hkvchjl9j","""2024-11-14T16:01:49.016Z""","null","+","null","","","","","","",""
"","","","","","image-keyboard-response","422","458753","0.0-19.0-0.4-1.28","0hkvchjl9j","","0hkvchjl9j","""2024-11-14T16:01:49.016Z""","883","materials/imgs/D82.png","arrowleft","","[""materials/imgs/D80.png"",""materials/imgs/D3.png""]","false","random","","",""
"","","","","","html-keyboard-response","423","459254","0.0-19.0-0.4-0.29","0hkvchjl9j","","0hkvchjl9j","""2024-11-14T16:01:49.016Z""","null","+","null","","","","","","",""
"","","","","","image-keyboard-response","424","459906","0.0-19.0-0.4-1.29","0hkvchjl9j","","0hkvchjl9j","""2024-11-14T16:01:49.016Z""","650","materials/imgs/D79.png","arrowleft","","[""materials/imgs/D6.png"",""materials/imgs/D101.png""]","false","random","","",""
"","","","","","html-keyboard-response","425","460407","0.0-19.0-0.4-0.30","0hkvchjl9j","","0hkvchjl9j","""2024-11-14T16:01:49.016Z""","null","+","null","","","","","","",""
"","","","","","image-keyboard-response","426","461307","0.0-19.0-0.4-1.30","0hkvchjl9j","","0hkvchjl9j","""2024-11-14T16:01:49.016Z""","897","materials/imgs/D17.png","arrowright","","[""materials/imgs/D56.png"",""materials/imgs/D34.png""]","false","random","","",""
"","","","","","html-keyboard-response","427","461808","0.0-19.0-0.4-0.31","0hkvchjl9j","","0hkvchjl9j","""2024-11-14T16:01:49.016Z""","null","+","null","","","","","","",""
"","","","","","image-keyboard-response","428","462532","0.0-19.0-0.4-1.31","0hkvchjl9j","","0hkvchjl9j","""2024-11-14T16:01:49.016Z""","722","materials/imgs/D37.png","arrowright","","[""materials/imgs/D1.png"",""materials/imgs/D94.png""]","false","random","","",""
"","","","","","html-keyboard-response","429","463033","0.0-19.0-0.4-0.32","0hkvchjl9j","","0hkvchjl9j","""2024-11-14T16:01:49.016Z""","null","+","null","","","","","","",""
"","","","","","image-keyboard-response","430","463941","0.0-19.0-0.4-1.32","0hkvchjl9j","","0hkvchjl9j","""2024-11-14T16:01:49.016Z""","906","materials/imgs/D35.png","arrowleft","","[""materials/imgs/D36.png"",""materials/imgs/D68.png""]","false","random","","",""
"","","","","","html-keyboard-response","431","464442","0.0-19.0-0.4-0.33","0hkvchjl9j","","0hkvchjl9j","""2024-11-14T16:01:49.016Z""","null","+","null","","","","","","",""
"","","","","","image-keyboard-response","432","465152","0.0-19.0-0.4-1.33","0hkvchjl9j","","0hkvchjl9j","""2024-11-14T16:01:49.016Z""","708","materials/imgs/D65.png","arrowright","","[""materials/imgs/D94.png"",""materials/imgs/D105.png""]","false","random","","",""
"","","","","","html-keyboard-response","433","465653","0.0-19.0-0.4-0.34","0hkvchjl9j","","0hkvchjl9j","""2024-11-14T16:01:49.016Z""","null","+","null","","","","","","",""
"","","","","","image-keyboard-response","434","466603","0.0-19.0-0.4-1.34","0hkvchjl9j","","0hkvchjl9j","""2024-11-14T16:01:49.016Z""","949","materials/imgs/D48.png","arrowright","","[""materials/imgs/D55.png"",""materials/imgs/D74.png""]","false","random","","",""
"","","","","","html-keyboard-response","435","467105","0.0-19.0-1.4-0.4","0hkvchjl9j","","0hkvchjl9j","""2024-11-14T16:01:49.016Z""","null","+","null","","","","","","",""
"","","","","","image-keyboard-response","436","467770","0.0-19.0-1.4-1.4","0hkvchjl9j","","0hkvchjl9j","""2024-11-14T16:01:49.016Z""","663","materials/imgs/D76.png","arrowleft","","[""materials/imgs/D76.png"",""materials/imgs/D78.png""]","","check","materials/imgs/D76.png","0","true"
"","","","","","html-keyboard-response","437","468271","0.0-19.0-2.4-0.8","0hkvchjl9j","","0hkvchjl9j","""2024-11-14T16:01:49.016Z""","null","+","null","","","","","","",""
"","","","","","image-keyboard-response","438","469574","0.0-19.0-2.4-1.8","0hkvchjl9j","","0hkvchjl9j","""2024-11-14T16:01:49.016Z""","1301","materials/imgs/D47.png","arrowleft","","[""materials/imgs/D1.png"",""materials/imgs/D52.png""]","false","validation","","",""
