"success","timeout","failed_images","failed_audio","failed_video","trial_type","trial_index","time_elapsed","internal_node_id","subject_id","sona_id","subjectID","dateInfo","rt","stimulus","response","question_order","choices","speedy","sampleAlg","selected_image","selected_index","correct"
"true","false","[]","[]","[]","preload","0","1327","0.0-0.0","0p5xc0ucea","","0p5xc0ucea","""2024-11-12T18:09:57.668Z""","","","","","","","","","",""
"true","","","","","fullscreen","1","4154","0.0-1.0","0p5xc0ucea","","0p5xc0ucea","""2024-11-12T18:09:57.668Z""","","","","","","","","","",""
"","","","","","html-keyboard-response","2","4166","0.0-2.0","0p5xc0ucea","","0p5xc0ucea","""2024-11-12T18:09:57.668Z""","null","","null","","","","","","",""
"","","","","","html-button-response","3","8707","0.0-3.0","0p5xc0ucea","","0p5xc0ucea","""2024-11-12T18:09:57.668Z""","4539","<div style='text-align:center; font-size:20px; line-height:25px; width: 1200px;'>
                Welcome to our experiment! <br>
                <br>At the bottom of this screen, you will see a button that says 'Begin Experiment.
                <br>Please only click that button when you are ready to complete the 25 minute experiment in one sitting. <br>
                <br> Once you click that button, it will not be possible to restart the experiment. <br><br>","0","","","","","","",""
"true","","","","","fullscreen","4","11041","0.0-4.0","0p5xc0ucea","","0p5xc0ucea","""2024-11-12T18:09:57.668Z""","","","","","","","","","",""
"","","","","","survey-multi-select","5","53590","0.0-5.0","0p5xc0ucea","","0p5xc0ucea","""2024-11-12T18:09:57.668Z""","42543","","{""Consent"":[""<strong>I consent</strong>""]}","[0]","","","","","",""
"","","","","","html-button-response","6","56491","0.0-6.0","0p5xc0ucea","","0p5xc0ucea","""2024-11-12T18:09:57.668Z""","2899","Welcome! <p> This experiment involves two parts: demographic information, followed by the experimental task.<p> It will take about 25 minutes to complete both parts.","0","","","","","","",""
"","","","","","survey-text","7","67103","0.0-7.0","0p5xc0ucea","","0p5xc0ucea","""2024-11-12T18:09:57.668Z""","10609","","{""Age"":""18"",""Gender"":""Female"",""Race/ethnicity"":""WHITE""}","","","","","","",""
"","","","","","html-button-response","8","88087","0.0-8.0","0p5xc0ucea","","0p5xc0ucea","""2024-11-12T18:09:57.668Z""","20983","<div style='text-align: center;'>
      <p>In each trial of this task, you will see three texture images: one target item on top, and two choices beneath the target item.</p>
      <p><strong>Please select the item that is most like the target item.</strong></p>
      <p>To select the option on the <strong>LEFT</strong>, press the <strong>LEFT ARROW</strong> key. 
      To select the option on the <strong>RIGHT</strong>, press the <strong>RIGHT ARROW</strong> key.</p>
                  <!-- Target Image at the Top -->
      <div style='margin: 20px;'>
        <img src='materials/imgs/instruction_images/InstructionImg1D78.png' alt='Target Image' style='width:200px; height:auto;' />
        <p><em>Target Image</em></p>
      </div>

      <!-- Two Choice Images Below -->
      <div style='display: flex; justify-content: center;'>
        <div style='margin-right: 50px;'>
          <img src='materials/imgs/instruction_images/InstructionImg2D34.png' alt='Choice Image 1' style='width:150px; height:auto;' />
          <p><em><strong>LEFT ARROW</strong></em></p>
        </div>
        <div style='margin-left: 50px;'>
          <img src='materials/imgs/instruction_images/InstructionImg3D80.png' alt='Choice Image 2' style='width:150px; height:auto;' />
          <p><em><strong>RIGHT ARROW</strong></em></p>
        </div>
      </div>
    </div>

      <p>When you are ready to proceed, please click 'Continue' to begin practice.</p>","0","","","","","","",""
"","","","","","html-keyboard-response","9","90591","0.0-9.0","0p5xc0ucea","","0p5xc0ucea","""2024-11-12T18:09:57.668Z""","null","+","null","","","","","","",""
"","","","","","html-keyboard-response","10","91093","0.0-10.0-0.0-0.0","0p5xc0ucea","","0p5xc0ucea","""2024-11-12T18:09:57.668Z""","null","+","null","","","","","","",""
"","","","","","image-keyboard-response","11","93391","0.0-10.0-0.0-1.0","0p5xc0ucea","","0p5xc0ucea","""2024-11-12T18:09:57.668Z""","2290","materials/imgs/D105.png","arrowright","","[""materials/imgs/D101.png"",""materials/imgs/D21.png""]","false","random","","",""
"","","","","","html-keyboard-response","12","93894","0.0-10.0-0.0-0.1","0p5xc0ucea","","0p5xc0ucea","""2024-11-12T18:09:57.668Z""","null","+","null","","","","","","",""
"","","","","","image-keyboard-response","13","99772","0.0-10.0-0.0-1.1","0p5xc0ucea","","0p5xc0ucea","""2024-11-12T18:09:57.668Z""","5875","materials/imgs/D103.png","arrowleft","","[""materials/imgs/D82.png"",""materials/imgs/D102.png""]","false","random","","",""
"","","","","","html-keyboard-response","14","100274","0.0-10.0-0.0-0.2","0p5xc0ucea","","0p5xc0ucea","""2024-11-12T18:09:57.668Z""","null","+","null","","","","","","",""
"","","","","","image-keyboard-response","15","102311","0.0-10.0-0.0-1.2","0p5xc0ucea","","0p5xc0ucea","""2024-11-12T18:09:57.668Z""","2035","materials/imgs/D51.png","arrowleft","","[""materials/imgs/D14.png"",""materials/imgs/D57.png""]","false","random","","",""
"","","","","","html-keyboard-response","16","102812","0.0-10.0-0.0-0.3","0p5xc0ucea","","0p5xc0ucea","""2024-11-12T18:09:57.668Z""","null","+","null","","","","","","",""
"","","","","","image-keyboard-response","17","104305","0.0-10.0-0.0-1.3","0p5xc0ucea","","0p5xc0ucea","""2024-11-12T18:09:57.668Z""","1490","materials/imgs/D96.png","arrowleft","","[""materials/imgs/D94.png"",""materials/imgs/D87.png""]","false","random","","",""
"","","","","","html-keyboard-response","18","104807","0.0-10.0-0.0-0.4","0p5xc0ucea","","0p5xc0ucea","""2024-11-12T18:09:57.668Z""","null","+","null","","","","","","",""
"","","","","","image-keyboard-response","19","106363","0.0-10.0-0.0-1.4","0p5xc0ucea","","0p5xc0ucea","""2024-11-12T18:09:57.668Z""","1554","materials/imgs/D55.png","arrowright","","[""materials/imgs/D92.png"",""materials/imgs/D14.png""]","false","random","","",""
"","","","","","html-keyboard-response","20","106864","0.0-10.0-0.0-0.5","0p5xc0ucea","","0p5xc0ucea","""2024-11-12T18:09:57.668Z""","null","+","null","","","","","","",""
"","","","","","image-keyboard-response","21","111072","0.0-10.0-0.0-1.5","0p5xc0ucea","","0p5xc0ucea","""2024-11-12T18:09:57.668Z""","4206","materials/imgs/D22.png","arrowleft","","[""materials/imgs/D84.png"",""materials/imgs/D81.png""]","false","random","","",""
"","","","","","html-keyboard-response","22","111574","0.0-10.0-0.0-0.6","0p5xc0ucea","","0p5xc0ucea","""2024-11-12T18:09:57.668Z""","null","+","null","","","","","","",""
"","","","","","image-keyboard-response","23","113088","0.0-10.0-0.0-1.6","0p5xc0ucea","","0p5xc0ucea","""2024-11-12T18:09:57.668Z""","1512","materials/imgs/D25.png","arrowleft","","[""materials/imgs/D94.png"",""materials/imgs/D49.png""]","false","random","","",""
"","","","","","html-keyboard-response","24","113590","0.0-10.0-0.0-0.7","0p5xc0ucea","","0p5xc0ucea","""2024-11-12T18:09:57.668Z""","null","+","null","","","","","","",""
"","","","","","image-keyboard-response","25","115272","0.0-10.0-0.0-1.7","0p5xc0ucea","","0p5xc0ucea","""2024-11-12T18:09:57.668Z""","1680","materials/imgs/D21.png","arrowleft","","[""materials/imgs/D49.png"",""materials/imgs/D64.png""]","false","random","","",""
"","","","","","html-keyboard-response","26","115773","0.0-10.0-0.0-0.8","0p5xc0ucea","","0p5xc0ucea","""2024-11-12T18:09:57.668Z""","null","+","null","","","","","","",""
"","","","","","image-keyboard-response","27","118984","0.0-10.0-0.0-1.8","0p5xc0ucea","","0p5xc0ucea","""2024-11-12T18:09:57.668Z""","3208","materials/imgs/D81.png","arrowright","","[""materials/imgs/D75.png"",""materials/imgs/D22.png""]","false","random","","",""
"","","","","","html-keyboard-response","28","119485","0.0-10.0-0.0-0.9","0p5xc0ucea","","0p5xc0ucea","""2024-11-12T18:09:57.668Z""","null","+","null","","","","","","",""
"","","","","","image-keyboard-response","29","121473","0.0-10.0-0.0-1.9","0p5xc0ucea","","0p5xc0ucea","""2024-11-12T18:09:57.668Z""","1985","materials/imgs/D65.png","arrowleft","","[""materials/imgs/D87.png"",""materials/imgs/D48.png""]","false","random","","",""
"","","","","","html-button-response","30","156532","0.0-11.0","0p5xc0ucea","","0p5xc0ucea","""2024-11-12T18:09:57.668Z""","35057","<p>Great job!</p>
      <p>You are now ready to begin the experiment.</p>
      <p>There will be around 200 trials. You will have opportunities to take breaks at three stages of the trials.</p>
      <p>When you are ready to begin please click 'Continue'.</p>","0","","","","","","",""
"","","","","","html-keyboard-response","31","159037","0.0-12.0","0p5xc0ucea","","0p5xc0ucea","""2024-11-12T18:09:57.668Z""","null","+","null","","","","","","",""
"","","","","","html-keyboard-response","32","159539","0.0-13.0-0.0-0.0","0p5xc0ucea","","0p5xc0ucea","""2024-11-12T18:09:57.668Z""","null","+","null","","","","","","",""
"","","","","","image-keyboard-response","33","163723","0.0-13.0-0.0-1.0","0p5xc0ucea","","0p5xc0ucea","""2024-11-12T18:09:57.668Z""","4181","materials/imgs/D87.png","arrowleft","","[""materials/imgs/D51.png"",""materials/imgs/D19.png""]","false","random","","",""
"","","","","","html-keyboard-response","34","164228","0.0-13.0-0.0-0.1","0p5xc0ucea","","0p5xc0ucea","""2024-11-12T18:09:57.668Z""","null","+","null","","","","","","",""
"","","","","","image-keyboard-response","35","169210","0.0-13.0-0.0-1.1","0p5xc0ucea","","0p5xc0ucea","""2024-11-12T18:09:57.668Z""","4980","materials/imgs/D96.png","arrowleft","","[""materials/imgs/D49.png"",""materials/imgs/D52.png""]","false","random","","",""
"","","","","","html-keyboard-response","36","169711","0.0-13.0-0.0-0.2","0p5xc0ucea","","0p5xc0ucea","""2024-11-12T18:09:57.668Z""","null","+","null","","","","","","",""
"","","","","","image-keyboard-response","37","171070","0.0-13.0-0.0-1.2","0p5xc0ucea","","0p5xc0ucea","""2024-11-12T18:09:57.668Z""","1357","materials/imgs/D16.png","arrowright","","[""materials/imgs/D95.png"",""materials/imgs/D106.png""]","false","random","","",""
"","","","","","html-keyboard-response","38","171571","0.0-13.0-0.0-0.3","0p5xc0ucea","","0p5xc0ucea","""2024-11-12T18:09:57.668Z""","null","+","null","","","","","","",""
"","","","","","image-keyboard-response","39","174348","0.0-13.0-0.0-1.3","0p5xc0ucea","","0p5xc0ucea","""2024-11-12T18:09:57.668Z""","2774","materials/imgs/D75.png","arrowleft","","[""materials/imgs/D68.png"",""materials/imgs/D78.png""]","false","random","","",""
"","","","","","html-keyboard-response","40","174849","0.0-13.0-0.0-0.4","0p5xc0ucea","","0p5xc0ucea","""2024-11-12T18:09:57.668Z""","null","+","null","","","","","","",""
"","","","","","image-keyboard-response","41","182376","0.0-13.0-0.0-1.4","0p5xc0ucea","","0p5xc0ucea","""2024-11-12T18:09:57.668Z""","7525","materials/imgs/D37.png","arrowright","","[""materials/imgs/D65.png"",""materials/imgs/D66.png""]","false","random","","",""
"","","","","","html-keyboard-response","42","182878","0.0-13.0-0.0-0.5","0p5xc0ucea","","0p5xc0ucea","""2024-11-12T18:09:57.668Z""","null","+","null","","","","","","",""
"","","","","","image-keyboard-response","43","184065","0.0-13.0-0.0-1.5","0p5xc0ucea","","0p5xc0ucea","""2024-11-12T18:09:57.668Z""","1185","materials/imgs/D9.png","arrowleft","","[""materials/imgs/D79.png"",""materials/imgs/D74.png""]","false","random","","",""
"","","","","","html-keyboard-response","44","184566","0.0-13.0-0.0-0.6","0p5xc0ucea","","0p5xc0ucea","""2024-11-12T18:09:57.668Z""","null","+","null","","","","","","",""
"","","","","","image-keyboard-response","45","185542","0.0-13.0-0.0-1.6","0p5xc0ucea","","0p5xc0ucea","""2024-11-12T18:09:57.668Z""","974","materials/imgs/D84.png","arrowright","","[""materials/imgs/D3.png"",""materials/imgs/D80.png""]","false","random","","",""
"","","","","","html-keyboard-response","46","186043","0.0-13.0-1.0-0.0","0p5xc0ucea","","0p5xc0ucea","""2024-11-12T18:09:57.668Z""","null","+","null","","","","","","",""
"","","","","","image-keyboard-response","47","186698","0.0-13.0-1.0-1.0","0p5xc0ucea","","0p5xc0ucea","""2024-11-12T18:09:57.668Z""","652","materials/imgs/D76.png","arrowleft","","[""materials/imgs/D76.png"",""materials/imgs/D78.png""]","","check","materials/imgs/D76.png","0","true"
"","","","","","html-keyboard-response","48","187200","0.0-13.0-2.0-0.0","0p5xc0ucea","","0p5xc0ucea","""2024-11-12T18:09:57.668Z""","null","+","null","","","","","","",""
"","","","","","image-keyboard-response","49","188638","0.0-13.0-2.0-1.0","0p5xc0ucea","","0p5xc0ucea","""2024-11-12T18:09:57.668Z""","1436","materials/imgs/D3.png","arrowleft","","[""materials/imgs/D79.png"",""materials/imgs/D48.png""]","false","validation","","",""
"","","","","","html-keyboard-response","50","189141","0.0-13.0-2.0-0.1","0p5xc0ucea","","0p5xc0ucea","""2024-11-12T18:09:57.668Z""","null","+","null","","","","","","",""
"","","","","","image-keyboard-response","51","191836","0.0-13.0-2.0-1.1","0p5xc0ucea","","0p5xc0ucea","""2024-11-12T18:09:57.668Z""","2694","materials/imgs/D49.png","arrowright","","[""materials/imgs/D8.png"",""materials/imgs/D101.png""]","false","validation","","",""
"","","","","","html-keyboard-response","52","192338","0.0-13.0-0.1-0.7","0p5xc0ucea","","0p5xc0ucea","""2024-11-12T18:09:57.668Z""","null","+","null","","","","","","",""
"","","","","","image-keyboard-response","53","194241","0.0-13.0-0.1-1.7","0p5xc0ucea","","0p5xc0ucea","""2024-11-12T18:09:57.668Z""","1900","materials/imgs/D78.png","arrowright","","[""materials/imgs/D35.png"",""materials/imgs/D83.png""]","false","random","","",""
"","","","","","html-keyboard-response","54","194742","0.0-13.0-0.1-0.8","0p5xc0ucea","","0p5xc0ucea","""2024-11-12T18:09:57.668Z""","null","+","null","","","","","","",""
"","","","","","image-keyboard-response","55","195894","0.0-13.0-0.1-1.8","0p5xc0ucea","","0p5xc0ucea","""2024-11-12T18:09:57.668Z""","1149","materials/imgs/D3.png","arrowleft","","[""materials/imgs/D52.png"",""materials/imgs/D18.png""]","false","random","","",""
"","","","","","html-keyboard-response","56","196395","0.0-13.0-0.1-0.9","0p5xc0ucea","","0p5xc0ucea","""2024-11-12T18:09:57.668Z""","null","+","null","","","","","","",""
"","","","","","image-keyboard-response","57","197536","0.0-13.0-0.1-1.9","0p5xc0ucea","","0p5xc0ucea","""2024-11-12T18:09:57.668Z""","1138","materials/imgs/D75.png","arrowleft","","[""materials/imgs/D6.png"",""materials/imgs/D84.png""]","false","random","","",""
"","","","","","html-keyboard-response","58","198037","0.0-13.0-0.1-0.10","0p5xc0ucea","","0p5xc0ucea","""2024-11-12T18:09:57.668Z""","null","+","null","","","","","","",""
"","","","","","image-keyboard-response","59","200799","0.0-13.0-0.1-1.10","0p5xc0ucea","","0p5xc0ucea","""2024-11-12T18:09:57.668Z""","2760","materials/imgs/D14.png","arrowright","","[""materials/imgs/D75.png"",""materials/imgs/D35.png""]","false","random","","",""
"","","","","","html-keyboard-response","60","201300","0.0-13.0-0.1-0.11","0p5xc0ucea","","0p5xc0ucea","""2024-11-12T18:09:57.668Z""","null","+","null","","","","","","",""
"","","","","","image-keyboard-response","61","202465","0.0-13.0-0.1-1.11","0p5xc0ucea","","0p5xc0ucea","""2024-11-12T18:09:57.668Z""","1162","materials/imgs/D1.png","arrowright","","[""materials/imgs/D18.png"",""materials/imgs/D78.png""]","false","random","","",""
"","","","","","html-keyboard-response","62","202966","0.0-13.0-0.1-0.12","0p5xc0ucea","","0p5xc0ucea","""2024-11-12T18:09:57.668Z""","null","+","null","","","","","","",""
"","","","","","image-keyboard-response","63","204308","0.0-13.0-0.1-1.12","0p5xc0ucea","","0p5xc0ucea","""2024-11-12T18:09:57.668Z""","1340","materials/imgs/D64.png","arrowright","","[""materials/imgs/D55.png"",""materials/imgs/D47.png""]","false","random","","",""
"","","","","","html-keyboard-response","64","204810","0.0-13.0-0.1-0.13","0p5xc0ucea","","0p5xc0ucea","""2024-11-12T18:09:57.668Z""","null","+","null","","","","","","",""
"","","","","","image-keyboard-response","65","206150","0.0-13.0-0.1-1.13","0p5xc0ucea","","0p5xc0ucea","""2024-11-12T18:09:57.668Z""","1338","materials/imgs/D82.png","arrowleft","","[""materials/imgs/D21.png"",""materials/imgs/D37.png""]","false","random","","",""
"","","","","","html-keyboard-response","66","206651","0.0-13.0-1.1-0.1","0p5xc0ucea","","0p5xc0ucea","""2024-11-12T18:09:57.668Z""","null","+","null","","","","","","",""
"","","","","","image-keyboard-response","67","207304","0.0-13.0-1.1-1.1","0p5xc0ucea","","0p5xc0ucea","""2024-11-12T18:09:57.668Z""","651","materials/imgs/D64.png","arrowleft","","[""materials/imgs/D64.png"",""materials/imgs/D53.png""]","","check","materials/imgs/D64.png","0","true"
"","","","","","html-keyboard-response","68","207806","0.0-13.0-2.1-0.2","0p5xc0ucea","","0p5xc0ucea","""2024-11-12T18:09:57.668Z""","null","+","null","","","","","","",""
"","","","","","image-keyboard-response","69","209179","0.0-13.0-2.1-1.2","0p5xc0ucea","","0p5xc0ucea","""2024-11-12T18:09:57.668Z""","1371","materials/imgs/D36.png","arrowright","","[""materials/imgs/D47.png"",""materials/imgs/D49.png""]","false","validation","","",""
"","","","","","html-keyboard-response","70","209680","0.0-13.0-2.1-0.3","0p5xc0ucea","","0p5xc0ucea","""2024-11-12T18:09:57.668Z""","null","+","null","","","","","","",""
"","","","","","image-keyboard-response","71","212127","0.0-13.0-2.1-1.3","0p5xc0ucea","","0p5xc0ucea","""2024-11-12T18:09:57.668Z""","2445","materials/imgs/D95.png","arrowright","","[""materials/imgs/D36.png"",""materials/imgs/D4.png""]","false","validation","","",""
"","","","","","html-keyboard-response","72","212628","0.0-13.0-0.2-0.14","0p5xc0ucea","","0p5xc0ucea","""2024-11-12T18:09:57.668Z""","null","+","null","","","","","","",""
"","","","","","image-keyboard-response","73","213548","0.0-13.0-0.2-1.14","0p5xc0ucea","","0p5xc0ucea","""2024-11-12T18:09:57.668Z""","918","materials/imgs/D48.png","arrowleft","","[""materials/imgs/D46.png"",""materials/imgs/D106.png""]","false","random","","",""
"","","","","","html-keyboard-response","74","214050","0.0-13.0-0.2-0.15","0p5xc0ucea","","0p5xc0ucea","""2024-11-12T18:09:57.668Z""","null","+","null","","","","","","",""
"","","","","","image-keyboard-response","75","214768","0.0-13.0-0.2-1.15","0p5xc0ucea","","0p5xc0ucea","""2024-11-12T18:09:57.668Z""","716","materials/imgs/D46.png","arrowright","","[""materials/imgs/D3.png"",""materials/imgs/D18.png""]","false","random","","",""
"","","","","","html-keyboard-response","76","215270","0.0-13.0-0.2-0.16","0p5xc0ucea","","0p5xc0ucea","""2024-11-12T18:09:57.668Z""","null","+","null","","","","","","",""
"","","","","","image-keyboard-response","77","216218","0.0-13.0-0.2-1.16","0p5xc0ucea","","0p5xc0ucea","""2024-11-12T18:09:57.668Z""","946","materials/imgs/D49.png","arrowleft","","[""materials/imgs/D52.png"",""materials/imgs/D75.png""]","false","random","","",""
"","","","","","html-keyboard-response","78","216719","0.0-13.0-0.2-0.17","0p5xc0ucea","","0p5xc0ucea","""2024-11-12T18:09:57.668Z""","null","+","null","","","","","","",""
"","","","","","image-keyboard-response","79","218725","0.0-13.0-0.2-1.17","0p5xc0ucea","","0p5xc0ucea","""2024-11-12T18:09:57.668Z""","2003","materials/imgs/D19.png","arrowleft","","[""materials/imgs/D96.png"",""materials/imgs/D35.png""]","false","random","","",""
"","","","","","html-keyboard-response","80","219225","0.0-13.0-0.2-0.18","0p5xc0ucea","","0p5xc0ucea","""2024-11-12T18:09:57.668Z""","null","+","null","","","","","","",""
"","","","","","image-keyboard-response","81","221264","0.0-13.0-0.2-1.18","0p5xc0ucea","","0p5xc0ucea","""2024-11-12T18:09:57.668Z""","2037","materials/imgs/D87.png","arrowright","","[""materials/imgs/D9.png"",""materials/imgs/D29.png""]","false","random","","",""
"","","","","","html-keyboard-response","82","221766","0.0-13.0-0.2-0.19","0p5xc0ucea","","0p5xc0ucea","""2024-11-12T18:09:57.668Z""","null","+","null","","","","","","",""
"","","","","","image-keyboard-response","83","223674","0.0-13.0-0.2-1.19","0p5xc0ucea","","0p5xc0ucea","""2024-11-12T18:09:57.668Z""","1906","materials/imgs/D105.png","arrowright","","[""materials/imgs/D74.png"",""materials/imgs/D56.png""]","false","random","","",""
"","","","","","html-keyboard-response","84","224175","0.0-13.0-0.2-0.20","0p5xc0ucea","","0p5xc0ucea","""2024-11-12T18:09:57.668Z""","null","+","null","","","","","","",""
"","","","","","image-keyboard-response","85","225227","0.0-13.0-0.2-1.20","0p5xc0ucea","","0p5xc0ucea","""2024-11-12T18:09:57.668Z""","1050","materials/imgs/D36.png","arrowleft","","[""materials/imgs/D111.png"",""materials/imgs/D49.png""]","false","random","","",""
"","","","","","html-keyboard-response","86","225728","0.0-13.0-1.2-0.2","0p5xc0ucea","","0p5xc0ucea","""2024-11-12T18:09:57.668Z""","null","+","null","","","","","","",""
"","","","","","image-keyboard-response","87","226376","0.0-13.0-1.2-1.2","0p5xc0ucea","","0p5xc0ucea","""2024-11-12T18:09:57.668Z""","646","materials/imgs/D53.png","arrowright","","[""materials/imgs/D64.png"",""materials/imgs/D53.png""]","","check","materials/imgs/D53.png","1","true"
"","","","","","html-keyboard-response","88","226878","0.0-13.0-2.2-0.4","0p5xc0ucea","","0p5xc0ucea","""2024-11-12T18:09:57.668Z""","null","+","null","","","","","","",""
"","","","","","image-keyboard-response","89","228009","0.0-13.0-2.2-1.4","0p5xc0ucea","","0p5xc0ucea","""2024-11-12T18:09:57.668Z""","1129","materials/imgs/D37.png","arrowright","","[""materials/imgs/D84.png"",""materials/imgs/D111.png""]","false","validation","","",""
"","","","","","html-keyboard-response","90","228510","0.0-13.0-2.2-0.5","0p5xc0ucea","","0p5xc0ucea","""2024-11-12T18:09:57.668Z""","null","+","null","","","","","","",""
"","","","","","image-keyboard-response","91","230754","0.0-13.0-2.2-1.5","0p5xc0ucea","","0p5xc0ucea","""2024-11-12T18:09:57.668Z""","2242","materials/imgs/D85.png","arrowleft","","[""materials/imgs/D6.png"",""materials/imgs/D111.png""]","false","validation","","",""
"","","","","","html-keyboard-response","92","231255","0.0-13.0-0.3-0.21","0p5xc0ucea","","0p5xc0ucea","""2024-11-12T18:09:57.668Z""","null","+","null","","","","","","",""
"","","","","","image-keyboard-response","93","234206","0.0-13.0-0.3-1.21","0p5xc0ucea","","0p5xc0ucea","""2024-11-12T18:09:57.668Z""","2949","materials/imgs/D21.png","arrowleft","","[""materials/imgs/D4.png"",""materials/imgs/D34.png""]","false","random","","",""
"","","","","","html-keyboard-response","94","234708","0.0-13.0-0.3-0.22","0p5xc0ucea","","0p5xc0ucea","""2024-11-12T18:09:57.668Z""","null","+","null","","","","","","",""
"","","","","","image-keyboard-response","95","235720","0.0-13.0-0.3-1.22","0p5xc0ucea","","0p5xc0ucea","""2024-11-12T18:09:57.668Z""","1010","materials/imgs/D34.png","arrowright","","[""materials/imgs/D11.png"",""materials/imgs/D6.png""]","false","random","","",""
"","","","","","html-keyboard-response","96","236221","0.0-13.0-0.3-0.23","0p5xc0ucea","","0p5xc0ucea","""2024-11-12T18:09:57.668Z""","null","+","null","","","","","","",""
"","","","","","image-keyboard-response","97","236949","0.0-13.0-0.3-1.23","0p5xc0ucea","","0p5xc0ucea","""2024-11-12T18:09:57.668Z""","726","materials/imgs/D3.png","arrowright","","[""materials/imgs/D19.png"",""materials/imgs/D22.png""]","false","random","","",""
"","","","","","html-keyboard-response","98","237451","0.0-13.0-0.3-0.24","0p5xc0ucea","","0p5xc0ucea","""2024-11-12T18:09:57.668Z""","null","+","null","","","","","","",""
"","","","","","image-keyboard-response","99","239086","0.0-13.0-0.3-1.24","0p5xc0ucea","","0p5xc0ucea","""2024-11-12T18:09:57.668Z""","1633","materials/imgs/D81.png","arrowleft","","[""materials/imgs/D47.png"",""materials/imgs/D64.png""]","false","random","","",""
"","","","","","html-keyboard-response","100","239587","0.0-13.0-0.3-0.25","0p5xc0ucea","","0p5xc0ucea","""2024-11-12T18:09:57.668Z""","null","+","null","","","","","","",""
"","","","","","image-keyboard-response","101","240657","0.0-13.0-0.3-1.25","0p5xc0ucea","","0p5xc0ucea","""2024-11-12T18:09:57.668Z""","1068","materials/imgs/D95.png","arrowleft","","[""materials/imgs/D80.png"",""materials/imgs/D87.png""]","false","random","","",""
"","","","","","html-keyboard-response","102","241158","0.0-13.0-0.3-0.26","0p5xc0ucea","","0p5xc0ucea","""2024-11-12T18:09:57.668Z""","null","+","null","","","","","","",""
"","","","","","image-keyboard-response","103","242244","0.0-13.0-0.3-1.26","0p5xc0ucea","","0p5xc0ucea","""2024-11-12T18:09:57.668Z""","1085","materials/imgs/D106.png","arrowleft","","[""materials/imgs/D55.png"",""materials/imgs/D25.png""]","false","random","","",""
"","","","","","html-keyboard-response","104","242746","0.0-13.0-0.3-0.27","0p5xc0ucea","","0p5xc0ucea","""2024-11-12T18:09:57.668Z""","null","+","null","","","","","","",""
"","","","","","image-keyboard-response","105","244294","0.0-13.0-0.3-1.27","0p5xc0ucea","","0p5xc0ucea","""2024-11-12T18:09:57.668Z""","1546","materials/imgs/D17.png","arrowright","","[""materials/imgs/D75.png"",""materials/imgs/D96.png""]","false","random","","",""
"","","","","","html-keyboard-response","106","244796","0.0-13.0-1.3-0.3","0p5xc0ucea","","0p5xc0ucea","""2024-11-12T18:09:57.668Z""","null","+","null","","","","","","",""
"","","","","","image-keyboard-response","107","245452","0.0-13.0-1.3-1.3","0p5xc0ucea","","0p5xc0ucea","""2024-11-12T18:09:57.668Z""","653","materials/imgs/D78.png","arrowright","","[""materials/imgs/D76.png"",""materials/imgs/D78.png""]","","check","materials/imgs/D78.png","1","true"
"","","","","","html-keyboard-response","108","245954","0.0-13.0-2.3-0.6","0p5xc0ucea","","0p5xc0ucea","""2024-11-12T18:09:57.668Z""","null","+","null","","","","","","",""
"","","","","","image-keyboard-response","109","247118","0.0-13.0-2.3-1.6","0p5xc0ucea","","0p5xc0ucea","""2024-11-12T18:09:57.668Z""","1161","materials/imgs/D84.png","arrowright","","[""materials/imgs/D106.png"",""materials/imgs/D37.png""]","false","validation","","",""
"","","","","","html-keyboard-response","110","247619","0.0-13.0-2.3-0.7","0p5xc0ucea","","0p5xc0ucea","""2024-11-12T18:09:57.668Z""","null","+","null","","","","","","",""
"","","","","","image-keyboard-response","111","248681","0.0-13.0-2.3-1.7","0p5xc0ucea","","0p5xc0ucea","""2024-11-12T18:09:57.668Z""","1059","materials/imgs/D25.png","arrowleft","","[""materials/imgs/D103.png"",""materials/imgs/D64.png""]","false","validation","","",""
"","","","","","html-keyboard-response","112","249190","0.0-13.0-0.4-0.28","0p5xc0ucea","","0p5xc0ucea","""2024-11-12T18:09:57.668Z""","null","+","null","","","","","","",""
"","","","","","image-keyboard-response","113","250389","0.0-13.0-0.4-1.28","0p5xc0ucea","","0p5xc0ucea","""2024-11-12T18:09:57.668Z""","1197","materials/imgs/D32.png","arrowright","","[""materials/imgs/D101.png"",""materials/imgs/D37.png""]","false","random","","",""
"","","","","","html-keyboard-response","114","250890","0.0-13.0-0.4-0.29","0p5xc0ucea","","0p5xc0ucea","""2024-11-12T18:09:57.668Z""","null","+","null","","","","","","",""
"","","","","","image-keyboard-response","115","251562","0.0-13.0-0.4-1.29","0p5xc0ucea","","0p5xc0ucea","""2024-11-12T18:09:57.668Z""","670","materials/imgs/D82.png","arrowright","","[""materials/imgs/D21.png"",""materials/imgs/D20.png""]","false","random","","",""
"","","","","","html-keyboard-response","116","252064","0.0-13.0-0.4-0.30","0p5xc0ucea","","0p5xc0ucea","""2024-11-12T18:09:57.668Z""","null","+","null","","","","","","",""
"","","","","","image-keyboard-response","117","253946","0.0-13.0-0.4-1.30","0p5xc0ucea","","0p5xc0ucea","""2024-11-12T18:09:57.668Z""","1880","materials/imgs/D74.png","arrowleft","","[""materials/imgs/D102.png"",""materials/imgs/D25.png""]","false","random","","",""
"","","","","","html-keyboard-response","118","254447","0.0-13.0-0.4-0.31","0p5xc0ucea","","0p5xc0ucea","""2024-11-12T18:09:57.668Z""","null","+","null","","","","","","",""
"","","","","","image-keyboard-response","119","256084","0.0-13.0-0.4-1.31","0p5xc0ucea","","0p5xc0ucea","""2024-11-12T18:09:57.668Z""","1635","materials/imgs/D51.png","arrowright","","[""materials/imgs/D24.png"",""materials/imgs/D37.png""]","false","random","","",""
"","","","","","html-keyboard-response","120","256585","0.0-13.0-0.4-0.32","0p5xc0ucea","","0p5xc0ucea","""2024-11-12T18:09:57.668Z""","null","+","null","","","","","","",""
"","","","","","image-keyboard-response","121","259744","0.0-13.0-0.4-1.32","0p5xc0ucea","","0p5xc0ucea","""2024-11-12T18:09:57.668Z""","3157","materials/imgs/D96.png","arrowright","","[""materials/imgs/D53.png"",""materials/imgs/D16.png""]","false","random","","",""
"","","","","","html-keyboard-response","122","260246","0.0-13.0-0.4-0.33","0p5xc0ucea","","0p5xc0ucea","""2024-11-12T18:09:57.668Z""","null","+","null","","","","","","",""
"","","","","","image-keyboard-response","123","261788","0.0-13.0-0.4-1.33","0p5xc0ucea","","0p5xc0ucea","""2024-11-12T18:09:57.668Z""","1539","materials/imgs/D101.png","arrowleft","","[""materials/imgs/D66.png"",""materials/imgs/D82.png""]","false","random","","",""
"","","","","","html-keyboard-response","124","262290","0.0-13.0-0.4-0.34","0p5xc0ucea","","0p5xc0ucea","""2024-11-12T18:09:57.668Z""","null","+","null","","","","","","",""
"","","","","","image-keyboard-response","125","263301","0.0-13.0-0.4-1.34","0p5xc0ucea","","0p5xc0ucea","""2024-11-12T18:09:57.668Z""","1009","materials/imgs/D78.png","arrowleft","","[""materials/imgs/D84.png"",""materials/imgs/D26.png""]","false","random","","",""
"","","","","","html-keyboard-response","126","263802","0.0-13.0-1.4-0.4","0p5xc0ucea","","0p5xc0ucea","""2024-11-12T18:09:57.668Z""","null","+","null","","","","","","",""
"","","","","","image-keyboard-response","127","264436","0.0-13.0-1.4-1.4","0p5xc0ucea","","0p5xc0ucea","""2024-11-12T18:09:57.668Z""","632","materials/imgs/D78.png","arrowright","","[""materials/imgs/D76.png"",""materials/imgs/D78.png""]","","check","materials/imgs/D78.png","1","true"
"","","","","","html-keyboard-response","128","264937","0.0-13.0-2.4-0.8","0p5xc0ucea","","0p5xc0ucea","""2024-11-12T18:09:57.668Z""","null","+","null","","","","","","",""
"","","","","","image-keyboard-response","129","266070","0.0-13.0-2.4-1.8","0p5xc0ucea","","0p5xc0ucea","""2024-11-12T18:09:57.668Z""","1131","materials/imgs/D46.png","arrowright","","[""materials/imgs/D92.png"",""materials/imgs/D77.png""]","false","validation","","",""
"","","","","","html-keyboard-response","130","266571","0.0-13.0-2.4-0.9","0p5xc0ucea","","0p5xc0ucea","""2024-11-12T18:09:57.668Z""","null","+","null","","","","","","",""
"","","","","","image-keyboard-response","131","267690","0.0-13.0-2.4-1.9","0p5xc0ucea","","0p5xc0ucea","""2024-11-12T18:09:57.668Z""","1116","materials/imgs/D26.png","arrowleft","","[""materials/imgs/D36.png"",""materials/imgs/D92.png""]","false","validation","","",""
"","","","","","html-button-response","132","270140","0.0-14.0","0p5xc0ucea","","0p5xc0ucea","""2024-11-12T18:09:57.668Z""","2449","You have completed 25% of the trials. Please click 'Continue' when you are ready proceed.","0","","","","","","",""
"","","","","","html-keyboard-response","133","270640","0.0-15.0-0.0-0.0","0p5xc0ucea","","0p5xc0ucea","""2024-11-12T18:09:57.668Z""","null","+","null","","","","","","",""
"","","","","","image-keyboard-response","134","271304","0.0-15.0-0.0-1.0","0p5xc0ucea","","0p5xc0ucea","""2024-11-12T18:09:57.668Z""","661","materials/imgs/D22.png","arrowleft","","[""materials/imgs/D36.png"",""materials/imgs/D56.png""]","false","random","","",""
"","","","","","html-keyboard-response","135","271805","0.0-15.0-0.0-0.1","0p5xc0ucea","","0p5xc0ucea","""2024-11-12T18:09:57.668Z""","null","+","null","","","","","","",""
"","","","","","image-keyboard-response","136","274792","0.0-15.0-0.0-1.1","0p5xc0ucea","","0p5xc0ucea","""2024-11-12T18:09:57.668Z""","2985","materials/imgs/D77.png","arrowright","","[""materials/imgs/D103.png"",""materials/imgs/D6.png""]","false","random","","",""
"","","","","","html-keyboard-response","137","275292","0.0-15.0-0.0-0.2","0p5xc0ucea","","0p5xc0ucea","""2024-11-12T18:09:57.668Z""","null","+","null","","","","","","",""
"","","","","","image-keyboard-response","138","276508","0.0-15.0-0.0-1.2","0p5xc0ucea","","0p5xc0ucea","""2024-11-12T18:09:57.668Z""","1213","materials/imgs/D51.png","arrowright","","[""materials/imgs/D53.png"",""materials/imgs/D75.png""]","false","random","","",""
"","","","","","html-keyboard-response","139","277009","0.0-15.0-0.0-0.3","0p5xc0ucea","","0p5xc0ucea","""2024-11-12T18:09:57.668Z""","null","+","null","","","","","","",""
"","","","","","image-keyboard-response","140","279451","0.0-15.0-0.0-1.3","0p5xc0ucea","","0p5xc0ucea","""2024-11-12T18:09:57.668Z""","2440","materials/imgs/D51.png","arrowleft","","[""materials/imgs/D56.png"",""materials/imgs/D65.png""]","false","random","","",""
"","","","","","html-keyboard-response","141","279952","0.0-15.0-0.0-0.4","0p5xc0ucea","","0p5xc0ucea","""2024-11-12T18:09:57.668Z""","null","+","null","","","","","","",""
"","","","","","image-keyboard-response","142","281382","0.0-15.0-0.0-1.4","0p5xc0ucea","","0p5xc0ucea","""2024-11-12T18:09:57.668Z""","1428","materials/imgs/D14.png","arrowright","","[""materials/imgs/D46.png"",""materials/imgs/D66.png""]","false","random","","",""
"","","","","","html-keyboard-response","143","281883","0.0-15.0-0.0-0.5","0p5xc0ucea","","0p5xc0ucea","""2024-11-12T18:09:57.668Z""","null","+","null","","","","","","",""
"","","","","","image-keyboard-response","144","282914","0.0-15.0-0.0-1.5","0p5xc0ucea","","0p5xc0ucea","""2024-11-12T18:09:57.668Z""","1029","materials/imgs/D25.png","arrowleft","","[""materials/imgs/D64.png"",""materials/imgs/D14.png""]","false","random","","",""
"","","","","","html-keyboard-response","145","283416","0.0-15.0-0.0-0.6","0p5xc0ucea","","0p5xc0ucea","""2024-11-12T18:09:57.668Z""","null","+","null","","","","","","",""
"","","","","","image-keyboard-response","146","284656","0.0-15.0-0.0-1.6","0p5xc0ucea","","0p5xc0ucea","""2024-11-12T18:09:57.668Z""","1238","materials/imgs/D16.png","arrowleft","","[""materials/imgs/D101.png"",""materials/imgs/D95.png""]","false","random","","",""
"","","","","","html-keyboard-response","147","285158","0.0-15.0-1.0-0.0","0p5xc0ucea","","0p5xc0ucea","""2024-11-12T18:09:57.668Z""","null","+","null","","","","","","",""
"","","","","","image-keyboard-response","148","285800","0.0-15.0-1.0-1.0","0p5xc0ucea","","0p5xc0ucea","""2024-11-12T18:09:57.668Z""","641","materials/imgs/D18.png","arrowright","","[""materials/imgs/D8.png"",""materials/imgs/D18.png""]","","check","materials/imgs/D18.png","1","true"
"","","","","","html-keyboard-response","149","286302","0.0-15.0-2.0-0.0","0p5xc0ucea","","0p5xc0ucea","""2024-11-12T18:09:57.668Z""","null","+","null","","","","","","",""
"","","","","","image-keyboard-response","150","287229","0.0-15.0-2.0-1.0","0p5xc0ucea","","0p5xc0ucea","""2024-11-12T18:09:57.668Z""","926","materials/imgs/D36.png","arrowright","","[""materials/imgs/D47.png"",""materials/imgs/D49.png""]","false","validation","","",""
"","","","","","html-keyboard-response","151","287730","0.0-15.0-2.0-0.1","0p5xc0ucea","","0p5xc0ucea","""2024-11-12T18:09:57.668Z""","null","+","null","","","","","","",""
"","","","","","image-keyboard-response","152","289472","0.0-15.0-2.0-1.1","0p5xc0ucea","","0p5xc0ucea","""2024-11-12T18:09:57.668Z""","1739","materials/imgs/D95.png","arrowleft","","[""materials/imgs/D36.png"",""materials/imgs/D4.png""]","false","validation","","",""
"","","","","","html-keyboard-response","153","289973","0.0-15.0-0.1-0.7","0p5xc0ucea","","0p5xc0ucea","""2024-11-12T18:09:57.668Z""","null","+","null","","","","","","",""
"","","","","","image-keyboard-response","154","291062","0.0-15.0-0.1-1.7","0p5xc0ucea","","0p5xc0ucea","""2024-11-12T18:09:57.668Z""","1087","materials/imgs/D34.png","arrowright","","[""materials/imgs/D29.png"",""materials/imgs/D78.png""]","false","random","","",""
"","","","","","html-keyboard-response","155","291564","0.0-15.0-0.1-0.8","0p5xc0ucea","","0p5xc0ucea","""2024-11-12T18:09:57.668Z""","null","+","null","","","","","","",""
"","","","","","image-keyboard-response","156","292724","0.0-15.0-0.1-1.8","0p5xc0ucea","","0p5xc0ucea","""2024-11-12T18:09:57.668Z""","1158","materials/imgs/D80.png","arrowright","","[""materials/imgs/D8.png"",""materials/imgs/D6.png""]","false","random","","",""
"","","","","","html-keyboard-response","157","293225","0.0-15.0-0.1-0.9","0p5xc0ucea","","0p5xc0ucea","""2024-11-12T18:09:57.668Z""","null","+","null","","","","","","",""
"","","","","","image-keyboard-response","158","294995","0.0-15.0-0.1-1.9","0p5xc0ucea","","0p5xc0ucea","""2024-11-12T18:09:57.668Z""","1768","materials/imgs/D14.png","arrowright","","[""materials/imgs/D106.png"",""materials/imgs/D84.png""]","false","random","","",""
"","","","","","html-keyboard-response","159","295497","0.0-15.0-0.1-0.10","0p5xc0ucea","","0p5xc0ucea","""2024-11-12T18:09:57.668Z""","null","+","null","","","","","","",""
"","","","","","image-keyboard-response","160","297677","0.0-15.0-0.1-1.10","0p5xc0ucea","","0p5xc0ucea","""2024-11-12T18:09:57.668Z""","2178","materials/imgs/D83.png","arrowright","","[""materials/imgs/D35.png"",""materials/imgs/D8.png""]","false","random","","",""
"","","","","","html-keyboard-response","161","298178","0.0-15.0-0.1-0.11","0p5xc0ucea","","0p5xc0ucea","""2024-11-12T18:09:57.668Z""","null","+","null","","","","","","",""
"","","","","","image-keyboard-response","162","298986","0.0-15.0-0.1-1.11","0p5xc0ucea","","0p5xc0ucea","""2024-11-12T18:09:57.668Z""","805","materials/imgs/D17.png","arrowleft","","[""materials/imgs/D82.png"",""materials/imgs/D18.png""]","false","random","","",""
"","","","","","html-keyboard-response","163","299487","0.0-15.0-0.1-0.12","0p5xc0ucea","","0p5xc0ucea","""2024-11-12T18:09:57.668Z""","null","+","null","","","","","","",""
"","","","","","image-keyboard-response","164","300389","0.0-15.0-0.1-1.12","0p5xc0ucea","","0p5xc0ucea","""2024-11-12T18:09:57.668Z""","899","materials/imgs/D104.png","arrowleft","","[""materials/imgs/D3.png"",""materials/imgs/D78.png""]","false","random","","",""
"","","","","","html-keyboard-response","165","300890","0.0-15.0-0.1-0.13","0p5xc0ucea","","0p5xc0ucea","""2024-11-12T18:09:57.668Z""","null","+","null","","","","","","",""
"","","","","","image-keyboard-response","166","301697","0.0-15.0-0.1-1.13","0p5xc0ucea","","0p5xc0ucea","""2024-11-12T18:09:57.668Z""","805","materials/imgs/D26.png","arrowleft","","[""materials/imgs/D94.png"",""materials/imgs/D105.png""]","false","random","","",""
"","","","","","html-keyboard-response","167","302198","0.0-15.0-1.1-0.1","0p5xc0ucea","","0p5xc0ucea","""2024-11-12T18:09:57.668Z""","null","+","null","","","","","","",""
"","","","","","image-keyboard-response","168","302751","0.0-15.0-1.1-1.1","0p5xc0ucea","","0p5xc0ucea","""2024-11-12T18:09:57.668Z""","551","materials/imgs/D26.png","arrowleft","","[""materials/imgs/D26.png"",""materials/imgs/D46.png""]","","check","materials/imgs/D26.png","0","true"
"","","","","","html-keyboard-response","169","303253","0.0-15.0-2.1-0.2","0p5xc0ucea","","0p5xc0ucea","""2024-11-12T18:09:57.668Z""","null","+","null","","","","","","",""
"","","","","","image-keyboard-response","170","304541","0.0-15.0-2.1-1.2","0p5xc0ucea","","0p5xc0ucea","""2024-11-12T18:09:57.668Z""","1287","materials/imgs/D96.png","arrowright","","[""materials/imgs/D46.png"",""materials/imgs/D18.png""]","false","validation","","",""
"","","","","","html-keyboard-response","171","305042","0.0-15.0-2.1-0.3","0p5xc0ucea","","0p5xc0ucea","""2024-11-12T18:09:57.668Z""","null","+","null","","","","","","",""
"","","","","","image-keyboard-response","172","306208","0.0-15.0-2.1-1.3","0p5xc0ucea","","0p5xc0ucea","""2024-11-12T18:09:57.668Z""","1164","materials/imgs/D82.png","arrowright","","[""materials/imgs/D83.png"",""materials/imgs/D22.png""]","false","validation","","",""
"","","","","","html-keyboard-response","173","306710","0.0-15.0-0.2-0.14","0p5xc0ucea","","0p5xc0ucea","""2024-11-12T18:09:57.668Z""","null","+","null","","","","","","",""
"","","","","","image-keyboard-response","174","307363","0.0-15.0-0.2-1.14","0p5xc0ucea","","0p5xc0ucea","""2024-11-12T18:09:57.668Z""","650","materials/imgs/D36.png","arrowright","","[""materials/imgs/D1.png"",""materials/imgs/D53.png""]","false","random","","",""
"","","","","","html-keyboard-response","175","307865","0.0-15.0-0.2-0.15","0p5xc0ucea","","0p5xc0ucea","""2024-11-12T18:09:57.668Z""","null","+","null","","","","","","",""
"","","","","","image-keyboard-response","176","309210","0.0-15.0-0.2-1.15","0p5xc0ucea","","0p5xc0ucea","""2024-11-12T18:09:57.668Z""","1342","materials/imgs/D102.png","arrowleft","","[""materials/imgs/D47.png"",""materials/imgs/D32.png""]","false","random","","",""
"","","","","","html-keyboard-response","177","309712","0.0-15.0-0.2-0.16","0p5xc0ucea","","0p5xc0ucea","""2024-11-12T18:09:57.668Z""","null","+","null","","","","","","",""
"","","","","","image-keyboard-response","178","312972","0.0-15.0-0.2-1.16","0p5xc0ucea","","0p5xc0ucea","""2024-11-12T18:09:57.668Z""","3258","materials/imgs/D37.png","arrowright","","[""materials/imgs/D24.png"",""materials/imgs/D80.png""]","false","random","","",""
"","","","","","html-keyboard-response","179","313473","0.0-15.0-0.2-0.17","0p5xc0ucea","","0p5xc0ucea","""2024-11-12T18:09:57.668Z""","null","+","null","","","","","","",""
"","","","","","image-keyboard-response","180","315333","0.0-15.0-0.2-1.17","0p5xc0ucea","","0p5xc0ucea","""2024-11-12T18:09:57.668Z""","1857","materials/imgs/D106.png","arrowleft","","[""materials/imgs/D26.png"",""materials/imgs/D53.png""]","false","random","","",""
"","","","","","html-keyboard-response","181","315834","0.0-15.0-0.2-0.18","0p5xc0ucea","","0p5xc0ucea","""2024-11-12T18:09:57.668Z""","null","+","null","","","","","","",""
"","","","","","image-keyboard-response","182","317381","0.0-15.0-0.2-1.18","0p5xc0ucea","","0p5xc0ucea","""2024-11-12T18:09:57.668Z""","1545","materials/imgs/D55.png","arrowright","","[""materials/imgs/D51.png"",""materials/imgs/D66.png""]","false","random","","",""
"","","","","","html-keyboard-response","183","317882","0.0-15.0-0.2-0.19","0p5xc0ucea","","0p5xc0ucea","""2024-11-12T18:09:57.668Z""","null","+","null","","","","","","",""
"","","","","","image-keyboard-response","184","320391","0.0-15.0-0.2-1.19","0p5xc0ucea","","0p5xc0ucea","""2024-11-12T18:09:57.668Z""","2507","materials/imgs/D48.png","arrowleft","","[""materials/imgs/D101.png"",""materials/imgs/D17.png""]","false","random","","",""
"","","","","","html-keyboard-response","185","320892","0.0-15.0-0.2-0.20","0p5xc0ucea","","0p5xc0ucea","""2024-11-12T18:09:57.668Z""","null","+","null","","","","","","",""
"","","","","","image-keyboard-response","186","321739","0.0-15.0-0.2-1.20","0p5xc0ucea","","0p5xc0ucea","""2024-11-12T18:09:57.668Z""","846","materials/imgs/D35.png","arrowleft","","[""materials/imgs/D34.png"",""materials/imgs/D24.png""]","false","random","","",""
"","","","","","html-keyboard-response","187","322241","0.0-15.0-1.2-0.2","0p5xc0ucea","","0p5xc0ucea","""2024-11-12T18:09:57.668Z""","null","+","null","","","","","","",""
"","","","","","image-keyboard-response","188","322915","0.0-15.0-1.2-1.2","0p5xc0ucea","","0p5xc0ucea","""2024-11-12T18:09:57.668Z""","672","materials/imgs/D53.png","arrowright","","[""materials/imgs/D64.png"",""materials/imgs/D53.png""]","","check","materials/imgs/D53.png","1","true"
"","","","","","html-keyboard-response","189","323417","0.0-15.0-2.2-0.4","0p5xc0ucea","","0p5xc0ucea","""2024-11-12T18:09:57.668Z""","null","+","null","","","","","","",""
"","","","","","image-keyboard-response","190","325084","0.0-15.0-2.2-1.4","0p5xc0ucea","","0p5xc0ucea","""2024-11-12T18:09:57.668Z""","1666","materials/imgs/D75.png","arrowright","","[""materials/imgs/D96.png"",""materials/imgs/D4.png""]","false","validation","","",""
"","","","","","html-keyboard-response","191","325585","0.0-15.0-2.2-0.5","0p5xc0ucea","","0p5xc0ucea","""2024-11-12T18:09:57.668Z""","null","+","null","","","","","","",""
"","","","","","image-keyboard-response","192","326858","0.0-15.0-2.2-1.5","0p5xc0ucea","","0p5xc0ucea","""2024-11-12T18:09:57.668Z""","1270","materials/imgs/D66.png","arrowleft","","[""materials/imgs/D85.png"",""materials/imgs/D25.png""]","false","validation","","",""
"","","","","","html-keyboard-response","193","327359","0.0-15.0-0.3-0.21","0p5xc0ucea","","0p5xc0ucea","""2024-11-12T18:09:57.668Z""","null","+","null","","","","","","",""
"","","","","","image-keyboard-response","194","328241","0.0-15.0-0.3-1.21","0p5xc0ucea","","0p5xc0ucea","""2024-11-12T18:09:57.668Z""","880","materials/imgs/D56.png","arrowright","","[""materials/imgs/D55.png"",""materials/imgs/D20.png""]","false","random","","",""
"","","","","","html-keyboard-response","195","328743","0.0-15.0-0.3-0.22","0p5xc0ucea","","0p5xc0ucea","""2024-11-12T18:09:57.668Z""","null","+","null","","","","","","",""
"","","","","","image-keyboard-response","196","329749","0.0-15.0-0.3-1.22","0p5xc0ucea","","0p5xc0ucea","""2024-11-12T18:09:57.668Z""","1004","materials/imgs/D65.png","arrowleft","","[""materials/imgs/D34.png"",""materials/imgs/D36.png""]","false","random","","",""
"","","","","","html-keyboard-response","197","330249","0.0-15.0-0.3-0.23","0p5xc0ucea","","0p5xc0ucea","""2024-11-12T18:09:57.668Z""","null","+","null","","","","","","",""
"","","","","","image-keyboard-response","198","330857","0.0-15.0-0.3-1.23","0p5xc0ucea","","0p5xc0ucea","""2024-11-12T18:09:57.668Z""","605","materials/imgs/D24.png","arrowright","","[""materials/imgs/D76.png"",""materials/imgs/D11.png""]","false","random","","",""
"","","","","","html-keyboard-response","199","331358","0.0-15.0-0.3-0.24","0p5xc0ucea","","0p5xc0ucea","""2024-11-12T18:09:57.668Z""","null","+","null","","","","","","",""
"","","","","","image-keyboard-response","200","332004","0.0-15.0-0.3-1.24","0p5xc0ucea","","0p5xc0ucea","""2024-11-12T18:09:57.668Z""","644","materials/imgs/D84.png","arrowright","","[""materials/imgs/D21.png"",""materials/imgs/D92.png""]","false","random","","",""
"","","","","","html-keyboard-response","201","332506","0.0-15.0-0.3-0.25","0p5xc0ucea","","0p5xc0ucea","""2024-11-12T18:09:57.668Z""","null","+","null","","","","","","",""
"","","","","","image-keyboard-response","202","336328","0.0-15.0-0.3-1.25","0p5xc0ucea","","0p5xc0ucea","""2024-11-12T18:09:57.668Z""","3820","materials/imgs/D11.png","arrowleft","","[""materials/imgs/D9.png"",""materials/imgs/D49.png""]","false","random","","",""
"","","","","","html-keyboard-response","203","336830","0.0-15.0-0.3-0.26","0p5xc0ucea","","0p5xc0ucea","""2024-11-12T18:09:57.668Z""","null","+","null","","","","","","",""
"","","","","","image-keyboard-response","204","338196","0.0-15.0-0.3-1.26","0p5xc0ucea","","0p5xc0ucea","""2024-11-12T18:09:57.668Z""","1364","materials/imgs/D46.png","arrowright","","[""materials/imgs/D20.png"",""materials/imgs/D76.png""]","false","random","","",""
"","","","","","html-keyboard-response","205","338697","0.0-15.0-0.3-0.27","0p5xc0ucea","","0p5xc0ucea","""2024-11-12T18:09:57.668Z""","null","+","null","","","","","","",""
"","","","","","image-keyboard-response","206","340365","0.0-15.0-0.3-1.27","0p5xc0ucea","","0p5xc0ucea","""2024-11-12T18:09:57.668Z""","1665","materials/imgs/D25.png","arrowright","","[""materials/imgs/D104.png"",""materials/imgs/D17.png""]","false","random","","",""
"","","","","","html-keyboard-response","207","340866","0.0-15.0-1.3-0.3","0p5xc0ucea","","0p5xc0ucea","""2024-11-12T18:09:57.668Z""","null","+","null","","","","","","",""
"","","","","","image-keyboard-response","208","341569","0.0-15.0-1.3-1.3","0p5xc0ucea","","0p5xc0ucea","""2024-11-12T18:09:57.668Z""","702","materials/imgs/D78.png","arrowright","","[""materials/imgs/D76.png"",""materials/imgs/D78.png""]","","check","materials/imgs/D78.png","1","true"
"","","","","","html-keyboard-response","209","342071","0.0-15.0-2.3-0.6","0p5xc0ucea","","0p5xc0ucea","""2024-11-12T18:09:57.668Z""","null","+","null","","","","","","",""
"","","","","","image-keyboard-response","210","342991","0.0-15.0-2.3-1.6","0p5xc0ucea","","0p5xc0ucea","""2024-11-12T18:09:57.668Z""","919","materials/imgs/D77.png","arrowright","","[""materials/imgs/D102.png"",""materials/imgs/D65.png""]","false","validation","","",""
"","","","","","html-keyboard-response","211","343492","0.0-15.0-2.3-0.7","0p5xc0ucea","","0p5xc0ucea","""2024-11-12T18:09:57.668Z""","null","+","null","","","","","","",""
"","","","","","image-keyboard-response","212","344150","0.0-15.0-2.3-1.7","0p5xc0ucea","","0p5xc0ucea","""2024-11-12T18:09:57.668Z""","656","materials/imgs/D106.png","arrowright","","[""materials/imgs/D57.png"",""materials/imgs/D18.png""]","false","validation","","",""
"","","","","","html-keyboard-response","213","344651","0.0-15.0-0.4-0.28","0p5xc0ucea","","0p5xc0ucea","""2024-11-12T18:09:57.668Z""","null","+","null","","","","","","",""
"","","","","","image-keyboard-response","214","346328","0.0-15.0-0.4-1.28","0p5xc0ucea","","0p5xc0ucea","""2024-11-12T18:09:57.668Z""","1675","materials/imgs/D49.png","arrowleft","","[""materials/imgs/D24.png"",""materials/imgs/D36.png""]","false","random","","",""
"","","","","","html-keyboard-response","215","346830","0.0-15.0-0.4-0.29","0p5xc0ucea","","0p5xc0ucea","""2024-11-12T18:09:57.668Z""","null","+","null","","","","","","",""
"","","","","","image-keyboard-response","216","349176","0.0-15.0-0.4-1.29","0p5xc0ucea","","0p5xc0ucea","""2024-11-12T18:09:57.668Z""","2344","materials/imgs/D84.png","arrowleft","","[""materials/imgs/D94.png"",""materials/imgs/D1.png""]","false","random","","",""
"","","","","","html-keyboard-response","217","349677","0.0-15.0-0.4-0.30","0p5xc0ucea","","0p5xc0ucea","""2024-11-12T18:09:57.668Z""","null","+","null","","","","","","",""
"","","","","","image-keyboard-response","218","350486","0.0-15.0-0.4-1.30","0p5xc0ucea","","0p5xc0ucea","""2024-11-12T18:09:57.668Z""","807","materials/imgs/D84.png","arrowleft","","[""materials/imgs/D4.png"",""materials/imgs/D11.png""]","false","random","","",""
"","","","","","html-keyboard-response","219","350988","0.0-15.0-0.4-0.31","0p5xc0ucea","","0p5xc0ucea","""2024-11-12T18:09:57.668Z""","null","+","null","","","","","","",""
"","","","","","image-keyboard-response","220","352298","0.0-15.0-0.4-1.31","0p5xc0ucea","","0p5xc0ucea","""2024-11-12T18:09:57.668Z""","1308","materials/imgs/D8.png","arrowright","","[""materials/imgs/D94.png"",""materials/imgs/D103.png""]","false","random","","",""
"","","","","","html-keyboard-response","221","352800","0.0-15.0-0.4-0.32","0p5xc0ucea","","0p5xc0ucea","""2024-11-12T18:09:57.668Z""","null","+","null","","","","","","",""
"","","","","","image-keyboard-response","222","353844","0.0-15.0-0.4-1.32","0p5xc0ucea","","0p5xc0ucea","""2024-11-12T18:09:57.668Z""","1042","materials/imgs/D21.png","arrowleft","","[""materials/imgs/D80.png"",""materials/imgs/D66.png""]","false","random","","",""
"","","","","","html-keyboard-response","223","354345","0.0-15.0-0.4-0.33","0p5xc0ucea","","0p5xc0ucea","""2024-11-12T18:09:57.668Z""","null","+","null","","","","","","",""
"","","","","","image-keyboard-response","224","354908","0.0-15.0-0.4-1.33","0p5xc0ucea","","0p5xc0ucea","""2024-11-12T18:09:57.668Z""","561","materials/imgs/D14.png","arrowleft","","[""materials/imgs/D103.png"",""materials/imgs/D37.png""]","false","random","","",""
"","","","","","html-keyboard-response","225","355410","0.0-15.0-0.4-0.34","0p5xc0ucea","","0p5xc0ucea","""2024-11-12T18:09:57.668Z""","null","+","null","","","","","","",""
"","","","","","image-keyboard-response","226","355905","0.0-15.0-0.4-1.34","0p5xc0ucea","","0p5xc0ucea","""2024-11-12T18:09:57.668Z""","493","materials/imgs/D83.png","arrowleft","","[""materials/imgs/D66.png"",""materials/imgs/D26.png""]","true","random","","",""
"","","","","","html-keyboard-response","227","360067","0.0-15.0-0.4-2.34-0.34","0p5xc0ucea","","0p5xc0ucea","""2024-11-12T18:09:57.668Z""","4160","<p><strong>You're going too fast.</strong><p>Please slow down and assess each triplet.<p>Press 'y' to continue.</p></p>","y","","","","","","",""
"","","","","","html-keyboard-response","228","360568","0.0-15.0-1.4-0.4","0p5xc0ucea","","0p5xc0ucea","""2024-11-12T18:09:57.668Z""","null","+","null","","","","","","",""
"","","","","","image-keyboard-response","229","361224","0.0-15.0-1.4-1.4","0p5xc0ucea","","0p5xc0ucea","""2024-11-12T18:09:57.668Z""","654","materials/imgs/D26.png","arrowleft","","[""materials/imgs/D26.png"",""materials/imgs/D46.png""]","","check","materials/imgs/D26.png","0","true"
"","","","","","html-keyboard-response","230","361725","0.0-15.0-2.4-0.8","0p5xc0ucea","","0p5xc0ucea","""2024-11-12T18:09:57.668Z""","null","+","null","","","","","","",""
"","","","","","image-keyboard-response","231","365633","0.0-15.0-2.4-1.8","0p5xc0ucea","","0p5xc0ucea","""2024-11-12T18:09:57.668Z""","3906","materials/imgs/D18.png","arrowleft","","[""materials/imgs/D32.png"",""materials/imgs/D57.png""]","false","validation","","",""
"","","","","","html-keyboard-response","232","366135","0.0-15.0-2.4-0.9","0p5xc0ucea","","0p5xc0ucea","""2024-11-12T18:09:57.668Z""","null","+","null","","","","","","",""
"","","","","","image-keyboard-response","233","367910","0.0-15.0-2.4-1.9","0p5xc0ucea","","0p5xc0ucea","""2024-11-12T18:09:57.668Z""","1773","materials/imgs/D16.png","arrowleft","","[""materials/imgs/D52.png"",""materials/imgs/D25.png""]","false","validation","","",""
"","","","","","html-button-response","234","370398","0.0-16.0","0p5xc0ucea","","0p5xc0ucea","""2024-11-12T18:09:57.668Z""","2487","You have completed 50% of the trials. Please click 'Continue' when you are ready proceed.","0","","","","","","",""
"","","","","","html-keyboard-response","235","370899","0.0-17.0-0.0-0.0","0p5xc0ucea","","0p5xc0ucea","""2024-11-12T18:09:57.668Z""","null","+","null","","","","","","",""
"","","","","","image-keyboard-response","236","374036","0.0-17.0-0.0-1.0","0p5xc0ucea","","0p5xc0ucea","""2024-11-12T18:09:57.668Z""","3135","materials/imgs/D19.png","arrowleft","","[""materials/imgs/D105.png"",""materials/imgs/D22.png""]","false","random","","",""
"","","","","","html-keyboard-response","237","374537","0.0-17.0-0.0-0.1","0p5xc0ucea","","0p5xc0ucea","""2024-11-12T18:09:57.668Z""","null","+","null","","","","","","",""
"","","","","","image-keyboard-response","238","375924","0.0-17.0-0.0-1.1","0p5xc0ucea","","0p5xc0ucea","""2024-11-12T18:09:57.668Z""","1384","materials/imgs/D18.png","arrowleft","","[""materials/imgs/D79.png"",""materials/imgs/D51.png""]","false","random","","",""
"","","","","","html-keyboard-response","239","376425","0.0-17.0-0.0-0.2","0p5xc0ucea","","0p5xc0ucea","""2024-11-12T18:09:57.668Z""","null","+","null","","","","","","",""
"","","","","","image-keyboard-response","240","383869","0.0-17.0-0.0-1.2","0p5xc0ucea","","0p5xc0ucea","""2024-11-12T18:09:57.668Z""","7433","materials/imgs/D37.png","arrowleft","","[""materials/imgs/D18.png"",""materials/imgs/D106.png""]","false","random","","",""
"","","","","","html-keyboard-response","241","384370","0.0-17.0-0.0-0.3","0p5xc0ucea","","0p5xc0ucea","""2024-11-12T18:09:57.668Z""","null","+","null","","","","","","",""
"","","","","","image-keyboard-response","242","386596","0.0-17.0-0.0-1.3","0p5xc0ucea","","0p5xc0ucea","""2024-11-12T18:09:57.668Z""","2224","materials/imgs/D75.png","arrowright","","[""materials/imgs/D95.png"",""materials/imgs/D32.png""]","false","random","","",""
"","","","","","html-keyboard-response","243","387097","0.0-17.0-0.0-0.4","0p5xc0ucea","","0p5xc0ucea","""2024-11-12T18:09:57.668Z""","null","+","null","","","","","","",""
"","","","","","image-keyboard-response","244","388260","0.0-17.0-0.0-1.4","0p5xc0ucea","","0p5xc0ucea","""2024-11-12T18:09:57.668Z""","1161","materials/imgs/D64.png","arrowright","","[""materials/imgs/D22.png"",""materials/imgs/D4.png""]","false","random","","",""
"","","","","","html-keyboard-response","245","388762","0.0-17.0-0.0-0.5","0p5xc0ucea","","0p5xc0ucea","""2024-11-12T18:09:57.668Z""","null","+","null","","","","","","",""
"","","","","","image-keyboard-response","246","390030","0.0-17.0-0.0-1.5","0p5xc0ucea","","0p5xc0ucea","""2024-11-12T18:09:57.668Z""","1266","materials/imgs/D64.png","arrowleft","","[""materials/imgs/D29.png"",""materials/imgs/D76.png""]","false","random","","",""
"","","","","","html-keyboard-response","247","390532","0.0-17.0-0.0-0.6","0p5xc0ucea","","0p5xc0ucea","""2024-11-12T18:09:57.668Z""","null","+","null","","","","","","",""
"","","","","","image-keyboard-response","248","391440","0.0-17.0-0.0-1.6","0p5xc0ucea","","0p5xc0ucea","""2024-11-12T18:09:57.668Z""","907","materials/imgs/D57.png","arrowleft","","[""materials/imgs/D9.png"",""materials/imgs/D47.png""]","false","random","","",""
"","","","","","html-keyboard-response","249","391941","0.0-17.0-1.0-0.0","0p5xc0ucea","","0p5xc0ucea","""2024-11-12T18:09:57.668Z""","null","+","null","","","","","","",""
"","","","","","image-keyboard-response","250","392557","0.0-17.0-1.0-1.0","0p5xc0ucea","","0p5xc0ucea","""2024-11-12T18:09:57.668Z""","614","materials/imgs/D106.png","arrowleft","","[""materials/imgs/D106.png"",""materials/imgs/D101.png""]","","check","materials/imgs/D106.png","0","true"
"","","","","","html-keyboard-response","251","393058","0.0-17.0-2.0-0.0","0p5xc0ucea","","0p5xc0ucea","""2024-11-12T18:09:57.668Z""","null","+","null","","","","","","",""
"","","","","","image-keyboard-response","252","394532","0.0-17.0-2.0-1.0","0p5xc0ucea","","0p5xc0ucea","""2024-11-12T18:09:57.668Z""","1472","materials/imgs/D1.png","arrowright","","[""materials/imgs/D57.png"",""materials/imgs/D76.png""]","false","validation","","",""
"","","","","","html-keyboard-response","253","395034","0.0-17.0-2.0-0.1","0p5xc0ucea","","0p5xc0ucea","""2024-11-12T18:09:57.668Z""","null","+","null","","","","","","",""
"","","","","","image-keyboard-response","254","398064","0.0-17.0-2.0-1.1","0p5xc0ucea","","0p5xc0ucea","""2024-11-12T18:09:57.668Z""","3028","materials/imgs/D111.png","arrowleft","","[""materials/imgs/D82.png"",""materials/imgs/D95.png""]","false","validation","","",""
"","","","","","html-keyboard-response","255","398566","0.0-17.0-0.1-0.7","0p5xc0ucea","","0p5xc0ucea","""2024-11-12T18:09:57.668Z""","null","+","null","","","","","","",""
"","","","","","image-keyboard-response","256","399720","0.0-17.0-0.1-1.7","0p5xc0ucea","","0p5xc0ucea","""2024-11-12T18:09:57.668Z""","1153","materials/imgs/D84.png","arrowright","","[""materials/imgs/D75.png"",""materials/imgs/D24.png""]","false","random","","",""
"","","","","","html-keyboard-response","257","400222","0.0-17.0-0.1-0.8","0p5xc0ucea","","0p5xc0ucea","""2024-11-12T18:09:57.668Z""","null","+","null","","","","","","",""
"","","","","","image-keyboard-response","258","401208","0.0-17.0-0.1-1.8","0p5xc0ucea","","0p5xc0ucea","""2024-11-12T18:09:57.668Z""","984","materials/imgs/D80.png","arrowright","","[""materials/imgs/D34.png"",""materials/imgs/D85.png""]","false","random","","",""
"","","","","","html-keyboard-response","259","401709","0.0-17.0-0.1-0.9","0p5xc0ucea","","0p5xc0ucea","""2024-11-12T18:09:57.668Z""","null","+","null","","","","","","",""
"","","","","","image-keyboard-response","260","402519","0.0-17.0-0.1-1.9","0p5xc0ucea","","0p5xc0ucea","""2024-11-12T18:09:57.668Z""","808","materials/imgs/D29.png","arrowright","","[""materials/imgs/D81.png"",""materials/imgs/D24.png""]","false","random","","",""
"","","","","","html-keyboard-response","261","403020","0.0-17.0-0.1-0.10","0p5xc0ucea","","0p5xc0ucea","""2024-11-12T18:09:57.668Z""","null","+","null","","","","","","",""
"","","","","","image-keyboard-response","262","404004","0.0-17.0-0.1-1.10","0p5xc0ucea","","0p5xc0ucea","""2024-11-12T18:09:57.668Z""","982","materials/imgs/D74.png","arrowright","","[""materials/imgs/D14.png"",""materials/imgs/D51.png""]","false","random","","",""
"","","","","","html-keyboard-response","263","404506","0.0-17.0-0.1-0.11","0p5xc0ucea","","0p5xc0ucea","""2024-11-12T18:09:57.668Z""","null","+","null","","","","","","",""
"","","","","","image-keyboard-response","264","405669","0.0-17.0-0.1-1.11","0p5xc0ucea","","0p5xc0ucea","""2024-11-12T18:09:57.668Z""","1161","materials/imgs/D78.png","arrowleft","","[""materials/imgs/D81.png"",""materials/imgs/D26.png""]","false","random","","",""
"","","","","","html-keyboard-response","265","406170","0.0-17.0-0.1-0.12","0p5xc0ucea","","0p5xc0ucea","""2024-11-12T18:09:57.668Z""","null","+","null","","","","","","",""
"","","","","","image-keyboard-response","266","407752","0.0-17.0-0.1-1.12","0p5xc0ucea","","0p5xc0ucea","""2024-11-12T18:09:57.668Z""","1580","materials/imgs/D29.png","arrowleft","","[""materials/imgs/D76.png"",""materials/imgs/D34.png""]","false","random","","",""
"","","","","","html-keyboard-response","267","408253","0.0-17.0-0.1-0.13","0p5xc0ucea","","0p5xc0ucea","""2024-11-12T18:09:57.668Z""","null","+","null","","","","","","",""
"","","","","","image-keyboard-response","268","409662","0.0-17.0-0.1-1.13","0p5xc0ucea","","0p5xc0ucea","""2024-11-12T18:09:57.668Z""","1407","materials/imgs/D92.png","arrowright","","[""materials/imgs/D47.png"",""materials/imgs/D85.png""]","false","random","","",""
"","","","","","html-keyboard-response","269","410163","0.0-17.0-1.1-0.1","0p5xc0ucea","","0p5xc0ucea","""2024-11-12T18:09:57.668Z""","null","+","null","","","","","","",""
"","","","","","image-keyboard-response","270","410914","0.0-17.0-1.1-1.1","0p5xc0ucea","","0p5xc0ucea","""2024-11-12T18:09:57.668Z""","749","materials/imgs/D8.png","arrowright","","[""materials/imgs/D18.png"",""materials/imgs/D8.png""]","","check","materials/imgs/D8.png","1","true"
"","","","","","html-keyboard-response","271","411415","0.0-17.0-2.1-0.2","0p5xc0ucea","","0p5xc0ucea","""2024-11-12T18:09:57.668Z""","null","+","null","","","","","","",""
"","","","","","image-keyboard-response","272","412017","0.0-17.0-2.1-1.2","0p5xc0ucea","","0p5xc0ucea","""2024-11-12T18:09:57.668Z""","600","materials/imgs/D57.png","arrowright","","[""materials/imgs/D111.png"",""materials/imgs/D4.png""]","false","validation","","",""
"","","","","","html-keyboard-response","273","412518","0.0-17.0-2.1-0.3","0p5xc0ucea","","0p5xc0ucea","""2024-11-12T18:09:57.668Z""","null","+","null","","","","","","",""
"","","","","","image-keyboard-response","274","413763","0.0-17.0-2.1-1.3","0p5xc0ucea","","0p5xc0ucea","""2024-11-12T18:09:57.668Z""","1243","materials/imgs/D48.png","arrowright","","[""materials/imgs/D4.png"",""materials/imgs/D37.png""]","false","validation","","",""
"","","","","","html-keyboard-response","275","414265","0.0-17.0-0.2-0.14","0p5xc0ucea","","0p5xc0ucea","""2024-11-12T18:09:57.668Z""","null","+","null","","","","","","",""
"","","","","","image-keyboard-response","276","414933","0.0-17.0-0.2-1.14","0p5xc0ucea","","0p5xc0ucea","""2024-11-12T18:09:57.668Z""","666","materials/imgs/D18.png","arrowright","","[""materials/imgs/D80.png"",""materials/imgs/D76.png""]","false","random","","",""
"","","","","","html-keyboard-response","277","415434","0.0-17.0-0.2-0.15","0p5xc0ucea","","0p5xc0ucea","""2024-11-12T18:09:57.668Z""","null","+","null","","","","","","",""
"","","","","","image-keyboard-response","278","416430","0.0-17.0-0.2-1.15","0p5xc0ucea","","0p5xc0ucea","""2024-11-12T18:09:57.668Z""","994","materials/imgs/D53.png","arrowleft","","[""materials/imgs/D35.png"",""materials/imgs/D96.png""]","false","random","","",""
"","","","","","html-keyboard-response","279","416932","0.0-17.0-0.2-0.16","0p5xc0ucea","","0p5xc0ucea","""2024-11-12T18:09:57.668Z""","null","+","null","","","","","","",""
"","","","","","image-keyboard-response","280","418022","0.0-17.0-0.2-1.16","0p5xc0ucea","","0p5xc0ucea","""2024-11-12T18:09:57.668Z""","1088","materials/imgs/D19.png","arrowright","","[""materials/imgs/D104.png"",""materials/imgs/D80.png""]","false","random","","",""
"","","","","","html-keyboard-response","281","418523","0.0-17.0-0.2-0.17","0p5xc0ucea","","0p5xc0ucea","""2024-11-12T18:09:57.668Z""","null","+","null","","","","","","",""
"","","","","","image-keyboard-response","282","419122","0.0-17.0-0.2-1.17","0p5xc0ucea","","0p5xc0ucea","""2024-11-12T18:09:57.668Z""","597","materials/imgs/D56.png","arrowright","","[""materials/imgs/D36.png"",""materials/imgs/D1.png""]","false","random","","",""
"","","","","","html-keyboard-response","283","419623","0.0-17.0-0.2-0.18","0p5xc0ucea","","0p5xc0ucea","""2024-11-12T18:09:57.668Z""","null","+","null","","","","","","",""
"","","","","","image-keyboard-response","284","421207","0.0-17.0-0.2-1.18","0p5xc0ucea","","0p5xc0ucea","""2024-11-12T18:09:57.668Z""","1582","materials/imgs/D106.png","arrowleft","","[""materials/imgs/D95.png"",""materials/imgs/D92.png""]","false","random","","",""
"","","","","","html-keyboard-response","285","421709","0.0-17.0-0.2-0.19","0p5xc0ucea","","0p5xc0ucea","""2024-11-12T18:09:57.668Z""","null","+","null","","","","","","",""
"","","","","","image-keyboard-response","286","423209","0.0-17.0-0.2-1.19","0p5xc0ucea","","0p5xc0ucea","""2024-11-12T18:09:57.668Z""","1498","materials/imgs/D20.png","arrowright","","[""materials/imgs/D101.png"",""materials/imgs/D104.png""]","false","random","","",""
"","","","","","html-keyboard-response","287","423710","0.0-17.0-0.2-0.20","0p5xc0ucea","","0p5xc0ucea","""2024-11-12T18:09:57.668Z""","null","+","null","","","","","","",""
"","","","","","image-keyboard-response","288","426533","0.0-17.0-0.2-1.20","0p5xc0ucea","","0p5xc0ucea","""2024-11-12T18:09:57.668Z""","2821","materials/imgs/D1.png","arrowleft","","[""materials/imgs/D84.png"",""materials/imgs/D24.png""]","false","random","","",""
"","","","","","html-keyboard-response","289","427034","0.0-17.0-1.2-0.2","0p5xc0ucea","","0p5xc0ucea","""2024-11-12T18:09:57.668Z""","null","+","null","","","","","","",""
"","","","","","image-keyboard-response","290","427646","0.0-17.0-1.2-1.2","0p5xc0ucea","","0p5xc0ucea","""2024-11-12T18:09:57.668Z""","610","materials/imgs/D26.png","arrowleft","","[""materials/imgs/D26.png"",""materials/imgs/D46.png""]","","check","materials/imgs/D26.png","0","true"
"","","","","","html-keyboard-response","291","428148","0.0-17.0-2.2-0.4","0p5xc0ucea","","0p5xc0ucea","""2024-11-12T18:09:57.668Z""","null","+","null","","","","","","",""
"","","","","","image-keyboard-response","292","432427","0.0-17.0-2.2-1.4","0p5xc0ucea","","0p5xc0ucea","""2024-11-12T18:09:57.668Z""","4277","materials/imgs/D83.png","arrowleft","","[""materials/imgs/D24.png"",""materials/imgs/D8.png""]","false","validation","","",""
"","","","","","html-keyboard-response","293","432928","0.0-17.0-2.2-0.5","0p5xc0ucea","","0p5xc0ucea","""2024-11-12T18:09:57.668Z""","null","+","null","","","","","","",""
"","","","","","image-keyboard-response","294","433694","0.0-17.0-2.2-1.5","0p5xc0ucea","","0p5xc0ucea","""2024-11-12T18:09:57.668Z""","764","materials/imgs/D68.png","arrowleft","","[""materials/imgs/D96.png"",""materials/imgs/D48.png""]","false","validation","","",""
"","","","","","html-keyboard-response","295","434195","0.0-17.0-0.3-0.21","0p5xc0ucea","","0p5xc0ucea","""2024-11-12T18:09:57.668Z""","null","+","null","","","","","","",""
"","","","","","image-keyboard-response","296","435301","0.0-17.0-0.3-1.21","0p5xc0ucea","","0p5xc0ucea","""2024-11-12T18:09:57.668Z""","1104","materials/imgs/D8.png","arrowleft","","[""materials/imgs/D57.png"",""materials/imgs/D103.png""]","false","random","","",""
"","","","","","html-keyboard-response","297","435803","0.0-17.0-0.3-0.22","0p5xc0ucea","","0p5xc0ucea","""2024-11-12T18:09:57.668Z""","null","+","null","","","","","","",""
"","","","","","image-keyboard-response","298","436928","0.0-17.0-0.3-1.22","0p5xc0ucea","","0p5xc0ucea","""2024-11-12T18:09:57.668Z""","1123","materials/imgs/D92.png","arrowleft","","[""materials/imgs/D80.png"",""materials/imgs/D76.png""]","false","random","","",""
"","","","","","html-keyboard-response","299","437430","0.0-17.0-0.3-0.23","0p5xc0ucea","","0p5xc0ucea","""2024-11-12T18:09:57.668Z""","null","+","null","","","","","","",""
"","","","","","image-keyboard-response","300","438257","0.0-17.0-0.3-1.23","0p5xc0ucea","","0p5xc0ucea","""2024-11-12T18:09:57.668Z""","825","materials/imgs/D18.png","arrowleft","","[""materials/imgs/D83.png"",""materials/imgs/D48.png""]","false","random","","",""
"","","","","","html-keyboard-response","301","438758","0.0-17.0-0.3-0.24","0p5xc0ucea","","0p5xc0ucea","""2024-11-12T18:09:57.668Z""","null","+","null","","","","","","",""
"","","","","","image-keyboard-response","302","442116","0.0-17.0-0.3-1.24","0p5xc0ucea","","0p5xc0ucea","""2024-11-12T18:09:57.668Z""","3355","materials/imgs/D103.png","arrowleft","","[""materials/imgs/D76.png"",""materials/imgs/D47.png""]","false","random","","",""
"","","","","","html-keyboard-response","303","442617","0.0-17.0-0.3-0.25","0p5xc0ucea","","0p5xc0ucea","""2024-11-12T18:09:57.668Z""","null","+","null","","","","","","",""
"","","","","","image-keyboard-response","304","443657","0.0-17.0-0.3-1.25","0p5xc0ucea","","0p5xc0ucea","""2024-11-12T18:09:57.668Z""","1038","materials/imgs/D102.png","arrowright","","[""materials/imgs/D51.png"",""materials/imgs/D78.png""]","false","random","","",""
"","","","","","html-keyboard-response","305","444158","0.0-17.0-0.3-0.26","0p5xc0ucea","","0p5xc0ucea","""2024-11-12T18:09:57.668Z""","null","+","null","","","","","","",""
"","","","","","image-keyboard-response","306","445197","0.0-17.0-0.3-1.26","0p5xc0ucea","","0p5xc0ucea","""2024-11-12T18:09:57.668Z""","1037","materials/imgs/D53.png","arrowleft","","[""materials/imgs/D20.png"",""materials/imgs/D9.png""]","false","random","","",""
"","","","","","html-keyboard-response","307","445698","0.0-17.0-0.3-0.27","0p5xc0ucea","","0p5xc0ucea","""2024-11-12T18:09:57.668Z""","null","+","null","","","","","","",""
"","","","","","image-keyboard-response","308","447524","0.0-17.0-0.3-1.27","0p5xc0ucea","","0p5xc0ucea","""2024-11-12T18:09:57.668Z""","1823","materials/imgs/D66.png","arrowright","","[""materials/imgs/D56.png"",""materials/imgs/D47.png""]","false","random","","",""
"","","","","","html-keyboard-response","309","448025","0.0-17.0-1.3-0.3","0p5xc0ucea","","0p5xc0ucea","""2024-11-12T18:09:57.668Z""","null","+","null","","","","","","",""
"","","","","","image-keyboard-response","310","451441","0.0-17.0-1.3-1.3","0p5xc0ucea","","0p5xc0ucea","""2024-11-12T18:09:57.668Z""","3414","materials/imgs/D53.png","arrowright","","[""materials/imgs/D64.png"",""materials/imgs/D53.png""]","","check","materials/imgs/D53.png","1","true"
"","","","","","html-keyboard-response","311","451942","0.0-17.0-2.3-0.6","0p5xc0ucea","","0p5xc0ucea","""2024-11-12T18:09:57.668Z""","null","+","null","","","","","","",""
"","","","","","image-keyboard-response","312","453018","0.0-17.0-2.3-1.6","0p5xc0ucea","","0p5xc0ucea","""2024-11-12T18:09:57.668Z""","1074","materials/imgs/D77.png","arrowleft","","[""materials/imgs/D102.png"",""materials/imgs/D65.png""]","false","validation","","",""
"","","","","","html-keyboard-response","313","453520","0.0-17.0-2.3-0.7","0p5xc0ucea","","0p5xc0ucea","""2024-11-12T18:09:57.668Z""","null","+","null","","","","","","",""
"","","","","","image-keyboard-response","314","454955","0.0-17.0-2.3-1.7","0p5xc0ucea","","0p5xc0ucea","""2024-11-12T18:09:57.668Z""","1433","materials/imgs/D47.png","arrowleft","","[""materials/imgs/D1.png"",""materials/imgs/D52.png""]","false","validation","","",""
"","","","","","html-keyboard-response","315","455456","0.0-17.0-0.4-0.28","0p5xc0ucea","","0p5xc0ucea","""2024-11-12T18:09:57.668Z""","null","+","null","","","","","","",""
"","","","","","image-keyboard-response","316","456581","0.0-17.0-0.4-1.28","0p5xc0ucea","","0p5xc0ucea","""2024-11-12T18:09:57.668Z""","1123","materials/imgs/D20.png","arrowright","","[""materials/imgs/D21.png"",""materials/imgs/D47.png""]","false","random","","",""
"","","","","","html-keyboard-response","317","457083","0.0-17.0-0.4-0.29","0p5xc0ucea","","0p5xc0ucea","""2024-11-12T18:09:57.668Z""","null","+","null","","","","","","",""
"","","","","","image-keyboard-response","318","462879","0.0-17.0-0.4-1.29","0p5xc0ucea","","0p5xc0ucea","""2024-11-12T18:09:57.668Z""","5794","materials/imgs/D6.png","arrowleft","","[""materials/imgs/D1.png"",""materials/imgs/D25.png""]","false","random","","",""
"","","","","","html-keyboard-response","319","463380","0.0-17.0-0.4-0.30","0p5xc0ucea","","0p5xc0ucea","""2024-11-12T18:09:57.668Z""","null","+","null","","","","","","",""
"","","","","","image-keyboard-response","320","464426","0.0-17.0-0.4-1.30","0p5xc0ucea","","0p5xc0ucea","""2024-11-12T18:09:57.668Z""","1043","materials/imgs/D55.png","arrowleft","","[""materials/imgs/D9.png"",""materials/imgs/D68.png""]","false","random","","",""
"","","","","","html-keyboard-response","321","464927","0.0-17.0-0.4-0.31","0p5xc0ucea","","0p5xc0ucea","""2024-11-12T18:09:57.668Z""","null","+","null","","","","","","",""
"","","","","","image-keyboard-response","322","465607","0.0-17.0-0.4-1.31","0p5xc0ucea","","0p5xc0ucea","""2024-11-12T18:09:57.668Z""","678","materials/imgs/D55.png","arrowright","","[""materials/imgs/D8.png"",""materials/imgs/D82.png""]","false","random","","",""
"","","","","","html-keyboard-response","323","466109","0.0-17.0-0.4-0.32","0p5xc0ucea","","0p5xc0ucea","""2024-11-12T18:09:57.668Z""","null","+","null","","","","","","",""
"","","","","","image-keyboard-response","324","466672","0.0-17.0-0.4-1.32","0p5xc0ucea","","0p5xc0ucea","""2024-11-12T18:09:57.668Z""","561","materials/imgs/D78.png","arrowright","","[""materials/imgs/D96.png"",""materials/imgs/D85.png""]","false","random","","",""
"","","","","","html-keyboard-response","325","467173","0.0-17.0-0.4-0.33","0p5xc0ucea","","0p5xc0ucea","""2024-11-12T18:09:57.668Z""","null","+","null","","","","","","",""
"","","","","","image-keyboard-response","326","468602","0.0-17.0-0.4-1.33","0p5xc0ucea","","0p5xc0ucea","""2024-11-12T18:09:57.668Z""","1427","materials/imgs/D52.png","arrowleft","","[""materials/imgs/D11.png"",""materials/imgs/D78.png""]","false","random","","",""
"","","","","","html-keyboard-response","327","469104","0.0-17.0-0.4-0.34","0p5xc0ucea","","0p5xc0ucea","""2024-11-12T18:09:57.668Z""","null","+","null","","","","","","",""
"","","","","","image-keyboard-response","328","470413","0.0-17.0-0.4-1.34","0p5xc0ucea","","0p5xc0ucea","""2024-11-12T18:09:57.668Z""","1307","materials/imgs/D22.png","arrowright","","[""materials/imgs/D32.png"",""materials/imgs/D80.png""]","false","random","","",""
"","","","","","html-keyboard-response","329","470914","0.0-17.0-1.4-0.4","0p5xc0ucea","","0p5xc0ucea","""2024-11-12T18:09:57.668Z""","null","+","null","","","","","","",""
"","","","","","image-keyboard-response","330","471509","0.0-17.0-1.4-1.4","0p5xc0ucea","","0p5xc0ucea","""2024-11-12T18:09:57.668Z""","593","materials/imgs/D64.png","arrowleft","","[""materials/imgs/D64.png"",""materials/imgs/D53.png""]","","check","materials/imgs/D64.png","0","true"
"","","","","","html-keyboard-response","331","472010","0.0-17.0-2.4-0.8","0p5xc0ucea","","0p5xc0ucea","""2024-11-12T18:09:57.668Z""","null","+","null","","","","","","",""
"","","","","","image-keyboard-response","332","473382","0.0-17.0-2.4-1.8","0p5xc0ucea","","0p5xc0ucea","""2024-11-12T18:09:57.668Z""","1370","materials/imgs/D83.png","arrowright","","[""materials/imgs/D24.png"",""materials/imgs/D8.png""]","false","validation","","",""
"","","","","","html-keyboard-response","333","473883","0.0-17.0-2.4-0.9","0p5xc0ucea","","0p5xc0ucea","""2024-11-12T18:09:57.668Z""","null","+","null","","","","","","",""
"","","","","","image-keyboard-response","334","475987","0.0-17.0-2.4-1.9","0p5xc0ucea","","0p5xc0ucea","""2024-11-12T18:09:57.668Z""","2102","materials/imgs/D76.png","arrowleft","","[""materials/imgs/D83.png"",""materials/imgs/D6.png""]","false","validation","","",""
"","","","","","html-button-response","335","477960","0.0-18.0","0p5xc0ucea","","0p5xc0ucea","""2024-11-12T18:09:57.668Z""","1972","You have completed 75% of the trials. Please click 'Continue' when you are ready proceed.","0","","","","","","",""
"","","","","","html-keyboard-response","336","478462","0.0-19.0-0.0-0.0","0p5xc0ucea","","0p5xc0ucea","""2024-11-12T18:09:57.668Z""","null","+","null","","","","","","",""
"","","","","","image-keyboard-response","337","481094","0.0-19.0-0.0-1.0","0p5xc0ucea","","0p5xc0ucea","""2024-11-12T18:09:57.668Z""","2630","materials/imgs/D104.png","arrowright","","[""materials/imgs/D20.png"",""materials/imgs/D21.png""]","false","random","","",""
"","","","","","html-keyboard-response","338","481596","0.0-19.0-0.0-0.1","0p5xc0ucea","","0p5xc0ucea","""2024-11-12T18:09:57.668Z""","null","+","null","","","","","","",""
"","","","","","image-keyboard-response","339","482992","0.0-19.0-0.0-1.1","0p5xc0ucea","","0p5xc0ucea","""2024-11-12T18:09:57.668Z""","1395","materials/imgs/D74.png","arrowright","","[""materials/imgs/D21.png"",""materials/imgs/D95.png""]","false","random","","",""
"","","","","","html-keyboard-response","340","483493","0.0-19.0-0.0-0.2","0p5xc0ucea","","0p5xc0ucea","""2024-11-12T18:09:57.668Z""","null","+","null","","","","","","",""
"","","","","","image-keyboard-response","341","484559","0.0-19.0-0.0-1.2","0p5xc0ucea","","0p5xc0ucea","""2024-11-12T18:09:57.668Z""","1063","materials/imgs/D104.png","arrowleft","","[""materials/imgs/D106.png"",""materials/imgs/D29.png""]","false","random","","",""
"","","","","","html-keyboard-response","342","485060","0.0-19.0-0.0-0.3","0p5xc0ucea","","0p5xc0ucea","""2024-11-12T18:09:57.668Z""","null","+","null","","","","","","",""
"","","","","","image-keyboard-response","343","486942","0.0-19.0-0.0-1.3","0p5xc0ucea","","0p5xc0ucea","""2024-11-12T18:09:57.668Z""","1880","materials/imgs/D65.png","arrowleft","","[""materials/imgs/D92.png"",""materials/imgs/D9.png""]","false","random","","",""
"","","","","","html-keyboard-response","344","487443","0.0-19.0-0.0-0.4","0p5xc0ucea","","0p5xc0ucea","""2024-11-12T18:09:57.668Z""","null","+","null","","","","","","",""
"","","","","","image-keyboard-response","345","488559","0.0-19.0-0.0-1.4","0p5xc0ucea","","0p5xc0ucea","""2024-11-12T18:09:57.668Z""","1113","materials/imgs/D4.png","arrowleft","","[""materials/imgs/D82.png"",""materials/imgs/D96.png""]","false","random","","",""
"","","","","","html-keyboard-response","346","489060","0.0-19.0-0.0-0.5","0p5xc0ucea","","0p5xc0ucea","""2024-11-12T18:09:57.668Z""","null","+","null","","","","","","",""
"","","","","","image-keyboard-response","347","489961","0.0-19.0-0.0-1.5","0p5xc0ucea","","0p5xc0ucea","""2024-11-12T18:09:57.668Z""","899","materials/imgs/D101.png","arrowright","","[""materials/imgs/D95.png"",""materials/imgs/D52.png""]","false","random","","",""
"","","","","","html-keyboard-response","348","490462","0.0-19.0-0.0-0.6","0p5xc0ucea","","0p5xc0ucea","""2024-11-12T18:09:57.668Z""","null","+","null","","","","","","",""
"","","","","","image-keyboard-response","349","491859","0.0-19.0-0.0-1.6","0p5xc0ucea","","0p5xc0ucea","""2024-11-12T18:09:57.668Z""","1394","materials/imgs/D6.png","arrowright","","[""materials/imgs/D25.png"",""materials/imgs/D79.png""]","false","random","","",""
"","","","","","html-keyboard-response","350","492361","0.0-19.0-1.0-0.0","0p5xc0ucea","","0p5xc0ucea","""2024-11-12T18:09:57.668Z""","null","+","null","","","","","","",""
"","","","","","image-keyboard-response","351","493502","0.0-19.0-1.0-1.0","0p5xc0ucea","","0p5xc0ucea","""2024-11-12T18:09:57.668Z""","1139","materials/imgs/D106.png","arrowleft","","[""materials/imgs/D106.png"",""materials/imgs/D101.png""]","","check","materials/imgs/D106.png","0","true"
"","","","","","html-keyboard-response","352","494005","0.0-19.0-2.0-0.0","0p5xc0ucea","","0p5xc0ucea","""2024-11-12T18:09:57.668Z""","null","+","null","","","","","","",""
"","","","","","image-keyboard-response","353","496765","0.0-19.0-2.0-1.0","0p5xc0ucea","","0p5xc0ucea","""2024-11-12T18:09:57.668Z""","2757","materials/imgs/D84.png","arrowleft","","[""materials/imgs/D106.png"",""materials/imgs/D37.png""]","false","validation","","",""
"","","","","","html-keyboard-response","354","497266","0.0-19.0-2.0-0.1","0p5xc0ucea","","0p5xc0ucea","""2024-11-12T18:09:57.668Z""","null","+","null","","","","","","",""
"","","","","","image-keyboard-response","355","498901","0.0-19.0-2.0-1.1","0p5xc0ucea","","0p5xc0ucea","""2024-11-12T18:09:57.668Z""","1633","materials/imgs/D64.png","arrowleft","","[""materials/imgs/D6.png"",""materials/imgs/D81.png""]","false","validation","","",""
"","","","","","html-keyboard-response","356","499403","0.0-19.0-0.1-0.7","0p5xc0ucea","","0p5xc0ucea","""2024-11-12T18:09:57.668Z""","null","+","null","","","","","","",""
"","","","","","image-keyboard-response","357","500562","0.0-19.0-0.1-1.7","0p5xc0ucea","","0p5xc0ucea","""2024-11-12T18:09:57.668Z""","1157","materials/imgs/D65.png","arrowright","","[""materials/imgs/D21.png"",""materials/imgs/D35.png""]","false","random","","",""
"","","","","","html-keyboard-response","358","501064","0.0-19.0-0.1-0.8","0p5xc0ucea","","0p5xc0ucea","""2024-11-12T18:09:57.668Z""","null","+","null","","","","","","",""
"","","","","","image-keyboard-response","359","501704","0.0-19.0-0.1-1.8","0p5xc0ucea","","0p5xc0ucea","""2024-11-12T18:09:57.668Z""","638","materials/imgs/D1.png","arrowleft","","[""materials/imgs/D95.png"",""materials/imgs/D16.png""]","false","random","","",""
"","","","","","html-keyboard-response","360","502206","0.0-19.0-0.1-0.9","0p5xc0ucea","","0p5xc0ucea","""2024-11-12T18:09:57.668Z""","null","+","null","","","","","","",""
"","","","","","image-keyboard-response","361","505970","0.0-19.0-0.1-1.9","0p5xc0ucea","","0p5xc0ucea","""2024-11-12T18:09:57.668Z""","3762","materials/imgs/D17.png","arrowleft","","[""materials/imgs/D80.png"",""materials/imgs/D94.png""]","false","random","","",""
"","","","","","html-keyboard-response","362","506471","0.0-19.0-0.1-0.10","0p5xc0ucea","","0p5xc0ucea","""2024-11-12T18:09:57.668Z""","null","+","null","","","","","","",""
"","","","","","image-keyboard-response","363","507335","0.0-19.0-0.1-1.10","0p5xc0ucea","","0p5xc0ucea","""2024-11-12T18:09:57.668Z""","863","materials/imgs/D14.png","arrowright","","[""materials/imgs/D102.png"",""materials/imgs/D36.png""]","false","random","","",""
"","","","","","html-keyboard-response","364","507836","0.0-19.0-0.1-0.11","0p5xc0ucea","","0p5xc0ucea","""2024-11-12T18:09:57.668Z""","null","+","null","","","","","","",""
"","","","","","image-keyboard-response","365","508773","0.0-19.0-0.1-1.11","0p5xc0ucea","","0p5xc0ucea","""2024-11-12T18:09:57.668Z""","934","materials/imgs/D106.png","arrowright","","[""materials/imgs/D55.png"",""materials/imgs/D49.png""]","false","random","","",""
"","","","","","html-keyboard-response","366","509274","0.0-19.0-0.1-0.12","0p5xc0ucea","","0p5xc0ucea","""2024-11-12T18:09:57.668Z""","null","+","null","","","","","","",""
"","","","","","image-keyboard-response","367","510136","0.0-19.0-0.1-1.12","0p5xc0ucea","","0p5xc0ucea","""2024-11-12T18:09:57.668Z""","858","materials/imgs/D4.png","arrowright","","[""materials/imgs/D22.png"",""materials/imgs/D11.png""]","false","random","","",""
"","","","","","html-keyboard-response","368","510638","0.0-19.0-0.1-0.13","0p5xc0ucea","","0p5xc0ucea","""2024-11-12T18:09:57.668Z""","null","+","null","","","","","","",""
"","","","","","image-keyboard-response","369","511838","0.0-19.0-0.1-1.13","0p5xc0ucea","","0p5xc0ucea","""2024-11-12T18:09:57.668Z""","1199","materials/imgs/D55.png","arrowright","","[""materials/imgs/D18.png"",""materials/imgs/D87.png""]","false","random","","",""
"","","","","","html-keyboard-response","370","512340","0.0-19.0-1.1-0.1","0p5xc0ucea","","0p5xc0ucea","""2024-11-12T18:09:57.668Z""","null","+","null","","","","","","",""
"","","","","","image-keyboard-response","371","513864","0.0-19.0-1.1-1.1","0p5xc0ucea","","0p5xc0ucea","""2024-11-12T18:09:57.668Z""","1522","materials/imgs/D78.png","arrowright","","[""materials/imgs/D76.png"",""materials/imgs/D78.png""]","","check","materials/imgs/D78.png","1","true"
"","","","","","html-keyboard-response","372","514366","0.0-19.0-2.1-0.2","0p5xc0ucea","","0p5xc0ucea","""2024-11-12T18:09:57.668Z""","null","+","null","","","","","","",""
"","","","","","image-keyboard-response","373","516965","0.0-19.0-2.1-1.2","0p5xc0ucea","","0p5xc0ucea","""2024-11-12T18:09:57.668Z""","2597","materials/imgs/D3.png","arrowleft","","[""materials/imgs/D79.png"",""materials/imgs/D48.png""]","false","validation","","",""
"","","","","","html-keyboard-response","374","517467","0.0-19.0-2.1-0.3","0p5xc0ucea","","0p5xc0ucea","""2024-11-12T18:09:57.668Z""","null","+","null","","","","","","",""
"","","","","","image-keyboard-response","375","518343","0.0-19.0-2.1-1.3","0p5xc0ucea","","0p5xc0ucea","""2024-11-12T18:09:57.668Z""","875","materials/imgs/D22.png","arrowleft","","[""materials/imgs/D4.png"",""materials/imgs/D25.png""]","false","validation","","",""
"","","","","","html-keyboard-response","376","518845","0.0-19.0-0.2-0.14","0p5xc0ucea","","0p5xc0ucea","""2024-11-12T18:09:57.668Z""","null","+","null","","","","","","",""
"","","","","","image-keyboard-response","377","521663","0.0-19.0-0.2-1.14","0p5xc0ucea","","0p5xc0ucea","""2024-11-12T18:09:57.668Z""","2816","materials/imgs/D48.png","arrowleft","","[""materials/imgs/D6.png"",""materials/imgs/D101.png""]","false","random","","",""
"","","","","","html-keyboard-response","378","522164","0.0-19.0-0.2-0.15","0p5xc0ucea","","0p5xc0ucea","""2024-11-12T18:09:57.668Z""","null","+","null","","","","","","",""
"","","","","","image-keyboard-response","379","522923","0.0-19.0-0.2-1.15","0p5xc0ucea","","0p5xc0ucea","""2024-11-12T18:09:57.668Z""","757","materials/imgs/D47.png","arrowleft","","[""materials/imgs/D85.png"",""materials/imgs/D56.png""]","false","random","","",""
"","","","","","html-keyboard-response","380","523425","0.0-19.0-0.2-0.16","0p5xc0ucea","","0p5xc0ucea","""2024-11-12T18:09:57.668Z""","null","+","null","","","","","","",""
"","","","","","image-keyboard-response","381","524575","0.0-19.0-0.2-1.16","0p5xc0ucea","","0p5xc0ucea","""2024-11-12T18:09:57.668Z""","1149","materials/imgs/D19.png","arrowleft","","[""materials/imgs/D4.png"",""materials/imgs/D103.png""]","false","random","","",""
"","","","","","html-keyboard-response","382","525077","0.0-19.0-0.2-0.17","0p5xc0ucea","","0p5xc0ucea","""2024-11-12T18:09:57.668Z""","null","+","null","","","","","","",""
"","","","","","image-keyboard-response","383","526929","0.0-19.0-0.2-1.17","0p5xc0ucea","","0p5xc0ucea","""2024-11-12T18:09:57.668Z""","1850","materials/imgs/D49.png","arrowright","","[""materials/imgs/D37.png"",""materials/imgs/D82.png""]","false","random","","",""
"","","","","","html-keyboard-response","384","527430","0.0-19.0-0.2-0.18","0p5xc0ucea","","0p5xc0ucea","""2024-11-12T18:09:57.668Z""","null","+","null","","","","","","",""
"","","","","","image-keyboard-response","385","528431","0.0-19.0-0.2-1.18","0p5xc0ucea","","0p5xc0ucea","""2024-11-12T18:09:57.668Z""","999","materials/imgs/D64.png","arrowleft","","[""materials/imgs/D26.png"",""materials/imgs/D80.png""]","false","random","","",""
"","","","","","html-keyboard-response","386","528932","0.0-19.0-0.2-0.19","0p5xc0ucea","","0p5xc0ucea","""2024-11-12T18:09:57.668Z""","null","+","null","","","","","","",""
"","","","","","image-keyboard-response","387","529721","0.0-19.0-0.2-1.19","0p5xc0ucea","","0p5xc0ucea","""2024-11-12T18:09:57.668Z""","787","materials/imgs/D11.png","arrowleft","","[""materials/imgs/D24.png"",""materials/imgs/D105.png""]","false","random","","",""
"","","","","","html-keyboard-response","388","530222","0.0-19.0-0.2-0.20","0p5xc0ucea","","0p5xc0ucea","""2024-11-12T18:09:57.668Z""","null","+","null","","","","","","",""
"","","","","","image-keyboard-response","389","532161","0.0-19.0-0.2-1.20","0p5xc0ucea","","0p5xc0ucea","""2024-11-12T18:09:57.668Z""","1938","materials/imgs/D80.png","arrowleft","","[""materials/imgs/D36.png"",""materials/imgs/D47.png""]","false","random","","",""
"","","","","","html-keyboard-response","390","532662","0.0-19.0-1.2-0.2","0p5xc0ucea","","0p5xc0ucea","""2024-11-12T18:09:57.668Z""","null","+","null","","","","","","",""
"","","","","","image-keyboard-response","391","537709","0.0-19.0-1.2-1.2","0p5xc0ucea","","0p5xc0ucea","""2024-11-12T18:09:57.668Z""","5045","materials/imgs/D64.png","arrowleft","","[""materials/imgs/D64.png"",""materials/imgs/D53.png""]","","check","materials/imgs/D64.png","0","true"
"","","","","","html-keyboard-response","392","538210","0.0-19.0-2.2-0.4","0p5xc0ucea","","0p5xc0ucea","""2024-11-12T18:09:57.668Z""","null","+","null","","","","","","",""
"","","","","","image-keyboard-response","393","540305","0.0-19.0-2.2-1.4","0p5xc0ucea","","0p5xc0ucea","""2024-11-12T18:09:57.668Z""","2093","materials/imgs/D81.png","arrowleft","","[""materials/imgs/D105.png"",""materials/imgs/D24.png""]","false","validation","","",""
"","","","","","html-keyboard-response","394","540806","0.0-19.0-2.2-0.5","0p5xc0ucea","","0p5xc0ucea","""2024-11-12T18:09:57.668Z""","null","+","null","","","","","","",""
"","","","","","image-keyboard-response","395","542872","0.0-19.0-2.2-1.5","0p5xc0ucea","","0p5xc0ucea","""2024-11-12T18:09:57.668Z""","2065","materials/imgs/D1.png","arrowright","","[""materials/imgs/D57.png"",""materials/imgs/D76.png""]","false","validation","","",""
"","","","","","html-keyboard-response","396","543374","0.0-19.0-0.3-0.21","0p5xc0ucea","","0p5xc0ucea","""2024-11-12T18:09:57.668Z""","null","+","null","","","","","","",""
"","","","","","image-keyboard-response","397","546804","0.0-19.0-0.3-1.21","0p5xc0ucea","","0p5xc0ucea","""2024-11-12T18:09:57.668Z""","3428","materials/imgs/D65.png","arrowleft","","[""materials/imgs/D1.png"",""materials/imgs/D6.png""]","false","random","","",""
"","","","","","html-keyboard-response","398","547306","0.0-19.0-0.3-0.22","0p5xc0ucea","","0p5xc0ucea","""2024-11-12T18:09:57.668Z""","null","+","null","","","","","","",""
"","","","","","image-keyboard-response","399","548533","0.0-19.0-0.3-1.22","0p5xc0ucea","","0p5xc0ucea","""2024-11-12T18:09:57.668Z""","1225","materials/imgs/D4.png","arrowright","","[""materials/imgs/D35.png"",""materials/imgs/D81.png""]","false","random","","",""
"","","","","","html-keyboard-response","400","549034","0.0-19.0-0.3-0.23","0p5xc0ucea","","0p5xc0ucea","""2024-11-12T18:09:57.668Z""","null","+","null","","","","","","",""
"","","","","","image-keyboard-response","401","553520","0.0-19.0-0.3-1.23","0p5xc0ucea","","0p5xc0ucea","""2024-11-12T18:09:57.668Z""","4484","materials/imgs/D18.png","arrowleft","","[""materials/imgs/D64.png"",""materials/imgs/D101.png""]","false","random","","",""
"","","","","","html-keyboard-response","402","554022","0.0-19.0-0.3-0.24","0p5xc0ucea","","0p5xc0ucea","""2024-11-12T18:09:57.668Z""","null","+","null","","","","","","",""
"","","","","","image-keyboard-response","403","561368","0.0-19.0-0.3-1.24","0p5xc0ucea","","0p5xc0ucea","""2024-11-12T18:09:57.668Z""","7345","materials/imgs/D16.png","arrowleft","","[""materials/imgs/D9.png"",""materials/imgs/D92.png""]","false","random","","",""
"","","","","","html-keyboard-response","404","561869","0.0-19.0-0.3-0.25","0p5xc0ucea","","0p5xc0ucea","""2024-11-12T18:09:57.668Z""","null","+","null","","","","","","",""
"","","","","","image-keyboard-response","405","562597","0.0-19.0-0.3-1.25","0p5xc0ucea","","0p5xc0ucea","""2024-11-12T18:09:57.668Z""","725","materials/imgs/D17.png","arrowleft","","[""materials/imgs/D49.png"",""materials/imgs/D101.png""]","false","random","","",""
"","","","","","html-keyboard-response","406","563098","0.0-19.0-0.3-0.26","0p5xc0ucea","","0p5xc0ucea","""2024-11-12T18:09:57.668Z""","null","+","null","","","","","","",""
"","","","","","image-keyboard-response","407","564014","0.0-19.0-0.3-1.26","0p5xc0ucea","","0p5xc0ucea","""2024-11-12T18:09:57.668Z""","914","materials/imgs/D84.png","arrowleft","","[""materials/imgs/D106.png"",""materials/imgs/D53.png""]","false","random","","",""
"","","","","","html-keyboard-response","408","564515","0.0-19.0-0.3-0.27","0p5xc0ucea","","0p5xc0ucea","""2024-11-12T18:09:57.668Z""","null","+","null","","","","","","",""
"","","","","","image-keyboard-response","409","573163","0.0-19.0-0.3-1.27","0p5xc0ucea","","0p5xc0ucea","""2024-11-12T18:09:57.668Z""","8645","materials/imgs/D83.png","arrowright","","[""materials/imgs/D74.png"",""materials/imgs/D35.png""]","false","random","","",""
"","","","","","html-keyboard-response","410","573664","0.0-19.0-1.3-0.3","0p5xc0ucea","","0p5xc0ucea","""2024-11-12T18:09:57.668Z""","null","+","null","","","","","","",""
"","","","","","image-keyboard-response","411","574591","0.0-19.0-1.3-1.3","0p5xc0ucea","","0p5xc0ucea","""2024-11-12T18:09:57.668Z""","925","materials/imgs/D26.png","arrowleft","","[""materials/imgs/D26.png"",""materials/imgs/D46.png""]","","check","materials/imgs/D26.png","0","true"
"","","","","","html-keyboard-response","412","575092","0.0-19.0-2.3-0.6","0p5xc0ucea","","0p5xc0ucea","""2024-11-12T18:09:57.668Z""","null","+","null","","","","","","",""
"","","","","","image-keyboard-response","413","583520","0.0-19.0-2.3-1.6","0p5xc0ucea","","0p5xc0ucea","""2024-11-12T18:09:57.668Z""","8427","materials/imgs/D111.png","arrowleft","","[""materials/imgs/D82.png"",""materials/imgs/D95.png""]","false","validation","","",""
"","","","","","html-keyboard-response","414","584022","0.0-19.0-2.3-0.7","0p5xc0ucea","","0p5xc0ucea","""2024-11-12T18:09:57.668Z""","null","+","null","","","","","","",""
"","","","","","image-keyboard-response","415","584963","0.0-19.0-2.3-1.7","0p5xc0ucea","","0p5xc0ucea","""2024-11-12T18:09:57.668Z""","939","materials/imgs/D92.png","arrowleft","","[""materials/imgs/D56.png"",""materials/imgs/D77.png""]","false","validation","","",""
"","","","","","html-keyboard-response","416","585464","0.0-19.0-0.4-0.28","0p5xc0ucea","","0p5xc0ucea","""2024-11-12T18:09:57.668Z""","null","+","null","","","","","","",""
"","","","","","image-keyboard-response","417","590363","0.0-19.0-0.4-1.28","0p5xc0ucea","","0p5xc0ucea","""2024-11-12T18:09:57.668Z""","4897","materials/imgs/D85.png","arrowleft","","[""materials/imgs/D22.png"",""materials/imgs/D16.png""]","false","random","","",""
"","","","","","html-keyboard-response","418","590865","0.0-19.0-0.4-0.29","0p5xc0ucea","","0p5xc0ucea","""2024-11-12T18:09:57.668Z""","null","+","null","","","","","","",""
"","","","","","image-keyboard-response","419","591847","0.0-19.0-0.4-1.29","0p5xc0ucea","","0p5xc0ucea","""2024-11-12T18:09:57.668Z""","980","materials/imgs/D51.png","arrowright","","[""materials/imgs/D17.png"",""materials/imgs/D56.png""]","false","random","","",""
"","","","","","html-keyboard-response","420","592349","0.0-19.0-0.4-0.30","0p5xc0ucea","","0p5xc0ucea","""2024-11-12T18:09:57.668Z""","null","+","null","","","","","","",""
"","","","","","image-keyboard-response","421","593786","0.0-19.0-0.4-1.30","0p5xc0ucea","","0p5xc0ucea","""2024-11-12T18:09:57.668Z""","1435","materials/imgs/D1.png","arrowleft","","[""materials/imgs/D81.png"",""materials/imgs/D20.png""]","false","random","","",""
"","","","","","html-keyboard-response","422","594287","0.0-19.0-0.4-0.31","0p5xc0ucea","","0p5xc0ucea","""2024-11-12T18:09:57.668Z""","null","+","null","","","","","","",""
"","","","","","image-keyboard-response","423","595298","0.0-19.0-0.4-1.31","0p5xc0ucea","","0p5xc0ucea","""2024-11-12T18:09:57.668Z""","1008","materials/imgs/D77.png","arrowleft","","[""materials/imgs/D4.png"",""materials/imgs/D87.png""]","false","random","","",""
"","","","","","html-keyboard-response","424","595798","0.0-19.0-0.4-0.32","0p5xc0ucea","","0p5xc0ucea","""2024-11-12T18:09:57.668Z""","null","+","null","","","","","","",""
"","","","","","image-keyboard-response","425","598259","0.0-19.0-0.4-1.32","0p5xc0ucea","","0p5xc0ucea","""2024-11-12T18:09:57.668Z""","2458","materials/imgs/D32.png","arrowright","","[""materials/imgs/D49.png"",""materials/imgs/D105.png""]","false","random","","",""
"","","","","","html-keyboard-response","426","598761","0.0-19.0-0.4-0.33","0p5xc0ucea","","0p5xc0ucea","""2024-11-12T18:09:57.668Z""","null","+","null","","","","","","",""
"","","","","","image-keyboard-response","427","599546","0.0-19.0-0.4-1.33","0p5xc0ucea","","0p5xc0ucea","""2024-11-12T18:09:57.668Z""","783","materials/imgs/D111.png","arrowleft","","[""materials/imgs/D51.png"",""materials/imgs/D106.png""]","false","random","","",""
"","","","","","html-keyboard-response","428","600047","0.0-19.0-0.4-0.34","0p5xc0ucea","","0p5xc0ucea","""2024-11-12T18:09:57.668Z""","null","+","null","","","","","","",""
"","","","","","image-keyboard-response","429","601129","0.0-19.0-0.4-1.34","0p5xc0ucea","","0p5xc0ucea","""2024-11-12T18:09:57.668Z""","1080","materials/imgs/D64.png","arrowleft","","[""materials/imgs/D80.png"",""materials/imgs/D3.png""]","false","random","","",""
"","","","","","html-keyboard-response","430","601630","0.0-19.0-1.4-0.4","0p5xc0ucea","","0p5xc0ucea","""2024-11-12T18:09:57.668Z""","null","+","null","","","","","","",""
"","","","","","image-keyboard-response","431","602241","0.0-19.0-1.4-1.4","0p5xc0ucea","","0p5xc0ucea","""2024-11-12T18:09:57.668Z""","609","materials/imgs/D106.png","arrowleft","","[""materials/imgs/D106.png"",""materials/imgs/D101.png""]","","check","materials/imgs/D106.png","0","true"
"","","","","","html-keyboard-response","432","602742","0.0-19.0-2.4-0.8","0p5xc0ucea","","0p5xc0ucea","""2024-11-12T18:09:57.668Z""","null","+","null","","","","","","",""
"","","","","","image-keyboard-response","433","603537","0.0-19.0-2.4-1.8","0p5xc0ucea","","0p5xc0ucea","""2024-11-12T18:09:57.668Z""","794","materials/imgs/D9.png","arrowright","","[""materials/imgs/D103.png"",""materials/imgs/D4.png""]","false","validation","","",""
"","","","","","html-keyboard-response","434","604038","0.0-19.0-2.4-0.9","0p5xc0ucea","","0p5xc0ucea","""2024-11-12T18:09:57.668Z""","null","+","null","","","","","","",""
"","","","","","image-keyboard-response","435","605399","0.0-19.0-2.4-1.9","0p5xc0ucea","","0p5xc0ucea","""2024-11-12T18:09:57.668Z""","1359","materials/imgs/D37.png","arrowright","","[""materials/imgs/D84.png"",""materials/imgs/D111.png""]","false","validation","","",""
