"success","timeout","failed_images","failed_audio","failed_video","trial_type","trial_index","time_elapsed","internal_node_id","subject_id","sona_id","subjectID","dateInfo","rt","stimulus","response","question_order","choices","speedy","sampleAlg","selected_image","selected_index","correct"
"true","false","[]","[]","[]","preload","0","687","0.0-0.0","12fobu06v4","","12fobu06v4","""2024-11-12T18:59:22.722Z""","","","","","","","","","",""
"true","","","","","fullscreen","1","5837","0.0-1.0","12fobu06v4","","12fobu06v4","""2024-11-12T18:59:22.722Z""","","","","","","","","","",""
"","","","","","html-keyboard-response","2","5849","0.0-2.0","12fobu06v4","","12fobu06v4","""2024-11-12T18:59:22.722Z""","null","","null","","","","","","",""
"","","","","","html-button-response","3","6701217","0.0-3.0","12fobu06v4","","12fobu06v4","""2024-11-12T18:59:22.722Z""","4736622","<div style='text-align:center; font-size:20px; line-height:25px; width: 1200px;'>
                Welcome to our experiment! <br>
                <br>At the bottom of this screen, you will see a button that says 'Begin Experiment.
                <br>Please only click that button when you are ready to complete the 25 minute experiment in one sitting. <br>
                <br> Once you click that button, it will not be possible to restart the experiment. <br><br>","0","","","","","","",""
"true","","","","","fullscreen","4","6704094","0.0-4.0","12fobu06v4","","12fobu06v4","""2024-11-12T18:59:22.722Z""","","","","","","","","","",""
"","","","","","survey-multi-select","5","6745442","0.0-5.0","12fobu06v4","","12fobu06v4","""2024-11-12T18:59:22.722Z""","41341","","{""Consent"":[""<strong>I consent</strong>""]}","[0]","","","","","",""
"","","","","","html-button-response","6","6750726","0.0-6.0","12fobu06v4","","12fobu06v4","""2024-11-12T18:59:22.722Z""","5280","Welcome! <p> This experiment involves two parts: demographic information, followed by the experimental task.<p> It will take about 25 minutes to complete both parts.","0","","","","","","",""
"","","","","","survey-text","7","6759179","0.0-7.0","12fobu06v4","","12fobu06v4","""2024-11-12T18:59:22.722Z""","8449","","{""Age"":""20"",""Gender"":""female"",""Race/ethnicity"":""asian""}","","","","","","",""
"","","","","","html-button-response","8","6776623","0.0-8.0","12fobu06v4","","12fobu06v4","""2024-11-12T18:59:22.722Z""","17442","<div style='text-align: center;'>
      <p>In each trial of this task, you will see three texture images: one target item on top, and two choices beneath the target item.</p>
      <p><strong>Please select the item that is most like the target item.</strong></p>
      <p>To select the option on the <strong>LEFT</strong>, press the <strong>LEFT ARROW</strong> key. 
      To select the option on the <strong>RIGHT</strong>, press the <strong>RIGHT ARROW</strong> key.</p>
                  <!-- Target Image at the Top -->
      <div style='margin: 20px;'>
        <img src='materials/imgs/instruction_images/InstructionImg1D78.png' alt='Target Image' style='width:200px; height:auto;' />
        <p><em>Target Image</em></p>
      </div>

      <!-- Two Choice Images Below -->
      <div style='display: flex; justify-content: center;'>
        <div style='margin-right: 50px;'>
          <img src='materials/imgs/instruction_images/InstructionImg2D34.png' alt='Choice Image 1' style='width:150px; height:auto;' />
          <p><em><strong>LEFT ARROW</strong></em></p>
        </div>
        <div style='margin-left: 50px;'>
          <img src='materials/imgs/instruction_images/InstructionImg3D80.png' alt='Choice Image 2' style='width:150px; height:auto;' />
          <p><em><strong>RIGHT ARROW</strong></em></p>
        </div>
      </div>
    </div>

      <p>When you are ready to proceed, please click 'Continue' to begin practice.</p>","0","","","","","","",""
"","","","","","html-keyboard-response","9","6779127","0.0-9.0","12fobu06v4","","12fobu06v4","""2024-11-12T18:59:22.722Z""","null","+","null","","","","","","",""
"","","","","","html-keyboard-response","10","6779629","0.0-10.0-0.0-0.0","12fobu06v4","","12fobu06v4","""2024-11-12T18:59:22.722Z""","null","+","null","","","","","","",""
"","","","","","image-keyboard-response","11","6783054","0.0-10.0-0.0-1.0","12fobu06v4","","12fobu06v4","""2024-11-12T18:59:22.722Z""","3421","materials/imgs/D26.png","arrowright","","[""materials/imgs/D111.png"",""materials/imgs/D79.png""]","false","random","","",""
"","","","","","html-keyboard-response","12","6783556","0.0-10.0-0.0-0.1","12fobu06v4","","12fobu06v4","""2024-11-12T18:59:22.722Z""","null","+","null","","","","","","",""
"","","","","","image-keyboard-response","13","6786026","0.0-10.0-0.0-1.1","12fobu06v4","","12fobu06v4","""2024-11-12T18:59:22.722Z""","2469","materials/imgs/D105.png","arrowleft","","[""materials/imgs/D102.png"",""materials/imgs/D74.png""]","false","random","","",""
"","","","","","html-keyboard-response","14","6786528","0.0-10.0-0.0-0.2","12fobu06v4","","12fobu06v4","""2024-11-12T18:59:22.722Z""","null","+","null","","","","","","",""
"","","","","","image-keyboard-response","15","6788190","0.0-10.0-0.0-1.2","12fobu06v4","","12fobu06v4","""2024-11-12T18:59:22.722Z""","1659","materials/imgs/D80.png","arrowleft","","[""materials/imgs/D47.png"",""materials/imgs/D74.png""]","false","random","","",""
"","","","","","html-keyboard-response","16","6788691","0.0-10.0-0.0-0.3","12fobu06v4","","12fobu06v4","""2024-11-12T18:59:22.722Z""","null","+","null","","","","","","",""
"","","","","","image-keyboard-response","17","6791279","0.0-10.0-0.0-1.3","12fobu06v4","","12fobu06v4","""2024-11-12T18:59:22.722Z""","2587","materials/imgs/D81.png","arrowright","","[""materials/imgs/D101.png"",""materials/imgs/D47.png""]","false","random","","",""
"","","","","","html-keyboard-response","18","6791781","0.0-10.0-0.0-0.4","12fobu06v4","","12fobu06v4","""2024-11-12T18:59:22.722Z""","null","+","null","","","","","","",""
"","","","","","image-keyboard-response","19","6792760","0.0-10.0-0.0-1.4","12fobu06v4","","12fobu06v4","""2024-11-12T18:59:22.722Z""","977","materials/imgs/D16.png","arrowright","","[""materials/imgs/D95.png"",""materials/imgs/D77.png""]","false","random","","",""
"","","","","","html-keyboard-response","20","6793262","0.0-10.0-0.0-0.5","12fobu06v4","","12fobu06v4","""2024-11-12T18:59:22.722Z""","null","+","null","","","","","","",""
"","","","","","image-keyboard-response","21","6800426","0.0-10.0-0.0-1.5","12fobu06v4","","12fobu06v4","""2024-11-12T18:59:22.722Z""","7162","materials/imgs/D25.png","arrowleft","","[""materials/imgs/D9.png"",""materials/imgs/D111.png""]","false","random","","",""
"","","","","","html-keyboard-response","22","6800927","0.0-10.0-0.0-0.6","12fobu06v4","","12fobu06v4","""2024-11-12T18:59:22.722Z""","null","+","null","","","","","","",""
"","","","","","image-keyboard-response","23","6804771","0.0-10.0-0.0-1.6","12fobu06v4","","12fobu06v4","""2024-11-12T18:59:22.722Z""","3842","materials/imgs/D26.png","arrowleft","","[""materials/imgs/D3.png"",""materials/imgs/D104.png""]","false","random","","",""
"","","","","","html-keyboard-response","24","6805272","0.0-10.0-0.0-0.7","12fobu06v4","","12fobu06v4","""2024-11-12T18:59:22.722Z""","null","+","null","","","","","","",""
"","","","","","image-keyboard-response","25","6809399","0.0-10.0-0.0-1.7","12fobu06v4","","12fobu06v4","""2024-11-12T18:59:22.722Z""","4125","materials/imgs/D47.png","arrowleft","","[""materials/imgs/D1.png"",""materials/imgs/D35.png""]","false","random","","",""
"","","","","","html-keyboard-response","26","6809900","0.0-10.0-0.0-0.8","12fobu06v4","","12fobu06v4","""2024-11-12T18:59:22.722Z""","null","+","null","","","","","","",""
"","","","","","image-keyboard-response","27","6813907","0.0-10.0-0.0-1.8","12fobu06v4","","12fobu06v4","""2024-11-12T18:59:22.722Z""","4004","materials/imgs/D51.png","arrowleft","","[""materials/imgs/D53.png"",""materials/imgs/D49.png""]","false","random","","",""
"","","","","","html-keyboard-response","28","6814408","0.0-10.0-0.0-0.9","12fobu06v4","","12fobu06v4","""2024-11-12T18:59:22.722Z""","null","+","null","","","","","","",""
"","","","","","image-keyboard-response","29","6815609","0.0-10.0-0.0-1.9","12fobu06v4","","12fobu06v4","""2024-11-12T18:59:22.722Z""","1199","materials/imgs/D55.png","arrowleft","","[""materials/imgs/D22.png"",""materials/imgs/D4.png""]","false","random","","",""
"","","","","","html-button-response","30","6822321","0.0-11.0","12fobu06v4","","12fobu06v4","""2024-11-12T18:59:22.722Z""","6710","<p>Great job!</p>
      <p>You are now ready to begin the experiment.</p>
      <p>There will be around 200 trials. You will have opportunities to take breaks at three stages of the trials.</p>
      <p>When you are ready to begin please click 'Continue'.</p>","0","","","","","","",""
"","","","","","html-keyboard-response","31","6824824","0.0-12.0","12fobu06v4","","12fobu06v4","""2024-11-12T18:59:22.722Z""","null","+","null","","","","","","",""
"","","","","","html-keyboard-response","32","6825326","0.0-13.0-0.0-0.0","12fobu06v4","","12fobu06v4","""2024-11-12T18:59:22.722Z""","null","+","null","","","","","","",""
"","","","","","image-keyboard-response","33","6826796","0.0-13.0-0.0-1.0","12fobu06v4","","12fobu06v4","""2024-11-12T18:59:22.722Z""","1467","materials/imgs/D48.png","arrowleft","","[""materials/imgs/D96.png"",""materials/imgs/D17.png""]","false","random","","",""
"","","","","","html-keyboard-response","34","6827298","0.0-13.0-0.0-0.1","12fobu06v4","","12fobu06v4","""2024-11-12T18:59:22.722Z""","null","+","null","","","","","","",""
"","","","","","image-keyboard-response","35","6828149","0.0-13.0-0.0-1.1","12fobu06v4","","12fobu06v4","""2024-11-12T18:59:22.722Z""","849","materials/imgs/D20.png","arrowright","","[""materials/imgs/D96.png"",""materials/imgs/D84.png""]","false","random","","",""
"","","","","","html-keyboard-response","36","6828650","0.0-13.0-0.0-0.2","12fobu06v4","","12fobu06v4","""2024-11-12T18:59:22.722Z""","null","+","null","","","","","","",""
"","","","","","image-keyboard-response","37","6829546","0.0-13.0-0.0-1.2","12fobu06v4","","12fobu06v4","""2024-11-12T18:59:22.722Z""","894","materials/imgs/D104.png","arrowleft","","[""materials/imgs/D101.png"",""materials/imgs/D96.png""]","false","random","","",""
"","","","","","html-keyboard-response","38","6830048","0.0-13.0-0.0-0.3","12fobu06v4","","12fobu06v4","""2024-11-12T18:59:22.722Z""","null","+","null","","","","","","",""
"","","","","","image-keyboard-response","39","6830952","0.0-13.0-0.0-1.3","12fobu06v4","","12fobu06v4","""2024-11-12T18:59:22.722Z""","902","materials/imgs/D105.png","arrowleft","","[""materials/imgs/D104.png"",""materials/imgs/D35.png""]","false","random","","",""
"","","","","","html-keyboard-response","40","6831453","0.0-13.0-0.0-0.4","12fobu06v4","","12fobu06v4","""2024-11-12T18:59:22.722Z""","null","+","null","","","","","","",""
"","","","","","image-keyboard-response","41","6833213","0.0-13.0-0.0-1.4","12fobu06v4","","12fobu06v4","""2024-11-12T18:59:22.722Z""","1759","materials/imgs/D26.png","arrowleft","","[""materials/imgs/D49.png"",""materials/imgs/D75.png""]","false","random","","",""
"","","","","","html-keyboard-response","42","6833714","0.0-13.0-0.0-0.5","12fobu06v4","","12fobu06v4","""2024-11-12T18:59:22.722Z""","null","+","null","","","","","","",""
"","","","","","image-keyboard-response","43","6834722","0.0-13.0-0.0-1.5","12fobu06v4","","12fobu06v4","""2024-11-12T18:59:22.722Z""","1006","materials/imgs/D4.png","arrowleft","","[""materials/imgs/D82.png"",""materials/imgs/D105.png""]","false","random","","",""
"","","","","","html-keyboard-response","44","6835223","0.0-13.0-0.0-0.6","12fobu06v4","","12fobu06v4","""2024-11-12T18:59:22.722Z""","null","+","null","","","","","","",""
"","","","","","image-keyboard-response","45","6836537","0.0-13.0-0.0-1.6","12fobu06v4","","12fobu06v4","""2024-11-12T18:59:22.722Z""","1312","materials/imgs/D102.png","arrowleft","","[""materials/imgs/D87.png"",""materials/imgs/D18.png""]","false","random","","",""
"","","","","","html-keyboard-response","46","6837039","0.0-13.0-1.0-0.0","12fobu06v4","","12fobu06v4","""2024-11-12T18:59:22.722Z""","null","+","null","","","","","","",""
"","","","","","image-keyboard-response","47","6837625","0.0-13.0-1.0-1.0","12fobu06v4","","12fobu06v4","""2024-11-12T18:59:22.722Z""","585","materials/imgs/D8.png","arrowright","","[""materials/imgs/D18.png"",""materials/imgs/D8.png""]","","check","materials/imgs/D8.png","1","true"
"","","","","","html-keyboard-response","48","6838126","0.0-13.0-2.0-0.0","12fobu06v4","","12fobu06v4","""2024-11-12T18:59:22.722Z""","null","+","null","","","","","","",""
"","","","","","image-keyboard-response","49","6838743","0.0-13.0-2.0-1.0","12fobu06v4","","12fobu06v4","""2024-11-12T18:59:22.722Z""","615","materials/imgs/D105.png","arrowleft","","[""materials/imgs/D106.png"",""materials/imgs/D52.png""]","false","validation","","",""
"","","","","","html-keyboard-response","50","6839245","0.0-13.0-2.0-0.1","12fobu06v4","","12fobu06v4","""2024-11-12T18:59:22.722Z""","null","+","null","","","","","","",""
"","","","","","image-keyboard-response","51","6840300","0.0-13.0-2.0-1.1","12fobu06v4","","12fobu06v4","""2024-11-12T18:59:22.722Z""","1055","materials/imgs/D96.png","arrowright","","[""materials/imgs/D46.png"",""materials/imgs/D18.png""]","false","validation","","",""
"","","","","","html-keyboard-response","52","6840802","0.0-13.0-0.1-0.7","12fobu06v4","","12fobu06v4","""2024-11-12T18:59:22.722Z""","null","+","null","","","","","","",""
"","","","","","image-keyboard-response","53","6841721","0.0-13.0-0.1-1.7","12fobu06v4","","12fobu06v4","""2024-11-12T18:59:22.722Z""","917","materials/imgs/D17.png","arrowright","","[""materials/imgs/D64.png"",""materials/imgs/D21.png""]","false","random","","",""
"","","","","","html-keyboard-response","54","6842222","0.0-13.0-0.1-0.8","12fobu06v4","","12fobu06v4","""2024-11-12T18:59:22.722Z""","null","+","null","","","","","","",""
"","","","","","image-keyboard-response","55","6843718","0.0-13.0-0.1-1.8","12fobu06v4","","12fobu06v4","""2024-11-12T18:59:22.722Z""","1494","materials/imgs/D14.png","arrowright","","[""materials/imgs/D47.png"",""materials/imgs/D24.png""]","false","random","","",""
"","","","","","html-keyboard-response","56","6844220","0.0-13.0-0.1-0.9","12fobu06v4","","12fobu06v4","""2024-11-12T18:59:22.722Z""","null","+","null","","","","","","",""
"","","","","","image-keyboard-response","57","6845685","0.0-13.0-0.1-1.9","12fobu06v4","","12fobu06v4","""2024-11-12T18:59:22.722Z""","1464","materials/imgs/D104.png","arrowleft","","[""materials/imgs/D17.png"",""materials/imgs/D37.png""]","false","random","","",""
"","","","","","html-keyboard-response","58","6846187","0.0-13.0-0.1-0.10","12fobu06v4","","12fobu06v4","""2024-11-12T18:59:22.722Z""","null","+","null","","","","","","",""
"","","","","","image-keyboard-response","59","6847389","0.0-13.0-0.1-1.10","12fobu06v4","","12fobu06v4","""2024-11-12T18:59:22.722Z""","1200","materials/imgs/D20.png","arrowleft","","[""materials/imgs/D87.png"",""materials/imgs/D74.png""]","false","random","","",""
"","","","","","html-keyboard-response","60","6847891","0.0-13.0-0.1-0.11","12fobu06v4","","12fobu06v4","""2024-11-12T18:59:22.722Z""","null","+","null","","","","","","",""
"","","","","","image-keyboard-response","61","6850315","0.0-13.0-0.1-1.11","12fobu06v4","","12fobu06v4","""2024-11-12T18:59:22.722Z""","2423","materials/imgs/D3.png","arrowright","","[""materials/imgs/D49.png"",""materials/imgs/D24.png""]","false","random","","",""
"","","","","","html-keyboard-response","62","6850817","0.0-13.0-0.1-0.12","12fobu06v4","","12fobu06v4","""2024-11-12T18:59:22.722Z""","null","+","null","","","","","","",""
"","","","","","image-keyboard-response","63","6852312","0.0-13.0-0.1-1.12","12fobu06v4","","12fobu06v4","""2024-11-12T18:59:22.722Z""","1493","materials/imgs/D49.png","arrowright","","[""materials/imgs/D87.png"",""materials/imgs/D84.png""]","false","random","","",""
"","","","","","html-keyboard-response","64","6852813","0.0-13.0-0.1-0.13","12fobu06v4","","12fobu06v4","""2024-11-12T18:59:22.722Z""","null","+","null","","","","","","",""
"","","","","","image-keyboard-response","65","6853448","0.0-13.0-0.1-1.13","12fobu06v4","","12fobu06v4","""2024-11-12T18:59:22.722Z""","633","materials/imgs/D53.png","arrowright","","[""materials/imgs/D76.png"",""materials/imgs/D52.png""]","false","random","","",""
"","","","","","html-keyboard-response","66","6853949","0.0-13.0-1.1-0.1","12fobu06v4","","12fobu06v4","""2024-11-12T18:59:22.722Z""","null","+","null","","","","","","",""
"","","","","","image-keyboard-response","67","6854450","0.0-13.0-1.1-1.1","12fobu06v4","","12fobu06v4","""2024-11-12T18:59:22.722Z""","499","materials/imgs/D64.png","arrowleft","","[""materials/imgs/D64.png"",""materials/imgs/D53.png""]","","check","materials/imgs/D64.png","0","true"
"","","","","","html-keyboard-response","68","6854951","0.0-13.0-2.1-0.2","12fobu06v4","","12fobu06v4","""2024-11-12T18:59:22.722Z""","null","+","null","","","","","","",""
"","","","","","image-keyboard-response","69","6856171","0.0-13.0-2.1-1.2","12fobu06v4","","12fobu06v4","""2024-11-12T18:59:22.722Z""","1218","materials/imgs/D92.png","arrowright","","[""materials/imgs/D56.png"",""materials/imgs/D77.png""]","false","validation","","",""
"","","","","","html-keyboard-response","70","6856672","0.0-13.0-2.1-0.3","12fobu06v4","","12fobu06v4","""2024-11-12T18:59:22.722Z""","null","+","null","","","","","","",""
"","","","","","image-keyboard-response","71","6857603","0.0-13.0-2.1-1.3","12fobu06v4","","12fobu06v4","""2024-11-12T18:59:22.722Z""","930","materials/imgs/D111.png","arrowleft","","[""materials/imgs/D82.png"",""materials/imgs/D95.png""]","false","validation","","",""
"","","","","","html-keyboard-response","72","6858104","0.0-13.0-0.2-0.14","12fobu06v4","","12fobu06v4","""2024-11-12T18:59:22.722Z""","null","+","null","","","","","","",""
"","","","","","image-keyboard-response","73","6859129","0.0-13.0-0.2-1.14","12fobu06v4","","12fobu06v4","""2024-11-12T18:59:22.722Z""","1023","materials/imgs/D37.png","arrowleft","","[""materials/imgs/D104.png"",""materials/imgs/D55.png""]","false","random","","",""
"","","","","","html-keyboard-response","74","6859630","0.0-13.0-0.2-0.15","12fobu06v4","","12fobu06v4","""2024-11-12T18:59:22.722Z""","null","+","null","","","","","","",""
"","","","","","image-keyboard-response","75","6863966","0.0-13.0-0.2-1.15","12fobu06v4","","12fobu06v4","""2024-11-12T18:59:22.722Z""","4334","materials/imgs/D26.png","arrowright","","[""materials/imgs/D78.png"",""materials/imgs/D37.png""]","false","random","","",""
"","","","","","html-keyboard-response","76","6864468","0.0-13.0-0.2-0.16","12fobu06v4","","12fobu06v4","""2024-11-12T18:59:22.722Z""","null","+","null","","","","","","",""
"","","","","","image-keyboard-response","77","6865901","0.0-13.0-0.2-1.16","12fobu06v4","","12fobu06v4","""2024-11-12T18:59:22.722Z""","1432","materials/imgs/D64.png","arrowleft","","[""materials/imgs/D37.png"",""materials/imgs/D57.png""]","false","random","","",""
"","","","","","html-keyboard-response","78","6866402","0.0-13.0-0.2-0.17","12fobu06v4","","12fobu06v4","""2024-11-12T18:59:22.722Z""","null","+","null","","","","","","",""
"","","","","","image-keyboard-response","79","6867293","0.0-13.0-0.2-1.17","12fobu06v4","","12fobu06v4","""2024-11-12T18:59:22.722Z""","890","materials/imgs/D48.png","arrowright","","[""materials/imgs/D85.png"",""materials/imgs/D64.png""]","false","random","","",""
"","","","","","html-keyboard-response","80","6867794","0.0-13.0-0.2-0.18","12fobu06v4","","12fobu06v4","""2024-11-12T18:59:22.722Z""","null","+","null","","","","","","",""
"","","","","","image-keyboard-response","81","6869347","0.0-13.0-0.2-1.18","12fobu06v4","","12fobu06v4","""2024-11-12T18:59:22.722Z""","1551","materials/imgs/D79.png","arrowright","","[""materials/imgs/D37.png"",""materials/imgs/D64.png""]","false","random","","",""
"","","","","","html-keyboard-response","82","6869848","0.0-13.0-0.2-0.19","12fobu06v4","","12fobu06v4","""2024-11-12T18:59:22.722Z""","null","+","null","","","","","","",""
"","","","","","image-keyboard-response","83","6872868","0.0-13.0-0.2-1.19","12fobu06v4","","12fobu06v4","""2024-11-12T18:59:22.722Z""","3018","materials/imgs/D17.png","arrowleft","","[""materials/imgs/D21.png"",""materials/imgs/D104.png""]","false","random","","",""
"","","","","","html-keyboard-response","84","6873369","0.0-13.0-0.2-0.20","12fobu06v4","","12fobu06v4","""2024-11-12T18:59:22.722Z""","null","+","null","","","","","","",""
"","","","","","image-keyboard-response","85","6875940","0.0-13.0-0.2-1.20","12fobu06v4","","12fobu06v4","""2024-11-12T18:59:22.722Z""","2570","materials/imgs/D84.png","arrowright","","[""materials/imgs/D49.png"",""materials/imgs/D75.png""]","false","random","","",""
"","","","","","html-keyboard-response","86","6876441","0.0-13.0-1.2-0.2","12fobu06v4","","12fobu06v4","""2024-11-12T18:59:22.722Z""","null","+","null","","","","","","",""
"","","","","","image-keyboard-response","87","6877021","0.0-13.0-1.2-1.2","12fobu06v4","","12fobu06v4","""2024-11-12T18:59:22.722Z""","578","materials/imgs/D53.png","arrowright","","[""materials/imgs/D64.png"",""materials/imgs/D53.png""]","","check","materials/imgs/D53.png","1","true"
"","","","","","html-keyboard-response","88","6877523","0.0-13.0-2.2-0.4","12fobu06v4","","12fobu06v4","""2024-11-12T18:59:22.722Z""","null","+","null","","","","","","",""
"","","","","","image-keyboard-response","89","6881972","0.0-13.0-2.2-1.4","12fobu06v4","","12fobu06v4","""2024-11-12T18:59:22.722Z""","4449","materials/imgs/D83.png","arrowright","","[""materials/imgs/D24.png"",""materials/imgs/D8.png""]","false","validation","","",""
"","","","","","html-keyboard-response","90","6882473","0.0-13.0-2.2-0.5","12fobu06v4","","12fobu06v4","""2024-11-12T18:59:22.722Z""","null","+","null","","","","","","",""
"","","","","","image-keyboard-response","91","6883726","0.0-13.0-2.2-1.5","12fobu06v4","","12fobu06v4","""2024-11-12T18:59:22.722Z""","1252","materials/imgs/D81.png","arrowright","","[""materials/imgs/D105.png"",""materials/imgs/D24.png""]","false","validation","","",""
"","","","","","html-keyboard-response","92","6884227","0.0-13.0-0.3-0.21","12fobu06v4","","12fobu06v4","""2024-11-12T18:59:22.722Z""","null","+","null","","","","","","",""
"","","","","","image-keyboard-response","93","6885886","0.0-13.0-0.3-1.21","12fobu06v4","","12fobu06v4","""2024-11-12T18:59:22.722Z""","1658","materials/imgs/D32.png","arrowleft","","[""materials/imgs/D87.png"",""materials/imgs/D96.png""]","false","random","","",""
"","","","","","html-keyboard-response","94","6886387","0.0-13.0-0.3-0.22","12fobu06v4","","12fobu06v4","""2024-11-12T18:59:22.722Z""","null","+","null","","","","","","",""
"","","","","","image-keyboard-response","95","6887513","0.0-13.0-0.3-1.22","12fobu06v4","","12fobu06v4","""2024-11-12T18:59:22.722Z""","1123","materials/imgs/D24.png","arrowright","","[""materials/imgs/D96.png"",""materials/imgs/D102.png""]","false","random","","",""
"","","","","","html-keyboard-response","96","6888014","0.0-13.0-0.3-0.23","12fobu06v4","","12fobu06v4","""2024-11-12T18:59:22.722Z""","null","+","null","","","","","","",""
"","","","","","image-keyboard-response","97","6889001","0.0-13.0-0.3-1.23","12fobu06v4","","12fobu06v4","""2024-11-12T18:59:22.722Z""","985","materials/imgs/D94.png","arrowright","","[""materials/imgs/D4.png"",""materials/imgs/D46.png""]","false","random","","",""
"","","","","","html-keyboard-response","98","6889502","0.0-13.0-0.3-0.24","12fobu06v4","","12fobu06v4","""2024-11-12T18:59:22.722Z""","null","+","null","","","","","","",""
"","","","","","image-keyboard-response","99","6890259","0.0-13.0-0.3-1.24","12fobu06v4","","12fobu06v4","""2024-11-12T18:59:22.722Z""","757","materials/imgs/D16.png","arrowright","","[""materials/imgs/D83.png"",""materials/imgs/D52.png""]","false","random","","",""
"","","","","","html-keyboard-response","100","6890760","0.0-13.0-0.3-0.25","12fobu06v4","","12fobu06v4","""2024-11-12T18:59:22.722Z""","null","+","null","","","","","","",""
"","","","","","image-keyboard-response","101","6892525","0.0-13.0-0.3-1.25","12fobu06v4","","12fobu06v4","""2024-11-12T18:59:22.722Z""","1763","materials/imgs/D20.png","arrowright","","[""materials/imgs/D19.png"",""materials/imgs/D74.png""]","false","random","","",""
"","","","","","html-keyboard-response","102","6893026","0.0-13.0-0.3-0.26","12fobu06v4","","12fobu06v4","""2024-11-12T18:59:22.722Z""","null","+","null","","","","","","",""
"","","","","","image-keyboard-response","103","6894073","0.0-13.0-0.3-1.26","12fobu06v4","","12fobu06v4","""2024-11-12T18:59:22.722Z""","1045","materials/imgs/D18.png","arrowright","","[""materials/imgs/D9.png"",""materials/imgs/D8.png""]","false","random","","",""
"","","","","","html-keyboard-response","104","6894575","0.0-13.0-0.3-0.27","12fobu06v4","","12fobu06v4","""2024-11-12T18:59:22.722Z""","null","+","null","","","","","","",""
"","","","","","image-keyboard-response","105","6895367","0.0-13.0-0.3-1.27","12fobu06v4","","12fobu06v4","""2024-11-12T18:59:22.722Z""","791","materials/imgs/D55.png","arrowleft","","[""materials/imgs/D57.png"",""materials/imgs/D64.png""]","false","random","","",""
"","","","","","html-keyboard-response","106","6895869","0.0-13.0-1.3-0.3","12fobu06v4","","12fobu06v4","""2024-11-12T18:59:22.722Z""","null","+","null","","","","","","",""
"","","","","","image-keyboard-response","107","6896399","0.0-13.0-1.3-1.3","12fobu06v4","","12fobu06v4","""2024-11-12T18:59:22.722Z""","529","materials/imgs/D101.png","arrowright","","[""materials/imgs/D106.png"",""materials/imgs/D101.png""]","","check","materials/imgs/D101.png","1","true"
"","","","","","html-keyboard-response","108","6896900","0.0-13.0-2.3-0.6","12fobu06v4","","12fobu06v4","""2024-11-12T18:59:22.722Z""","null","+","null","","","","","","",""
"","","","","","image-keyboard-response","109","6898015","0.0-13.0-2.3-1.6","12fobu06v4","","12fobu06v4","""2024-11-12T18:59:22.722Z""","1114","materials/imgs/D6.png","arrowright","","[""materials/imgs/D26.png"",""materials/imgs/D76.png""]","false","validation","","",""
"","","","","","html-keyboard-response","110","6898517","0.0-13.0-2.3-0.7","12fobu06v4","","12fobu06v4","""2024-11-12T18:59:22.722Z""","null","+","null","","","","","","",""
"","","","","","image-keyboard-response","111","6899830","0.0-13.0-2.3-1.7","12fobu06v4","","12fobu06v4","""2024-11-12T18:59:22.722Z""","1312","materials/imgs/D49.png","arrowright","","[""materials/imgs/D8.png"",""materials/imgs/D101.png""]","false","validation","","",""
"","","","","","html-keyboard-response","112","6900331","0.0-13.0-0.4-0.28","12fobu06v4","","12fobu06v4","""2024-11-12T18:59:22.722Z""","null","+","null","","","","","","",""
"","","","","","image-keyboard-response","113","6901064","0.0-13.0-0.4-1.28","12fobu06v4","","12fobu06v4","""2024-11-12T18:59:22.722Z""","731","materials/imgs/D82.png","arrowright","","[""materials/imgs/D26.png"",""materials/imgs/D11.png""]","false","random","","",""
"","","","","","html-keyboard-response","114","6901565","0.0-13.0-0.4-0.29","12fobu06v4","","12fobu06v4","""2024-11-12T18:59:22.722Z""","null","+","null","","","","","","",""
"","","","","","image-keyboard-response","115","6902143","0.0-13.0-0.4-1.29","12fobu06v4","","12fobu06v4","""2024-11-12T18:59:22.722Z""","577","materials/imgs/D111.png","arrowleft","","[""materials/imgs/D92.png"",""materials/imgs/D25.png""]","false","random","","",""
"","","","","","html-keyboard-response","116","6902644","0.0-13.0-0.4-0.30","12fobu06v4","","12fobu06v4","""2024-11-12T18:59:22.722Z""","null","+","null","","","","","","",""
"","","","","","image-keyboard-response","117","6904115","0.0-13.0-0.4-1.30","12fobu06v4","","12fobu06v4","""2024-11-12T18:59:22.722Z""","1470","materials/imgs/D16.png","arrowright","","[""materials/imgs/D101.png"",""materials/imgs/D95.png""]","false","random","","",""
"","","","","","html-keyboard-response","118","6904617","0.0-13.0-0.4-0.31","12fobu06v4","","12fobu06v4","""2024-11-12T18:59:22.722Z""","null","+","null","","","","","","",""
"","","","","","image-keyboard-response","119","6906479","0.0-13.0-0.4-1.31","12fobu06v4","","12fobu06v4","""2024-11-12T18:59:22.722Z""","1861","materials/imgs/D3.png","arrowleft","","[""materials/imgs/D35.png"",""materials/imgs/D14.png""]","false","random","","",""
"","","","","","html-keyboard-response","120","6906981","0.0-13.0-0.4-0.32","12fobu06v4","","12fobu06v4","""2024-11-12T18:59:22.722Z""","null","+","null","","","","","","",""
"","","","","","image-keyboard-response","121","6907912","0.0-13.0-0.4-1.32","12fobu06v4","","12fobu06v4","""2024-11-12T18:59:22.722Z""","930","materials/imgs/D9.png","arrowright","","[""materials/imgs/D18.png"",""materials/imgs/D76.png""]","false","random","","",""
"","","","","","html-keyboard-response","122","6908413","0.0-13.0-0.4-0.33","12fobu06v4","","12fobu06v4","""2024-11-12T18:59:22.722Z""","null","+","null","","","","","","",""
"","","","","","image-keyboard-response","123","6909583","0.0-13.0-0.4-1.33","12fobu06v4","","12fobu06v4","""2024-11-12T18:59:22.722Z""","1168","materials/imgs/D36.png","arrowright","","[""materials/imgs/D49.png"",""materials/imgs/D51.png""]","false","random","","",""
"","","","","","html-keyboard-response","124","6910084","0.0-13.0-0.4-0.34","12fobu06v4","","12fobu06v4","""2024-11-12T18:59:22.722Z""","null","+","null","","","","","","",""
"","","","","","image-keyboard-response","125","6911418","0.0-13.0-0.4-1.34","12fobu06v4","","12fobu06v4","""2024-11-12T18:59:22.722Z""","1333","materials/imgs/D25.png","arrowright","","[""materials/imgs/D14.png"",""materials/imgs/D20.png""]","false","random","","",""
"","","","","","html-keyboard-response","126","6911920","0.0-13.0-1.4-0.4","12fobu06v4","","12fobu06v4","""2024-11-12T18:59:22.722Z""","null","+","null","","","","","","",""
"","","","","","image-keyboard-response","127","6912476","0.0-13.0-1.4-1.4","12fobu06v4","","12fobu06v4","""2024-11-12T18:59:22.722Z""","556","materials/imgs/D46.png","arrowleft","","[""materials/imgs/D46.png"",""materials/imgs/D26.png""]","","check","materials/imgs/D46.png","0","true"
"","","","","","html-keyboard-response","128","6912978","0.0-13.0-2.4-0.8","12fobu06v4","","12fobu06v4","""2024-11-12T18:59:22.722Z""","null","+","null","","","","","","",""
"","","","","","image-keyboard-response","129","6913514","0.0-13.0-2.4-1.8","12fobu06v4","","12fobu06v4","""2024-11-12T18:59:22.722Z""","535","materials/imgs/D57.png","arrowright","","[""materials/imgs/D111.png"",""materials/imgs/D4.png""]","false","validation","","",""
"","","","","","html-keyboard-response","130","6914016","0.0-13.0-2.4-0.9","12fobu06v4","","12fobu06v4","""2024-11-12T18:59:22.722Z""","null","+","null","","","","","","",""
"","","","","","image-keyboard-response","131","6914979","0.0-13.0-2.4-1.9","12fobu06v4","","12fobu06v4","""2024-11-12T18:59:22.722Z""","961","materials/imgs/D101.png","arrowright","","[""materials/imgs/D76.png"",""materials/imgs/D47.png""]","false","validation","","",""
"","","","","","html-button-response","132","6916937","0.0-14.0","12fobu06v4","","12fobu06v4","""2024-11-12T18:59:22.722Z""","1957","You have completed 25% of the trials. Please click 'Continue' when you are ready proceed.","0","","","","","","",""
"","","","","","html-keyboard-response","133","6917438","0.0-15.0-0.0-0.0","12fobu06v4","","12fobu06v4","""2024-11-12T18:59:22.722Z""","null","+","null","","","","","","",""
"","","","","","image-keyboard-response","134","6920441","0.0-15.0-0.0-1.0","12fobu06v4","","12fobu06v4","""2024-11-12T18:59:22.722Z""","3002","materials/imgs/D49.png","arrowright","","[""materials/imgs/D3.png"",""materials/imgs/D76.png""]","false","random","","",""
"","","","","","html-keyboard-response","135","6920942","0.0-15.0-0.0-0.1","12fobu06v4","","12fobu06v4","""2024-11-12T18:59:22.722Z""","null","+","null","","","","","","",""
"","","","","","image-keyboard-response","136","6922443","0.0-15.0-0.0-1.1","12fobu06v4","","12fobu06v4","""2024-11-12T18:59:22.722Z""","1499","materials/imgs/D51.png","arrowleft","","[""materials/imgs/D65.png"",""materials/imgs/D4.png""]","false","random","","",""
"","","","","","html-keyboard-response","137","6922944","0.0-15.0-0.0-0.2","12fobu06v4","","12fobu06v4","""2024-11-12T18:59:22.722Z""","null","+","null","","","","","","",""
"","","","","","image-keyboard-response","138","6925993","0.0-15.0-0.0-1.2","12fobu06v4","","12fobu06v4","""2024-11-12T18:59:22.722Z""","3047","materials/imgs/D18.png","arrowright","","[""materials/imgs/D96.png"",""materials/imgs/D101.png""]","false","random","","",""
"","","","","","html-keyboard-response","139","6926494","0.0-15.0-0.0-0.3","12fobu06v4","","12fobu06v4","""2024-11-12T18:59:22.722Z""","null","+","null","","","","","","",""
"","","","","","image-keyboard-response","140","6927306","0.0-15.0-0.0-1.3","12fobu06v4","","12fobu06v4","""2024-11-12T18:59:22.722Z""","811","materials/imgs/D16.png","arrowleft","","[""materials/imgs/D57.png"",""materials/imgs/D8.png""]","false","random","","",""
"","","","","","html-keyboard-response","141","6927808","0.0-15.0-0.0-0.4","12fobu06v4","","12fobu06v4","""2024-11-12T18:59:22.722Z""","null","+","null","","","","","","",""
"","","","","","image-keyboard-response","142","6930560","0.0-15.0-0.0-1.4","12fobu06v4","","12fobu06v4","""2024-11-12T18:59:22.722Z""","2751","materials/imgs/D25.png","arrowright","","[""materials/imgs/D46.png"",""materials/imgs/D56.png""]","false","random","","",""
"","","","","","html-keyboard-response","143","6931061","0.0-15.0-0.0-0.5","12fobu06v4","","12fobu06v4","""2024-11-12T18:59:22.722Z""","null","+","null","","","","","","",""
"","","","","","image-keyboard-response","144","6931782","0.0-15.0-0.0-1.5","12fobu06v4","","12fobu06v4","""2024-11-12T18:59:22.722Z""","719","materials/imgs/D32.png","arrowleft","","[""materials/imgs/D82.png"",""materials/imgs/D56.png""]","false","random","","",""
"","","","","","html-keyboard-response","145","6932283","0.0-15.0-0.0-0.6","12fobu06v4","","12fobu06v4","""2024-11-12T18:59:22.722Z""","null","+","null","","","","","","",""
"","","","","","image-keyboard-response","146","6933216","0.0-15.0-0.0-1.6","12fobu06v4","","12fobu06v4","""2024-11-12T18:59:22.722Z""","932","materials/imgs/D35.png","arrowleft","","[""materials/imgs/D36.png"",""materials/imgs/D85.png""]","false","random","","",""
"","","","","","html-keyboard-response","147","6933717","0.0-15.0-1.0-0.0","12fobu06v4","","12fobu06v4","""2024-11-12T18:59:22.722Z""","null","+","null","","","","","","",""
"","","","","","image-keyboard-response","148","6934352","0.0-15.0-1.0-1.0","12fobu06v4","","12fobu06v4","""2024-11-12T18:59:22.722Z""","633","materials/imgs/D46.png","arrowleft","","[""materials/imgs/D46.png"",""materials/imgs/D26.png""]","","check","materials/imgs/D46.png","0","true"
"","","","","","html-keyboard-response","149","6934853","0.0-15.0-2.0-0.0","12fobu06v4","","12fobu06v4","""2024-11-12T18:59:22.722Z""","null","+","null","","","","","","",""
"","","","","","image-keyboard-response","150","6938911","0.0-15.0-2.0-1.0","12fobu06v4","","12fobu06v4","""2024-11-12T18:59:22.722Z""","4057","materials/imgs/D25.png","arrowright","","[""materials/imgs/D103.png"",""materials/imgs/D64.png""]","false","validation","","",""
"","","","","","html-keyboard-response","151","6939412","0.0-15.0-2.0-0.1","12fobu06v4","","12fobu06v4","""2024-11-12T18:59:22.722Z""","null","+","null","","","","","","",""
"","","","","","image-keyboard-response","152","6941360","0.0-15.0-2.0-1.1","12fobu06v4","","12fobu06v4","""2024-11-12T18:59:22.722Z""","1946","materials/imgs/D103.png","arrowleft","","[""materials/imgs/D76.png"",""materials/imgs/D106.png""]","false","validation","","",""
"","","","","","html-keyboard-response","153","6941862","0.0-15.0-0.1-0.7","12fobu06v4","","12fobu06v4","""2024-11-12T18:59:22.722Z""","null","+","null","","","","","","",""
"","","","","","image-keyboard-response","154","6943705","0.0-15.0-0.1-1.7","12fobu06v4","","12fobu06v4","""2024-11-12T18:59:22.722Z""","1842","materials/imgs/D16.png","arrowright","","[""materials/imgs/D66.png"",""materials/imgs/D8.png""]","false","random","","",""
"","","","","","html-keyboard-response","155","6944207","0.0-15.0-0.1-0.8","12fobu06v4","","12fobu06v4","""2024-11-12T18:59:22.722Z""","null","+","null","","","","","","",""
"","","","","","image-keyboard-response","156","6944828","0.0-15.0-0.1-1.8","12fobu06v4","","12fobu06v4","""2024-11-12T18:59:22.722Z""","619","materials/imgs/D55.png","arrowright","","[""materials/imgs/D46.png"",""materials/imgs/D49.png""]","false","random","","",""
"","","","","","html-keyboard-response","157","6945329","0.0-15.0-0.1-0.9","12fobu06v4","","12fobu06v4","""2024-11-12T18:59:22.722Z""","null","+","null","","","","","","",""
"","","","","","image-keyboard-response","158","6945939","0.0-15.0-0.1-1.9","12fobu06v4","","12fobu06v4","""2024-11-12T18:59:22.722Z""","609","materials/imgs/D4.png","arrowleft","","[""materials/imgs/D103.png"",""materials/imgs/D49.png""]","false","random","","",""
"","","","","","html-keyboard-response","159","6946440","0.0-15.0-0.1-0.10","12fobu06v4","","12fobu06v4","""2024-11-12T18:59:22.722Z""","null","+","null","","","","","","",""
"","","","","","image-keyboard-response","160","6947872","0.0-15.0-0.1-1.10","12fobu06v4","","12fobu06v4","""2024-11-12T18:59:22.722Z""","1430","materials/imgs/D37.png","arrowright","","[""materials/imgs/D79.png"",""materials/imgs/D49.png""]","false","random","","",""
"","","","","","html-keyboard-response","161","6948374","0.0-15.0-0.1-0.11","12fobu06v4","","12fobu06v4","""2024-11-12T18:59:22.722Z""","null","+","null","","","","","","",""
"","","","","","image-keyboard-response","162","6949296","0.0-15.0-0.1-1.11","12fobu06v4","","12fobu06v4","""2024-11-12T18:59:22.722Z""","920","materials/imgs/D81.png","arrowright","","[""materials/imgs/D1.png"",""materials/imgs/D103.png""]","false","random","","",""
"","","","","","html-keyboard-response","163","6949797","0.0-15.0-0.1-0.12","12fobu06v4","","12fobu06v4","""2024-11-12T18:59:22.722Z""","null","+","null","","","","","","",""
"","","","","","image-keyboard-response","164","6957916","0.0-15.0-0.1-1.12","12fobu06v4","","12fobu06v4","""2024-11-12T18:59:22.722Z""","8118","materials/imgs/D64.png","arrowright","","[""materials/imgs/D79.png"",""materials/imgs/D82.png""]","false","random","","",""
"","","","","","html-keyboard-response","165","6958417","0.0-15.0-0.1-0.13","12fobu06v4","","12fobu06v4","""2024-11-12T18:59:22.722Z""","null","+","null","","","","","","",""
"","","","","","image-keyboard-response","166","6959068","0.0-15.0-0.1-1.13","12fobu06v4","","12fobu06v4","""2024-11-12T18:59:22.722Z""","649","materials/imgs/D16.png","arrowleft","","[""materials/imgs/D53.png"",""materials/imgs/D95.png""]","false","random","","",""
"","","","","","html-keyboard-response","167","6959569","0.0-15.0-1.1-0.1","12fobu06v4","","12fobu06v4","""2024-11-12T18:59:22.722Z""","null","+","null","","","","","","",""
"","","","","","image-keyboard-response","168","6960106","0.0-15.0-1.1-1.1","12fobu06v4","","12fobu06v4","""2024-11-12T18:59:22.722Z""","536","materials/imgs/D18.png","arrowright","","[""materials/imgs/D8.png"",""materials/imgs/D18.png""]","","check","materials/imgs/D18.png","1","true"
"","","","","","html-keyboard-response","169","6960608","0.0-15.0-2.1-0.2","12fobu06v4","","12fobu06v4","""2024-11-12T18:59:22.722Z""","null","+","null","","","","","","",""
"","","","","","image-keyboard-response","170","6962057","0.0-15.0-2.1-1.2","12fobu06v4","","12fobu06v4","""2024-11-12T18:59:22.722Z""","1448","materials/imgs/D92.png","arrowright","","[""materials/imgs/D56.png"",""materials/imgs/D77.png""]","false","validation","","",""
"","","","","","html-keyboard-response","171","6962558","0.0-15.0-2.1-0.3","12fobu06v4","","12fobu06v4","""2024-11-12T18:59:22.722Z""","null","+","null","","","","","","",""
"","","","","","image-keyboard-response","172","6963107","0.0-15.0-2.1-1.3","12fobu06v4","","12fobu06v4","""2024-11-12T18:59:22.722Z""","547","materials/imgs/D53.png","arrowleft","","[""materials/imgs/D77.png"",""materials/imgs/D75.png""]","false","validation","","",""
"","","","","","html-keyboard-response","173","6963608","0.0-15.0-0.2-0.14","12fobu06v4","","12fobu06v4","""2024-11-12T18:59:22.722Z""","null","+","null","","","","","","",""
"","","","","","image-keyboard-response","174","6965772","0.0-15.0-0.2-1.14","12fobu06v4","","12fobu06v4","""2024-11-12T18:59:22.722Z""","2163","materials/imgs/D36.png","arrowright","","[""materials/imgs/D14.png"",""materials/imgs/D92.png""]","false","random","","",""
"","","","","","html-keyboard-response","175","6966274","0.0-15.0-0.2-0.15","12fobu06v4","","12fobu06v4","""2024-11-12T18:59:22.722Z""","null","+","null","","","","","","",""
"","","","","","image-keyboard-response","176","6967065","0.0-15.0-0.2-1.15","12fobu06v4","","12fobu06v4","""2024-11-12T18:59:22.722Z""","789","materials/imgs/D80.png","arrowright","","[""materials/imgs/D21.png"",""materials/imgs/D81.png""]","false","random","","",""
"","","","","","html-keyboard-response","177","6967566","0.0-15.0-0.2-0.16","12fobu06v4","","12fobu06v4","""2024-11-12T18:59:22.722Z""","null","+","null","","","","","","",""
"","","","","","image-keyboard-response","178","6969560","0.0-15.0-0.2-1.16","12fobu06v4","","12fobu06v4","""2024-11-12T18:59:22.722Z""","1992","materials/imgs/D68.png","arrowright","","[""materials/imgs/D104.png"",""materials/imgs/D29.png""]","false","random","","",""
"","","","","","html-keyboard-response","179","6970061","0.0-15.0-0.2-0.17","12fobu06v4","","12fobu06v4","""2024-11-12T18:59:22.722Z""","null","+","null","","","","","","",""
"","","","","","image-keyboard-response","180","6971225","0.0-15.0-0.2-1.17","12fobu06v4","","12fobu06v4","""2024-11-12T18:59:22.722Z""","1162","materials/imgs/D80.png","arrowright","","[""materials/imgs/D64.png"",""materials/imgs/D16.png""]","false","random","","",""
"","","","","","html-keyboard-response","181","6971727","0.0-15.0-0.2-0.18","12fobu06v4","","12fobu06v4","""2024-11-12T18:59:22.722Z""","null","+","null","","","","","","",""
"","","","","","image-keyboard-response","182","6974968","0.0-15.0-0.2-1.18","12fobu06v4","","12fobu06v4","""2024-11-12T18:59:22.722Z""","3240","materials/imgs/D24.png","arrowright","","[""materials/imgs/D36.png"",""materials/imgs/D87.png""]","false","random","","",""
"","","","","","html-keyboard-response","183","6975469","0.0-15.0-0.2-0.19","12fobu06v4","","12fobu06v4","""2024-11-12T18:59:22.722Z""","null","+","null","","","","","","",""
"","","","","","image-keyboard-response","184","6976299","0.0-15.0-0.2-1.19","12fobu06v4","","12fobu06v4","""2024-11-12T18:59:22.722Z""","828","materials/imgs/D6.png","arrowleft","","[""materials/imgs/D55.png"",""materials/imgs/D76.png""]","false","random","","",""
"","","","","","html-keyboard-response","185","6976800","0.0-15.0-0.2-0.20","12fobu06v4","","12fobu06v4","""2024-11-12T18:59:22.722Z""","null","+","null","","","","","","",""
"","","","","","image-keyboard-response","186","6977644","0.0-15.0-0.2-1.20","12fobu06v4","","12fobu06v4","""2024-11-12T18:59:22.722Z""","843","materials/imgs/D48.png","arrowright","","[""materials/imgs/D68.png"",""materials/imgs/D66.png""]","false","random","","",""
"","","","","","html-keyboard-response","187","6978146","0.0-15.0-1.2-0.2","12fobu06v4","","12fobu06v4","""2024-11-12T18:59:22.722Z""","null","+","null","","","","","","",""
"","","","","","image-keyboard-response","188","6978739","0.0-15.0-1.2-1.2","12fobu06v4","","12fobu06v4","""2024-11-12T18:59:22.722Z""","592","materials/imgs/D101.png","arrowright","","[""materials/imgs/D106.png"",""materials/imgs/D101.png""]","","check","materials/imgs/D101.png","1","true"
"","","","","","html-keyboard-response","189","6979240","0.0-15.0-2.2-0.4","12fobu06v4","","12fobu06v4","""2024-11-12T18:59:22.722Z""","null","+","null","","","","","","",""
"","","","","","image-keyboard-response","190","6981598","0.0-15.0-2.2-1.4","12fobu06v4","","12fobu06v4","""2024-11-12T18:59:22.722Z""","2357","materials/imgs/D65.png","arrowright","","[""materials/imgs/D4.png"",""materials/imgs/D16.png""]","false","validation","","",""
"","","","","","html-keyboard-response","191","6982099","0.0-15.0-2.2-0.5","12fobu06v4","","12fobu06v4","""2024-11-12T18:59:22.722Z""","null","+","null","","","","","","",""
"","","","","","image-keyboard-response","192","6984399","0.0-15.0-2.2-1.5","12fobu06v4","","12fobu06v4","""2024-11-12T18:59:22.722Z""","2299","materials/imgs/D84.png","arrowright","","[""materials/imgs/D106.png"",""materials/imgs/D37.png""]","false","validation","","",""
"","","","","","html-keyboard-response","193","6984900","0.0-15.0-0.3-0.21","12fobu06v4","","12fobu06v4","""2024-11-12T18:59:22.722Z""","null","+","null","","","","","","",""
"","","","","","image-keyboard-response","194","6987878","0.0-15.0-0.3-1.21","12fobu06v4","","12fobu06v4","""2024-11-12T18:59:22.722Z""","2976","materials/imgs/D29.png","arrowleft","","[""materials/imgs/D74.png"",""materials/imgs/D94.png""]","false","random","","",""
"","","","","","html-keyboard-response","195","6988379","0.0-15.0-0.3-0.22","12fobu06v4","","12fobu06v4","""2024-11-12T18:59:22.722Z""","null","+","null","","","","","","",""
"","","","","","image-keyboard-response","196","6989051","0.0-15.0-0.3-1.22","12fobu06v4","","12fobu06v4","""2024-11-12T18:59:22.722Z""","670","materials/imgs/D106.png","arrowleft","","[""materials/imgs/D77.png"",""materials/imgs/D48.png""]","false","random","","",""
"","","","","","html-keyboard-response","197","6989552","0.0-15.0-0.3-0.23","12fobu06v4","","12fobu06v4","""2024-11-12T18:59:22.722Z""","null","+","null","","","","","","",""
"","","","","","image-keyboard-response","198","6990359","0.0-15.0-0.3-1.23","12fobu06v4","","12fobu06v4","""2024-11-12T18:59:22.722Z""","805","materials/imgs/D94.png","arrowright","","[""materials/imgs/D48.png"",""materials/imgs/D96.png""]","false","random","","",""
"","","","","","html-keyboard-response","199","6990860","0.0-15.0-0.3-0.24","12fobu06v4","","12fobu06v4","""2024-11-12T18:59:22.722Z""","null","+","null","","","","","","",""
"","","","","","image-keyboard-response","200","6991838","0.0-15.0-0.3-1.24","12fobu06v4","","12fobu06v4","""2024-11-12T18:59:22.722Z""","976","materials/imgs/D29.png","arrowleft","","[""materials/imgs/D19.png"",""materials/imgs/D79.png""]","false","random","","",""
"","","","","","html-keyboard-response","201","6992340","0.0-15.0-0.3-0.25","12fobu06v4","","12fobu06v4","""2024-11-12T18:59:22.722Z""","null","+","null","","","","","","",""
"","","","","","image-keyboard-response","202","6995358","0.0-15.0-0.3-1.25","12fobu06v4","","12fobu06v4","""2024-11-12T18:59:22.722Z""","3016","materials/imgs/D74.png","arrowleft","","[""materials/imgs/D52.png"",""materials/imgs/D68.png""]","false","random","","",""
"","","","","","html-keyboard-response","203","6995860","0.0-15.0-0.3-0.26","12fobu06v4","","12fobu06v4","""2024-11-12T18:59:22.722Z""","null","+","null","","","","","","",""
"","","","","","image-keyboard-response","204","6997243","0.0-15.0-0.3-1.26","12fobu06v4","","12fobu06v4","""2024-11-12T18:59:22.722Z""","1381","materials/imgs/D21.png","arrowleft","","[""materials/imgs/D82.png"",""materials/imgs/D81.png""]","false","random","","",""
"","","","","","html-keyboard-response","205","6997745","0.0-15.0-0.3-0.27","12fobu06v4","","12fobu06v4","""2024-11-12T18:59:22.722Z""","null","+","null","","","","","","",""
"","","","","","image-keyboard-response","206","6998959","0.0-15.0-0.3-1.27","12fobu06v4","","12fobu06v4","""2024-11-12T18:59:22.722Z""","1213","materials/imgs/D11.png","arrowright","","[""materials/imgs/D37.png"",""materials/imgs/D79.png""]","false","random","","",""
"","","","","","html-keyboard-response","207","6999461","0.0-15.0-1.3-0.3","12fobu06v4","","12fobu06v4","""2024-11-12T18:59:22.722Z""","null","+","null","","","","","","",""
"","","","","","image-keyboard-response","208","7000145","0.0-15.0-1.3-1.3","12fobu06v4","","12fobu06v4","""2024-11-12T18:59:22.722Z""","683","materials/imgs/D46.png","arrowleft","","[""materials/imgs/D46.png"",""materials/imgs/D26.png""]","","check","materials/imgs/D46.png","0","true"
"","","","","","html-keyboard-response","209","7000646","0.0-15.0-2.3-0.6","12fobu06v4","","12fobu06v4","""2024-11-12T18:59:22.722Z""","null","+","null","","","","","","",""
"","","","","","image-keyboard-response","210","7001643","0.0-15.0-2.3-1.6","12fobu06v4","","12fobu06v4","""2024-11-12T18:59:22.722Z""","996","materials/imgs/D11.png","arrowleft","","[""materials/imgs/D83.png"",""materials/imgs/D48.png""]","false","validation","","",""
"","","","","","html-keyboard-response","211","7002145","0.0-15.0-2.3-0.7","12fobu06v4","","12fobu06v4","""2024-11-12T18:59:22.722Z""","null","+","null","","","","","","",""
"","","","","","image-keyboard-response","212","7004006","0.0-15.0-2.3-1.7","12fobu06v4","","12fobu06v4","""2024-11-12T18:59:22.722Z""","1859","materials/imgs/D46.png","arrowleft","","[""materials/imgs/D92.png"",""materials/imgs/D77.png""]","false","validation","","",""
"","","","","","html-keyboard-response","213","7004508","0.0-15.0-0.4-0.28","12fobu06v4","","12fobu06v4","""2024-11-12T18:59:22.722Z""","null","+","null","","","","","","",""
"","","","","","image-keyboard-response","214","7005158","0.0-15.0-0.4-1.28","12fobu06v4","","12fobu06v4","""2024-11-12T18:59:22.722Z""","648","materials/imgs/D80.png","arrowleft","","[""materials/imgs/D81.png"",""materials/imgs/D68.png""]","false","random","","",""
"","","","","","html-keyboard-response","215","7005659","0.0-15.0-0.4-0.29","12fobu06v4","","12fobu06v4","""2024-11-12T18:59:22.722Z""","null","+","null","","","","","","",""
"","","","","","image-keyboard-response","216","7009330","0.0-15.0-0.4-1.29","12fobu06v4","","12fobu06v4","""2024-11-12T18:59:22.722Z""","3669","materials/imgs/D4.png","arrowleft","","[""materials/imgs/D21.png"",""materials/imgs/D95.png""]","false","random","","",""
"","","","","","html-keyboard-response","217","7009831","0.0-15.0-0.4-0.30","12fobu06v4","","12fobu06v4","""2024-11-12T18:59:22.722Z""","null","+","null","","","","","","",""
"","","","","","image-keyboard-response","218","7013397","0.0-15.0-0.4-1.30","12fobu06v4","","12fobu06v4","""2024-11-12T18:59:22.722Z""","3565","materials/imgs/D87.png","arrowright","","[""materials/imgs/D102.png"",""materials/imgs/D56.png""]","false","random","","",""
"","","","","","html-keyboard-response","219","7013899","0.0-15.0-0.4-0.31","12fobu06v4","","12fobu06v4","""2024-11-12T18:59:22.722Z""","null","+","null","","","","","","",""
"","","","","","image-keyboard-response","220","7014615","0.0-15.0-0.4-1.31","12fobu06v4","","12fobu06v4","""2024-11-12T18:59:22.722Z""","714","materials/imgs/D16.png","arrowleft","","[""materials/imgs/D4.png"",""materials/imgs/D8.png""]","false","random","","",""
"","","","","","html-keyboard-response","221","7015116","0.0-15.0-0.4-0.32","12fobu06v4","","12fobu06v4","""2024-11-12T18:59:22.722Z""","null","+","null","","","","","","",""
"","","","","","image-keyboard-response","222","7015706","0.0-15.0-0.4-1.32","12fobu06v4","","12fobu06v4","""2024-11-12T18:59:22.722Z""","589","materials/imgs/D32.png","arrowright","","[""materials/imgs/D78.png"",""materials/imgs/D81.png""]","false","random","","",""
"","","","","","html-keyboard-response","223","7016206","0.0-15.0-0.4-0.33","12fobu06v4","","12fobu06v4","""2024-11-12T18:59:22.722Z""","null","+","null","","","","","","",""
"","","","","","image-keyboard-response","224","7017072","0.0-15.0-0.4-1.33","12fobu06v4","","12fobu06v4","""2024-11-12T18:59:22.722Z""","865","materials/imgs/D94.png","arrowright","","[""materials/imgs/D9.png"",""materials/imgs/D47.png""]","false","random","","",""
"","","","","","html-keyboard-response","225","7017573","0.0-15.0-0.4-0.34","12fobu06v4","","12fobu06v4","""2024-11-12T18:59:22.722Z""","null","+","null","","","","","","",""
"","","","","","image-keyboard-response","226","7019415","0.0-15.0-0.4-1.34","12fobu06v4","","12fobu06v4","""2024-11-12T18:59:22.722Z""","1841","materials/imgs/D66.png","arrowleft","","[""materials/imgs/D52.png"",""materials/imgs/D24.png""]","false","random","","",""
"","","","","","html-keyboard-response","227","7019916","0.0-15.0-1.4-0.4","12fobu06v4","","12fobu06v4","""2024-11-12T18:59:22.722Z""","null","+","null","","","","","","",""
"","","","","","image-keyboard-response","228","7020525","0.0-15.0-1.4-1.4","12fobu06v4","","12fobu06v4","""2024-11-12T18:59:22.722Z""","608","materials/imgs/D76.png","arrowleft","","[""materials/imgs/D76.png"",""materials/imgs/D78.png""]","","check","materials/imgs/D76.png","0","true"
"","","","","","html-keyboard-response","229","7021026","0.0-15.0-2.4-0.8","12fobu06v4","","12fobu06v4","""2024-11-12T18:59:22.722Z""","null","+","null","","","","","","",""
"","","","","","image-keyboard-response","230","7022067","0.0-15.0-2.4-1.8","12fobu06v4","","12fobu06v4","""2024-11-12T18:59:22.722Z""","1039","materials/imgs/D47.png","arrowright","","[""materials/imgs/D1.png"",""materials/imgs/D52.png""]","false","validation","","",""
"","","","","","html-keyboard-response","231","7022568","0.0-15.0-2.4-0.9","12fobu06v4","","12fobu06v4","""2024-11-12T18:59:22.722Z""","null","+","null","","","","","","",""
"","","","","","image-keyboard-response","232","7025225","0.0-15.0-2.4-1.9","12fobu06v4","","12fobu06v4","""2024-11-12T18:59:22.722Z""","2654","materials/imgs/D8.png","arrowright","","[""materials/imgs/D101.png"",""materials/imgs/D52.png""]","false","validation","","",""
"","","","","","html-button-response","233","7026614","0.0-16.0","12fobu06v4","","12fobu06v4","""2024-11-12T18:59:22.722Z""","1387","You have completed 50% of the trials. Please click 'Continue' when you are ready proceed.","0","","","","","","",""
"","","","","","html-keyboard-response","234","7027115","0.0-17.0-0.0-0.0","12fobu06v4","","12fobu06v4","""2024-11-12T18:59:22.722Z""","null","+","null","","","","","","",""
"","","","","","image-keyboard-response","235","7030416","0.0-17.0-0.0-1.0","12fobu06v4","","12fobu06v4","""2024-11-12T18:59:22.722Z""","3299","materials/imgs/D24.png","arrowright","","[""materials/imgs/D76.png"",""materials/imgs/D21.png""]","false","random","","",""
"","","","","","html-keyboard-response","236","7030918","0.0-17.0-0.0-0.1","12fobu06v4","","12fobu06v4","""2024-11-12T18:59:22.722Z""","null","+","null","","","","","","",""
"","","","","","image-keyboard-response","237","7032160","0.0-17.0-0.0-1.1","12fobu06v4","","12fobu06v4","""2024-11-12T18:59:22.722Z""","1240","materials/imgs/D103.png","arrowright","","[""materials/imgs/D34.png"",""materials/imgs/D53.png""]","false","random","","",""
"","","","","","html-keyboard-response","238","7032662","0.0-17.0-0.0-0.2","12fobu06v4","","12fobu06v4","""2024-11-12T18:59:22.722Z""","null","+","null","","","","","","",""
"","","","","","image-keyboard-response","239","7033600","0.0-17.0-0.0-1.2","12fobu06v4","","12fobu06v4","""2024-11-12T18:59:22.722Z""","937","materials/imgs/D53.png","arrowright","","[""materials/imgs/D11.png"",""materials/imgs/D87.png""]","false","random","","",""
"","","","","","html-keyboard-response","240","7034102","0.0-17.0-0.0-0.3","12fobu06v4","","12fobu06v4","""2024-11-12T18:59:22.722Z""","null","+","null","","","","","","",""
"","","","","","image-keyboard-response","241","7035833","0.0-17.0-0.0-1.3","12fobu06v4","","12fobu06v4","""2024-11-12T18:59:22.722Z""","1729","materials/imgs/D74.png","arrowleft","","[""materials/imgs/D79.png"",""materials/imgs/D26.png""]","false","random","","",""
"","","","","","html-keyboard-response","242","7036333","0.0-17.0-0.0-0.4","12fobu06v4","","12fobu06v4","""2024-11-12T18:59:22.722Z""","null","+","null","","","","","","",""
"","","","","","image-keyboard-response","243","7037982","0.0-17.0-0.0-1.4","12fobu06v4","","12fobu06v4","""2024-11-12T18:59:22.722Z""","1647","materials/imgs/D29.png","arrowright","","[""materials/imgs/D92.png"",""materials/imgs/D57.png""]","false","random","","",""
"","","","","","html-keyboard-response","244","7038483","0.0-17.0-0.0-0.5","12fobu06v4","","12fobu06v4","""2024-11-12T18:59:22.722Z""","null","+","null","","","","","","",""
"","","","","","image-keyboard-response","245","7039397","0.0-17.0-0.0-1.5","12fobu06v4","","12fobu06v4","""2024-11-12T18:59:22.722Z""","912","materials/imgs/D46.png","arrowleft","","[""materials/imgs/D37.png"",""materials/imgs/D94.png""]","false","random","","",""
"","","","","","html-keyboard-response","246","7039898","0.0-17.0-0.0-0.6","12fobu06v4","","12fobu06v4","""2024-11-12T18:59:22.722Z""","null","+","null","","","","","","",""
"","","","","","image-keyboard-response","247","7042011","0.0-17.0-0.0-1.6","12fobu06v4","","12fobu06v4","""2024-11-12T18:59:22.722Z""","2110","materials/imgs/D83.png","arrowright","","[""materials/imgs/D52.png"",""materials/imgs/D19.png""]","false","random","","",""
"","","","","","html-keyboard-response","248","7042512","0.0-17.0-1.0-0.0","12fobu06v4","","12fobu06v4","""2024-11-12T18:59:22.722Z""","null","+","null","","","","","","",""
"","","","","","image-keyboard-response","249","7043072","0.0-17.0-1.0-1.0","12fobu06v4","","12fobu06v4","""2024-11-12T18:59:22.722Z""","558","materials/imgs/D53.png","arrowright","","[""materials/imgs/D64.png"",""materials/imgs/D53.png""]","","check","materials/imgs/D53.png","1","true"
"","","","","","html-keyboard-response","250","7043573","0.0-17.0-2.0-0.0","12fobu06v4","","12fobu06v4","""2024-11-12T18:59:22.722Z""","null","+","null","","","","","","",""
"","","","","","image-keyboard-response","251","7045644","0.0-17.0-2.0-1.0","12fobu06v4","","12fobu06v4","""2024-11-12T18:59:22.722Z""","2071","materials/imgs/D102.png","arrowleft","","[""materials/imgs/D32.png"",""materials/imgs/D111.png""]","false","validation","","",""
"","","","","","html-keyboard-response","252","7046146","0.0-17.0-2.0-0.1","12fobu06v4","","12fobu06v4","""2024-11-12T18:59:22.722Z""","null","+","null","","","","","","",""
"","","","","","image-keyboard-response","253","7047639","0.0-17.0-2.0-1.1","12fobu06v4","","12fobu06v4","""2024-11-12T18:59:22.722Z""","1491","materials/imgs/D111.png","arrowleft","","[""materials/imgs/D82.png"",""materials/imgs/D95.png""]","false","validation","","",""
"","","","","","html-keyboard-response","254","7048140","0.0-17.0-0.1-0.7","12fobu06v4","","12fobu06v4","""2024-11-12T18:59:22.722Z""","null","+","null","","","","","","",""
"","","","","","image-keyboard-response","255","7049781","0.0-17.0-0.1-1.7","12fobu06v4","","12fobu06v4","""2024-11-12T18:59:22.722Z""","1639","materials/imgs/D16.png","arrowleft","","[""materials/imgs/D22.png"",""materials/imgs/D95.png""]","false","random","","",""
"","","","","","html-keyboard-response","256","7050283","0.0-17.0-0.1-0.8","12fobu06v4","","12fobu06v4","""2024-11-12T18:59:22.722Z""","null","+","null","","","","","","",""
"","","","","","image-keyboard-response","257","7051249","0.0-17.0-0.1-1.8","12fobu06v4","","12fobu06v4","""2024-11-12T18:59:22.722Z""","965","materials/imgs/D11.png","arrowleft","","[""materials/imgs/D65.png"",""materials/imgs/D96.png""]","false","random","","",""
"","","","","","html-keyboard-response","258","7051750","0.0-17.0-0.1-0.9","12fobu06v4","","12fobu06v4","""2024-11-12T18:59:22.722Z""","null","+","null","","","","","","",""
"","","","","","image-keyboard-response","259","7054416","0.0-17.0-0.1-1.9","12fobu06v4","","12fobu06v4","""2024-11-12T18:59:22.722Z""","2664","materials/imgs/D104.png","arrowright","","[""materials/imgs/D11.png"",""materials/imgs/D102.png""]","false","random","","",""
"","","","","","html-keyboard-response","260","7054918","0.0-17.0-0.1-0.10","12fobu06v4","","12fobu06v4","""2024-11-12T18:59:22.722Z""","null","+","null","","","","","","",""
"","","","","","image-keyboard-response","261","7056757","0.0-17.0-0.1-1.10","12fobu06v4","","12fobu06v4","""2024-11-12T18:59:22.722Z""","1838","materials/imgs/D57.png","arrowleft","","[""materials/imgs/D87.png"",""materials/imgs/D3.png""]","false","random","","",""
"","","","","","html-keyboard-response","262","7057259","0.0-17.0-0.1-0.11","12fobu06v4","","12fobu06v4","""2024-11-12T18:59:22.722Z""","null","+","null","","","","","","",""
"","","","","","image-keyboard-response","263","7058725","0.0-17.0-0.1-1.11","12fobu06v4","","12fobu06v4","""2024-11-12T18:59:22.722Z""","1463","materials/imgs/D102.png","arrowleft","","[""materials/imgs/D55.png"",""materials/imgs/D66.png""]","false","random","","",""
"","","","","","html-keyboard-response","264","7059226","0.0-17.0-0.1-0.12","12fobu06v4","","12fobu06v4","""2024-11-12T18:59:22.722Z""","null","+","null","","","","","","",""
"","","","","","image-keyboard-response","265","7059874","0.0-17.0-0.1-1.12","12fobu06v4","","12fobu06v4","""2024-11-12T18:59:22.722Z""","647","materials/imgs/D84.png","arrowleft","","[""materials/imgs/D24.png"",""materials/imgs/D46.png""]","false","random","","",""
"","","","","","html-keyboard-response","266","7060375","0.0-17.0-0.1-0.13","12fobu06v4","","12fobu06v4","""2024-11-12T18:59:22.722Z""","null","+","null","","","","","","",""
"","","","","","image-keyboard-response","267","7061047","0.0-17.0-0.1-1.13","12fobu06v4","","12fobu06v4","""2024-11-12T18:59:22.722Z""","670","materials/imgs/D85.png","arrowleft","","[""materials/imgs/D79.png"",""materials/imgs/D16.png""]","false","random","","",""
"","","","","","html-keyboard-response","268","7061547","0.0-17.0-1.1-0.1","12fobu06v4","","12fobu06v4","""2024-11-12T18:59:22.722Z""","null","+","null","","","","","","",""
"","","","","","image-keyboard-response","269","7062142","0.0-17.0-1.1-1.1","12fobu06v4","","12fobu06v4","""2024-11-12T18:59:22.722Z""","594","materials/imgs/D26.png","arrowleft","","[""materials/imgs/D26.png"",""materials/imgs/D46.png""]","","check","materials/imgs/D26.png","0","true"
"","","","","","html-keyboard-response","270","7062644","0.0-17.0-2.1-0.2","12fobu06v4","","12fobu06v4","""2024-11-12T18:59:22.722Z""","null","+","null","","","","","","",""
"","","","","","image-keyboard-response","271","7063506","0.0-17.0-2.1-1.2","12fobu06v4","","12fobu06v4","""2024-11-12T18:59:22.722Z""","861","materials/imgs/D22.png","arrowleft","","[""materials/imgs/D4.png"",""materials/imgs/D25.png""]","false","validation","","",""
"","","","","","html-keyboard-response","272","7064007","0.0-17.0-2.1-0.3","12fobu06v4","","12fobu06v4","""2024-11-12T18:59:22.722Z""","null","+","null","","","","","","",""
"","","","","","image-keyboard-response","273","7066152","0.0-17.0-2.1-1.3","12fobu06v4","","12fobu06v4","""2024-11-12T18:59:22.722Z""","2144","materials/imgs/D106.png","arrowleft","","[""materials/imgs/D57.png"",""materials/imgs/D18.png""]","false","validation","","",""
"","","","","","html-keyboard-response","274","7066654","0.0-17.0-0.2-0.14","12fobu06v4","","12fobu06v4","""2024-11-12T18:59:22.722Z""","null","+","null","","","","","","",""
"","","","","","image-keyboard-response","275","7069228","0.0-17.0-0.2-1.14","12fobu06v4","","12fobu06v4","""2024-11-12T18:59:22.722Z""","2572","materials/imgs/D94.png","arrowright","","[""materials/imgs/D55.png"",""materials/imgs/D6.png""]","false","random","","",""
"","","","","","html-keyboard-response","276","7069729","0.0-17.0-0.2-0.15","12fobu06v4","","12fobu06v4","""2024-11-12T18:59:22.722Z""","null","+","null","","","","","","",""
"","","","","","image-keyboard-response","277","7072056","0.0-17.0-0.2-1.15","12fobu06v4","","12fobu06v4","""2024-11-12T18:59:22.722Z""","2325","materials/imgs/D82.png","arrowleft","","[""materials/imgs/D84.png"",""materials/imgs/D75.png""]","false","random","","",""
"","","","","","html-keyboard-response","278","7072557","0.0-17.0-0.2-0.16","12fobu06v4","","12fobu06v4","""2024-11-12T18:59:22.722Z""","null","+","null","","","","","","",""
"","","","","","image-keyboard-response","279","7075466","0.0-17.0-0.2-1.16","12fobu06v4","","12fobu06v4","""2024-11-12T18:59:22.722Z""","2908","materials/imgs/D35.png","arrowleft","","[""materials/imgs/D92.png"",""materials/imgs/D46.png""]","false","random","","",""
"","","","","","html-keyboard-response","280","7075967","0.0-17.0-0.2-0.17","12fobu06v4","","12fobu06v4","""2024-11-12T18:59:22.722Z""","null","+","null","","","","","","",""
"","","","","","image-keyboard-response","281","7077502","0.0-17.0-0.2-1.17","12fobu06v4","","12fobu06v4","""2024-11-12T18:59:22.722Z""","1534","materials/imgs/D29.png","arrowright","","[""materials/imgs/D49.png"",""materials/imgs/D36.png""]","false","random","","",""
"","","","","","html-keyboard-response","282","7078003","0.0-17.0-0.2-0.18","12fobu06v4","","12fobu06v4","""2024-11-12T18:59:22.722Z""","null","+","null","","","","","","",""
"","","","","","image-keyboard-response","283","7080700","0.0-17.0-0.2-1.18","12fobu06v4","","12fobu06v4","""2024-11-12T18:59:22.722Z""","2697","materials/imgs/D52.png","arrowright","","[""materials/imgs/D26.png"",""materials/imgs/D29.png""]","false","random","","",""
"","","","","","html-keyboard-response","284","7081202","0.0-17.0-0.2-0.19","12fobu06v4","","12fobu06v4","""2024-11-12T18:59:22.722Z""","null","+","null","","","","","","",""
"","","","","","image-keyboard-response","285","7082059","0.0-17.0-0.2-1.19","12fobu06v4","","12fobu06v4","""2024-11-12T18:59:22.722Z""","856","materials/imgs/D51.png","arrowright","","[""materials/imgs/D79.png"",""materials/imgs/D78.png""]","false","random","","",""
"","","","","","html-keyboard-response","286","7082560","0.0-17.0-0.2-0.20","12fobu06v4","","12fobu06v4","""2024-11-12T18:59:22.722Z""","null","+","null","","","","","","",""
"","","","","","image-keyboard-response","287","7083226","0.0-17.0-0.2-1.20","12fobu06v4","","12fobu06v4","""2024-11-12T18:59:22.722Z""","665","materials/imgs/D92.png","arrowleft","","[""materials/imgs/D4.png"",""materials/imgs/D20.png""]","false","random","","",""
"","","","","","html-keyboard-response","288","7083727","0.0-17.0-1.2-0.2","12fobu06v4","","12fobu06v4","""2024-11-12T18:59:22.722Z""","null","+","null","","","","","","",""
"","","","","","image-keyboard-response","289","7084279","0.0-17.0-1.2-1.2","12fobu06v4","","12fobu06v4","""2024-11-12T18:59:22.722Z""","551","materials/imgs/D106.png","arrowleft","","[""materials/imgs/D106.png"",""materials/imgs/D101.png""]","","check","materials/imgs/D106.png","0","true"
"","","","","","html-keyboard-response","290","7084781","0.0-17.0-2.2-0.4","12fobu06v4","","12fobu06v4","""2024-11-12T18:59:22.722Z""","null","+","null","","","","","","",""
"","","","","","image-keyboard-response","291","7087824","0.0-17.0-2.2-1.4","12fobu06v4","","12fobu06v4","""2024-11-12T18:59:22.722Z""","3042","materials/imgs/D16.png","arrowleft","","[""materials/imgs/D52.png"",""materials/imgs/D25.png""]","false","validation","","",""
"","","","","","html-keyboard-response","292","7088326","0.0-17.0-2.2-0.5","12fobu06v4","","12fobu06v4","""2024-11-12T18:59:22.722Z""","null","+","null","","","","","","",""
"","","","","","image-keyboard-response","293","7092671","0.0-17.0-2.2-1.5","12fobu06v4","","12fobu06v4","""2024-11-12T18:59:22.722Z""","4345","materials/imgs/D68.png","arrowright","","[""materials/imgs/D96.png"",""materials/imgs/D48.png""]","false","validation","","",""
"","","","","","html-keyboard-response","294","7093172","0.0-17.0-0.3-0.21","12fobu06v4","","12fobu06v4","""2024-11-12T18:59:22.722Z""","null","+","null","","","","","","",""
"","","","","","image-keyboard-response","295","7094005","0.0-17.0-0.3-1.21","12fobu06v4","","12fobu06v4","""2024-11-12T18:59:22.722Z""","831","materials/imgs/D75.png","arrowleft","","[""materials/imgs/D92.png"",""materials/imgs/D46.png""]","false","random","","",""
"","","","","","html-keyboard-response","296","7094506","0.0-17.0-0.3-0.22","12fobu06v4","","12fobu06v4","""2024-11-12T18:59:22.722Z""","null","+","null","","","","","","",""
"","","","","","image-keyboard-response","297","7095506","0.0-17.0-0.3-1.22","12fobu06v4","","12fobu06v4","""2024-11-12T18:59:22.722Z""","998","materials/imgs/D19.png","arrowleft","","[""materials/imgs/D21.png"",""materials/imgs/D102.png""]","false","random","","",""
"","","","","","html-keyboard-response","298","7096007","0.0-17.0-0.3-0.23","12fobu06v4","","12fobu06v4","""2024-11-12T18:59:22.722Z""","null","+","null","","","","","","",""
"","","","","","image-keyboard-response","299","7096596","0.0-17.0-0.3-1.23","12fobu06v4","","12fobu06v4","""2024-11-12T18:59:22.722Z""","587","materials/imgs/D4.png","arrowright","","[""materials/imgs/D20.png"",""materials/imgs/D53.png""]","false","random","","",""
"","","","","","html-keyboard-response","300","7097097","0.0-17.0-0.3-0.24","12fobu06v4","","12fobu06v4","""2024-11-12T18:59:22.722Z""","null","+","null","","","","","","",""
"","","","","","image-keyboard-response","301","7098062","0.0-17.0-0.3-1.24","12fobu06v4","","12fobu06v4","""2024-11-12T18:59:22.722Z""","963","materials/imgs/D56.png","arrowright","","[""materials/imgs/D21.png"",""materials/imgs/D87.png""]","false","random","","",""
"","","","","","html-keyboard-response","302","7098563","0.0-17.0-0.3-0.25","12fobu06v4","","12fobu06v4","""2024-11-12T18:59:22.722Z""","null","+","null","","","","","","",""
"","","","","","image-keyboard-response","303","7101169","0.0-17.0-0.3-1.25","12fobu06v4","","12fobu06v4","""2024-11-12T18:59:22.722Z""","2605","materials/imgs/D65.png","arrowright","","[""materials/imgs/D77.png"",""materials/imgs/D79.png""]","false","random","","",""
"","","","","","html-keyboard-response","304","7101671","0.0-17.0-0.3-0.26","12fobu06v4","","12fobu06v4","""2024-11-12T18:59:22.722Z""","null","+","null","","","","","","",""
"","","","","","image-keyboard-response","305","7104158","0.0-17.0-0.3-1.26","12fobu06v4","","12fobu06v4","""2024-11-12T18:59:22.722Z""","2485","materials/imgs/D79.png","arrowleft","","[""materials/imgs/D24.png"",""materials/imgs/D47.png""]","false","random","","",""
"","","","","","html-keyboard-response","306","7104660","0.0-17.0-0.3-0.27","12fobu06v4","","12fobu06v4","""2024-11-12T18:59:22.722Z""","null","+","null","","","","","","",""
"","","","","","image-keyboard-response","307","7105167","0.0-17.0-0.3-1.27","12fobu06v4","","12fobu06v4","""2024-11-12T18:59:22.722Z""","504","materials/imgs/D20.png","arrowright","","[""materials/imgs/D8.png"",""materials/imgs/D101.png""]","false","random","","",""
"","","","","","html-keyboard-response","308","7105669","0.0-17.0-1.3-0.3","12fobu06v4","","12fobu06v4","""2024-11-12T18:59:22.722Z""","null","+","null","","","","","","",""
"","","","","","image-keyboard-response","309","7106174","0.0-17.0-1.3-1.3","12fobu06v4","","12fobu06v4","""2024-11-12T18:59:22.722Z""","505","materials/imgs/D64.png","arrowleft","","[""materials/imgs/D64.png"",""materials/imgs/D53.png""]","","check","materials/imgs/D64.png","0","true"
"","","","","","html-keyboard-response","310","7106675","0.0-17.0-2.3-0.6","12fobu06v4","","12fobu06v4","""2024-11-12T18:59:22.722Z""","null","+","null","","","","","","",""
"","","","","","image-keyboard-response","311","7107698","0.0-17.0-2.3-1.6","12fobu06v4","","12fobu06v4","""2024-11-12T18:59:22.722Z""","1021","materials/imgs/D52.png","arrowright","","[""materials/imgs/D9.png"",""materials/imgs/D19.png""]","false","validation","","",""
"","","","","","html-keyboard-response","312","7108199","0.0-17.0-2.3-0.7","12fobu06v4","","12fobu06v4","""2024-11-12T18:59:22.722Z""","null","+","null","","","","","","",""
"","","","","","image-keyboard-response","313","7108914","0.0-17.0-2.3-1.7","12fobu06v4","","12fobu06v4","""2024-11-12T18:59:22.722Z""","714","materials/imgs/D68.png","arrowright","","[""materials/imgs/D96.png"",""materials/imgs/D48.png""]","false","validation","","",""
"","","","","","html-keyboard-response","314","7109415","0.0-17.0-0.4-0.28","12fobu06v4","","12fobu06v4","""2024-11-12T18:59:22.722Z""","null","+","null","","","","","","",""
"","","","","","image-keyboard-response","315","7111170","0.0-17.0-0.4-1.28","12fobu06v4","","12fobu06v4","""2024-11-12T18:59:22.722Z""","1753","materials/imgs/D104.png","arrowleft","","[""materials/imgs/D46.png"",""materials/imgs/D47.png""]","false","random","","",""
"","","","","","html-keyboard-response","316","7111671","0.0-17.0-0.4-0.29","12fobu06v4","","12fobu06v4","""2024-11-12T18:59:22.722Z""","null","+","null","","","","","","",""
"","","","","","image-keyboard-response","317","7113797","0.0-17.0-0.4-1.29","12fobu06v4","","12fobu06v4","""2024-11-12T18:59:22.722Z""","2124","materials/imgs/D36.png","arrowleft","","[""materials/imgs/D16.png"",""materials/imgs/D64.png""]","false","random","","",""
"","","","","","html-keyboard-response","318","7114298","0.0-17.0-0.4-0.30","12fobu06v4","","12fobu06v4","""2024-11-12T18:59:22.722Z""","null","+","null","","","","","","",""
"","","","","","image-keyboard-response","319","7115433","0.0-17.0-0.4-1.30","12fobu06v4","","12fobu06v4","""2024-11-12T18:59:22.722Z""","1134","materials/imgs/D29.png","arrowright","","[""materials/imgs/D18.png"",""materials/imgs/D83.png""]","false","random","","",""
"","","","","","html-keyboard-response","320","7115934","0.0-17.0-0.4-0.31","12fobu06v4","","12fobu06v4","""2024-11-12T18:59:22.722Z""","null","+","null","","","","","","",""
"","","","","","image-keyboard-response","321","7116894","0.0-17.0-0.4-1.31","12fobu06v4","","12fobu06v4","""2024-11-12T18:59:22.722Z""","959","materials/imgs/D17.png","arrowright","","[""materials/imgs/D47.png"",""materials/imgs/D83.png""]","false","random","","",""
"","","","","","html-keyboard-response","322","7117395","0.0-17.0-0.4-0.32","12fobu06v4","","12fobu06v4","""2024-11-12T18:59:22.722Z""","null","+","null","","","","","","",""
"","","","","","image-keyboard-response","323","7118287","0.0-17.0-0.4-1.32","12fobu06v4","","12fobu06v4","""2024-11-12T18:59:22.722Z""","890","materials/imgs/D105.png","arrowright","","[""materials/imgs/D46.png"",""materials/imgs/D17.png""]","false","random","","",""
"","","","","","html-keyboard-response","324","7118788","0.0-17.0-0.4-0.33","12fobu06v4","","12fobu06v4","""2024-11-12T18:59:22.722Z""","null","+","null","","","","","","",""
"","","","","","image-keyboard-response","325","7120151","0.0-17.0-0.4-1.33","12fobu06v4","","12fobu06v4","""2024-11-12T18:59:22.722Z""","1361","materials/imgs/D85.png","arrowright","","[""materials/imgs/D96.png"",""materials/imgs/D68.png""]","false","random","","",""
"","","","","","html-keyboard-response","326","7120653","0.0-17.0-0.4-0.34","12fobu06v4","","12fobu06v4","""2024-11-12T18:59:22.722Z""","null","+","null","","","","","","",""
"","","","","","image-keyboard-response","327","7122357","0.0-17.0-0.4-1.34","12fobu06v4","","12fobu06v4","""2024-11-12T18:59:22.722Z""","1703","materials/imgs/D101.png","arrowright","","[""materials/imgs/D32.png"",""materials/imgs/D83.png""]","false","random","","",""
"","","","","","html-keyboard-response","328","7122858","0.0-17.0-1.4-0.4","12fobu06v4","","12fobu06v4","""2024-11-12T18:59:22.722Z""","null","+","null","","","","","","",""
"","","","","","image-keyboard-response","329","7123485","0.0-17.0-1.4-1.4","12fobu06v4","","12fobu06v4","""2024-11-12T18:59:22.722Z""","625","materials/imgs/D8.png","arrowright","","[""materials/imgs/D18.png"",""materials/imgs/D8.png""]","","check","materials/imgs/D8.png","1","true"
"","","","","","html-keyboard-response","330","7123986","0.0-17.0-2.4-0.8","12fobu06v4","","12fobu06v4","""2024-11-12T18:59:22.722Z""","null","+","null","","","","","","",""
"","","","","","image-keyboard-response","331","7125834","0.0-17.0-2.4-1.8","12fobu06v4","","12fobu06v4","""2024-11-12T18:59:22.722Z""","1846","materials/imgs/D18.png","arrowright","","[""materials/imgs/D32.png"",""materials/imgs/D57.png""]","false","validation","","",""
"","","","","","html-keyboard-response","332","7126335","0.0-17.0-2.4-0.9","12fobu06v4","","12fobu06v4","""2024-11-12T18:59:22.722Z""","null","+","null","","","","","","",""
"","","","","","image-keyboard-response","333","7128663","0.0-17.0-2.4-1.9","12fobu06v4","","12fobu06v4","""2024-11-12T18:59:22.722Z""","2327","materials/imgs/D79.png","arrowleft","","[""materials/imgs/D51.png"",""materials/imgs/D64.png""]","false","validation","","",""
"","","","","","html-button-response","334","7129836","0.0-18.0","12fobu06v4","","12fobu06v4","""2024-11-12T18:59:22.722Z""","1171","You have completed 75% of the trials. Please click 'Continue' when you are ready proceed.","0","","","","","","",""
"","","","","","html-keyboard-response","335","7130338","0.0-19.0-0.0-0.0","12fobu06v4","","12fobu06v4","""2024-11-12T18:59:22.722Z""","null","+","null","","","","","","",""
"","","","","","image-keyboard-response","336","7132493","0.0-19.0-0.0-1.0","12fobu06v4","","12fobu06v4","""2024-11-12T18:59:22.722Z""","2154","materials/imgs/D49.png","arrowright","","[""materials/imgs/D29.png"",""materials/imgs/D78.png""]","false","random","","",""
"","","","","","html-keyboard-response","337","7132994","0.0-19.0-0.0-0.1","12fobu06v4","","12fobu06v4","""2024-11-12T18:59:22.722Z""","null","+","null","","","","","","",""
"","","","","","image-keyboard-response","338","7134761","0.0-19.0-0.0-1.1","12fobu06v4","","12fobu06v4","""2024-11-12T18:59:22.722Z""","1765","materials/imgs/D78.png","arrowright","","[""materials/imgs/D57.png"",""materials/imgs/D47.png""]","false","random","","",""
"","","","","","html-keyboard-response","339","7135263","0.0-19.0-0.0-0.2","12fobu06v4","","12fobu06v4","""2024-11-12T18:59:22.722Z""","null","+","null","","","","","","",""
"","","","","","image-keyboard-response","340","7136036","0.0-19.0-0.0-1.2","12fobu06v4","","12fobu06v4","""2024-11-12T18:59:22.722Z""","771","materials/imgs/D21.png","arrowright","","[""materials/imgs/D75.png"",""materials/imgs/D17.png""]","false","random","","",""
"","","","","","html-keyboard-response","341","7136537","0.0-19.0-0.0-0.3","12fobu06v4","","12fobu06v4","""2024-11-12T18:59:22.722Z""","null","+","null","","","","","","",""
"","","","","","image-keyboard-response","342","7137825","0.0-19.0-0.0-1.3","12fobu06v4","","12fobu06v4","""2024-11-12T18:59:22.722Z""","1288","materials/imgs/D47.png","arrowright","","[""materials/imgs/D51.png"",""materials/imgs/D52.png""]","false","random","","",""
"","","","","","html-keyboard-response","343","7138327","0.0-19.0-0.0-0.4","12fobu06v4","","12fobu06v4","""2024-11-12T18:59:22.722Z""","null","+","null","","","","","","",""
"","","","","","image-keyboard-response","344","7139267","0.0-19.0-0.0-1.4","12fobu06v4","","12fobu06v4","""2024-11-12T18:59:22.722Z""","939","materials/imgs/D51.png","arrowright","","[""materials/imgs/D14.png"",""materials/imgs/D78.png""]","false","random","","",""
"","","","","","html-keyboard-response","345","7139768","0.0-19.0-0.0-0.5","12fobu06v4","","12fobu06v4","""2024-11-12T18:59:22.722Z""","null","+","null","","","","","","",""
"","","","","","image-keyboard-response","346","7140777","0.0-19.0-0.0-1.5","12fobu06v4","","12fobu06v4","""2024-11-12T18:59:22.722Z""","1008","materials/imgs/D36.png","arrowleft","","[""materials/imgs/D16.png"",""materials/imgs/D37.png""]","false","random","","",""
"","","","","","html-keyboard-response","347","7141279","0.0-19.0-0.0-0.6","12fobu06v4","","12fobu06v4","""2024-11-12T18:59:22.722Z""","null","+","null","","","","","","",""
"","","","","","image-keyboard-response","348","7143183","0.0-19.0-0.0-1.6","12fobu06v4","","12fobu06v4","""2024-11-12T18:59:22.722Z""","1902","materials/imgs/D94.png","arrowright","","[""materials/imgs/D111.png"",""materials/imgs/D104.png""]","false","random","","",""
"","","","","","html-keyboard-response","349","7143683","0.0-19.0-1.0-0.0","12fobu06v4","","12fobu06v4","""2024-11-12T18:59:22.722Z""","null","+","null","","","","","","",""
"","","","","","image-keyboard-response","350","7144249","0.0-19.0-1.0-1.0","12fobu06v4","","12fobu06v4","""2024-11-12T18:59:22.722Z""","564","materials/imgs/D64.png","arrowleft","","[""materials/imgs/D64.png"",""materials/imgs/D53.png""]","","check","materials/imgs/D64.png","0","true"
"","","","","","html-keyboard-response","351","7144751","0.0-19.0-2.0-0.0","12fobu06v4","","12fobu06v4","""2024-11-12T18:59:22.722Z""","null","+","null","","","","","","",""
"","","","","","image-keyboard-response","352","7147277","0.0-19.0-2.0-1.0","12fobu06v4","","12fobu06v4","""2024-11-12T18:59:22.722Z""","2525","materials/imgs/D51.png","arrowleft","","[""materials/imgs/D92.png"",""materials/imgs/D20.png""]","false","validation","","",""
"","","","","","html-keyboard-response","353","7147779","0.0-19.0-2.0-0.1","12fobu06v4","","12fobu06v4","""2024-11-12T18:59:22.722Z""","null","+","null","","","","","","",""
"","","","","","image-keyboard-response","354","7148525","0.0-19.0-2.0-1.1","12fobu06v4","","12fobu06v4","""2024-11-12T18:59:22.722Z""","745","materials/imgs/D9.png","arrowright","","[""materials/imgs/D103.png"",""materials/imgs/D4.png""]","false","validation","","",""
"","","","","","html-keyboard-response","355","7149026","0.0-19.0-0.1-0.7","12fobu06v4","","12fobu06v4","""2024-11-12T18:59:22.722Z""","null","+","null","","","","","","",""
"","","","","","image-keyboard-response","356","7150185","0.0-19.0-0.1-1.7","12fobu06v4","","12fobu06v4","""2024-11-12T18:59:22.722Z""","1158","materials/imgs/D57.png","arrowright","","[""materials/imgs/D1.png"",""materials/imgs/D76.png""]","false","random","","",""
"","","","","","html-keyboard-response","357","7150687","0.0-19.0-0.1-0.8","12fobu06v4","","12fobu06v4","""2024-11-12T18:59:22.722Z""","null","+","null","","","","","","",""
"","","","","","image-keyboard-response","358","7151946","0.0-19.0-0.1-1.8","12fobu06v4","","12fobu06v4","""2024-11-12T18:59:22.722Z""","1258","materials/imgs/D3.png","arrowleft","","[""materials/imgs/D32.png"",""materials/imgs/D56.png""]","false","random","","",""
"","","","","","html-keyboard-response","359","7152447","0.0-19.0-0.1-0.9","12fobu06v4","","12fobu06v4","""2024-11-12T18:59:22.722Z""","null","+","null","","","","","","",""
"","","","","","image-keyboard-response","360","7153298","0.0-19.0-0.1-1.9","12fobu06v4","","12fobu06v4","""2024-11-12T18:59:22.722Z""","849","materials/imgs/D53.png","arrowleft","","[""materials/imgs/D52.png"",""materials/imgs/D64.png""]","false","random","","",""
"","","","","","html-keyboard-response","361","7153799","0.0-19.0-0.1-0.10","12fobu06v4","","12fobu06v4","""2024-11-12T18:59:22.722Z""","null","+","null","","","","","","",""
"","","","","","image-keyboard-response","362","7155628","0.0-19.0-0.1-1.10","12fobu06v4","","12fobu06v4","""2024-11-12T18:59:22.722Z""","1827","materials/imgs/D21.png","arrowright","","[""materials/imgs/D22.png"",""materials/imgs/D52.png""]","false","random","","",""
"","","","","","html-keyboard-response","363","7156129","0.0-19.0-0.1-0.11","12fobu06v4","","12fobu06v4","""2024-11-12T18:59:22.722Z""","null","+","null","","","","","","",""
"","","","","","image-keyboard-response","364","7157443","0.0-19.0-0.1-1.11","12fobu06v4","","12fobu06v4","""2024-11-12T18:59:22.722Z""","1313","materials/imgs/D103.png","arrowright","","[""materials/imgs/D84.png"",""materials/imgs/D46.png""]","false","random","","",""
"","","","","","html-keyboard-response","365","7157945","0.0-19.0-0.1-0.12","12fobu06v4","","12fobu06v4","""2024-11-12T18:59:22.722Z""","null","+","null","","","","","","",""
"","","","","","image-keyboard-response","366","7161801","0.0-19.0-0.1-1.12","12fobu06v4","","12fobu06v4","""2024-11-12T18:59:22.722Z""","3856","materials/imgs/D17.png","arrowright","","[""materials/imgs/D14.png"",""materials/imgs/D78.png""]","false","random","","",""
"","","","","","html-keyboard-response","367","7162303","0.0-19.0-0.1-0.13","12fobu06v4","","12fobu06v4","""2024-11-12T18:59:22.722Z""","null","+","null","","","","","","",""
"","","","","","image-keyboard-response","368","7163369","0.0-19.0-0.1-1.13","12fobu06v4","","12fobu06v4","""2024-11-12T18:59:22.722Z""","1064","materials/imgs/D92.png","arrowright","","[""materials/imgs/D25.png"",""materials/imgs/D75.png""]","false","random","","",""
"","","","","","html-keyboard-response","369","7163870","0.0-19.0-1.1-0.1","12fobu06v4","","12fobu06v4","""2024-11-12T18:59:22.722Z""","null","+","null","","","","","","",""
"","","","","","image-keyboard-response","370","7164441","0.0-19.0-1.1-1.1","12fobu06v4","","12fobu06v4","""2024-11-12T18:59:22.722Z""","569","materials/imgs/D106.png","arrowleft","","[""materials/imgs/D106.png"",""materials/imgs/D101.png""]","","check","materials/imgs/D106.png","0","true"
"","","","","","html-keyboard-response","371","7164943","0.0-19.0-2.1-0.2","12fobu06v4","","12fobu06v4","""2024-11-12T18:59:22.722Z""","null","+","null","","","","","","",""
"","","","","","image-keyboard-response","372","7168910","0.0-19.0-2.1-1.2","12fobu06v4","","12fobu06v4","""2024-11-12T18:59:22.722Z""","3966","materials/imgs/D96.png","arrowright","","[""materials/imgs/D46.png"",""materials/imgs/D18.png""]","false","validation","","",""
"","","","","","html-keyboard-response","373","7169412","0.0-19.0-2.1-0.3","12fobu06v4","","12fobu06v4","""2024-11-12T18:59:22.722Z""","null","+","null","","","","","","",""
"","","","","","image-keyboard-response","374","7170595","0.0-19.0-2.1-1.3","12fobu06v4","","12fobu06v4","""2024-11-12T18:59:22.722Z""","1182","materials/imgs/D76.png","arrowleft","","[""materials/imgs/D83.png"",""materials/imgs/D6.png""]","false","validation","","",""
"","","","","","html-keyboard-response","375","7171096","0.0-19.0-0.2-0.14","12fobu06v4","","12fobu06v4","""2024-11-12T18:59:22.722Z""","null","+","null","","","","","","",""
"","","","","","image-keyboard-response","376","7171881","0.0-19.0-0.2-1.14","12fobu06v4","","12fobu06v4","""2024-11-12T18:59:22.722Z""","783","materials/imgs/D35.png","arrowleft","","[""materials/imgs/D92.png"",""materials/imgs/D47.png""]","false","random","","",""
"","","","","","html-keyboard-response","377","7172382","0.0-19.0-0.2-0.15","12fobu06v4","","12fobu06v4","""2024-11-12T18:59:22.722Z""","null","+","null","","","","","","",""
"","","","","","image-keyboard-response","378","7173555","0.0-19.0-0.2-1.15","12fobu06v4","","12fobu06v4","""2024-11-12T18:59:22.722Z""","1171","materials/imgs/D47.png","arrowleft","","[""materials/imgs/D34.png"",""materials/imgs/D24.png""]","false","random","","",""
"","","","","","html-keyboard-response","379","7174057","0.0-19.0-0.2-0.16","12fobu06v4","","12fobu06v4","""2024-11-12T18:59:22.722Z""","null","+","null","","","","","","",""
"","","","","","image-keyboard-response","380","7175203","0.0-19.0-0.2-1.16","12fobu06v4","","12fobu06v4","""2024-11-12T18:59:22.722Z""","1143","materials/imgs/D35.png","arrowright","","[""materials/imgs/D51.png"",""materials/imgs/D3.png""]","false","random","","",""
"","","","","","html-keyboard-response","381","7175704","0.0-19.0-0.2-0.17","12fobu06v4","","12fobu06v4","""2024-11-12T18:59:22.722Z""","null","+","null","","","","","","",""
"","","","","","image-keyboard-response","382","7176272","0.0-19.0-0.2-1.17","12fobu06v4","","12fobu06v4","""2024-11-12T18:59:22.722Z""","566","materials/imgs/D6.png","arrowright","","[""materials/imgs/D56.png"",""materials/imgs/D34.png""]","false","random","","",""
"","","","","","html-keyboard-response","383","7176774","0.0-19.0-0.2-0.18","12fobu06v4","","12fobu06v4","""2024-11-12T18:59:22.722Z""","null","+","null","","","","","","",""
"","","","","","image-keyboard-response","384","7177355","0.0-19.0-0.2-1.18","12fobu06v4","","12fobu06v4","""2024-11-12T18:59:22.722Z""","579","materials/imgs/D35.png","arrowleft","","[""materials/imgs/D22.png"",""materials/imgs/D53.png""]","false","random","","",""
"","","","","","html-keyboard-response","385","7177856","0.0-19.0-0.2-0.19","12fobu06v4","","12fobu06v4","""2024-11-12T18:59:22.722Z""","null","+","null","","","","","","",""
"","","","","","image-keyboard-response","386","7179098","0.0-19.0-0.2-1.19","12fobu06v4","","12fobu06v4","""2024-11-12T18:59:22.722Z""","1240","materials/imgs/D92.png","arrowleft","","[""materials/imgs/D20.png"",""materials/imgs/D106.png""]","false","random","","",""
"","","","","","html-keyboard-response","387","7179599","0.0-19.0-0.2-0.20","12fobu06v4","","12fobu06v4","""2024-11-12T18:59:22.722Z""","null","+","null","","","","","","",""
"","","","","","image-keyboard-response","388","7180489","0.0-19.0-0.2-1.20","12fobu06v4","","12fobu06v4","""2024-11-12T18:59:22.722Z""","889","materials/imgs/D29.png","arrowright","","[""materials/imgs/D53.png"",""materials/imgs/D6.png""]","false","random","","",""
"","","","","","html-keyboard-response","389","7180990","0.0-19.0-1.2-0.2","12fobu06v4","","12fobu06v4","""2024-11-12T18:59:22.722Z""","null","+","null","","","","","","",""
"","","","","","image-keyboard-response","390","7181511","0.0-19.0-1.2-1.2","12fobu06v4","","12fobu06v4","""2024-11-12T18:59:22.722Z""","518","materials/imgs/D53.png","arrowright","","[""materials/imgs/D64.png"",""materials/imgs/D53.png""]","","check","materials/imgs/D53.png","1","true"
"","","","","","html-keyboard-response","391","7182013","0.0-19.0-2.2-0.4","12fobu06v4","","12fobu06v4","""2024-11-12T18:59:22.722Z""","null","+","null","","","","","","",""
"","","","","","image-keyboard-response","392","7183715","0.0-19.0-2.2-1.4","12fobu06v4","","12fobu06v4","""2024-11-12T18:59:22.722Z""","1701","materials/imgs/D64.png","arrowright","","[""materials/imgs/D6.png"",""materials/imgs/D81.png""]","false","validation","","",""
"","","","","","html-keyboard-response","393","7184217","0.0-19.0-2.2-0.5","12fobu06v4","","12fobu06v4","""2024-11-12T18:59:22.722Z""","null","+","null","","","","","","",""
"","","","","","image-keyboard-response","394","7186653","0.0-19.0-2.2-1.5","12fobu06v4","","12fobu06v4","""2024-11-12T18:59:22.722Z""","2435","materials/imgs/D66.png","arrowleft","","[""materials/imgs/D85.png"",""materials/imgs/D25.png""]","false","validation","","",""
"","","","","","html-keyboard-response","395","7187154","0.0-19.0-0.3-0.21","12fobu06v4","","12fobu06v4","""2024-11-12T18:59:22.722Z""","null","+","null","","","","","","",""
"","","","","","image-keyboard-response","396","7188530","0.0-19.0-0.3-1.21","12fobu06v4","","12fobu06v4","""2024-11-12T18:59:22.722Z""","1374","materials/imgs/D55.png","arrowleft","","[""materials/imgs/D78.png"",""materials/imgs/D29.png""]","false","random","","",""
"","","","","","html-keyboard-response","397","7189032","0.0-19.0-0.3-0.22","12fobu06v4","","12fobu06v4","""2024-11-12T18:59:22.722Z""","null","+","null","","","","","","",""
"","","","","","image-keyboard-response","398","7190291","0.0-19.0-0.3-1.22","12fobu06v4","","12fobu06v4","""2024-11-12T18:59:22.722Z""","1257","materials/imgs/D106.png","arrowleft","","[""materials/imgs/D83.png"",""materials/imgs/D22.png""]","false","random","","",""
"","","","","","html-keyboard-response","399","7190792","0.0-19.0-0.3-0.23","12fobu06v4","","12fobu06v4","""2024-11-12T18:59:22.722Z""","null","+","null","","","","","","",""
"","","","","","image-keyboard-response","400","7191333","0.0-19.0-0.3-1.23","12fobu06v4","","12fobu06v4","""2024-11-12T18:59:22.722Z""","540","materials/imgs/D55.png","arrowleft","","[""materials/imgs/D17.png"",""materials/imgs/D26.png""]","false","random","","",""
"","","","","","html-keyboard-response","401","7191835","0.0-19.0-0.3-0.24","12fobu06v4","","12fobu06v4","""2024-11-12T18:59:22.722Z""","null","+","null","","","","","","",""
"","","","","","image-keyboard-response","402","7192641","0.0-19.0-0.3-1.24","12fobu06v4","","12fobu06v4","""2024-11-12T18:59:22.722Z""","804","materials/imgs/D52.png","arrowright","","[""materials/imgs/D76.png"",""materials/imgs/D55.png""]","false","random","","",""
"","","","","","html-keyboard-response","403","7193142","0.0-19.0-0.3-0.25","12fobu06v4","","12fobu06v4","""2024-11-12T18:59:22.722Z""","null","+","null","","","","","","",""
"","","","","","image-keyboard-response","404","7194987","0.0-19.0-0.3-1.25","12fobu06v4","","12fobu06v4","""2024-11-12T18:59:22.722Z""","1843","materials/imgs/D64.png","arrowleft","","[""materials/imgs/D81.png"",""materials/imgs/D92.png""]","false","random","","",""
"","","","","","html-keyboard-response","405","7195489","0.0-19.0-0.3-0.26","12fobu06v4","","12fobu06v4","""2024-11-12T18:59:22.722Z""","null","+","null","","","","","","",""
"","","","","","image-keyboard-response","406","7196463","0.0-19.0-0.3-1.26","12fobu06v4","","12fobu06v4","""2024-11-12T18:59:22.722Z""","973","materials/imgs/D47.png","arrowright","","[""materials/imgs/D75.png"",""materials/imgs/D14.png""]","false","random","","",""
"","","","","","html-keyboard-response","407","7196964","0.0-19.0-0.3-0.27","12fobu06v4","","12fobu06v4","""2024-11-12T18:59:22.722Z""","null","+","null","","","","","","",""
"","","","","","image-keyboard-response","408","7198164","0.0-19.0-0.3-1.27","12fobu06v4","","12fobu06v4","""2024-11-12T18:59:22.722Z""","1199","materials/imgs/D34.png","arrowleft","","[""materials/imgs/D6.png"",""materials/imgs/D57.png""]","false","random","","",""
"","","","","","html-keyboard-response","409","7198665","0.0-19.0-1.3-0.3","12fobu06v4","","12fobu06v4","""2024-11-12T18:59:22.722Z""","null","+","null","","","","","","",""
"","","","","","image-keyboard-response","410","7199169","0.0-19.0-1.3-1.3","12fobu06v4","","12fobu06v4","""2024-11-12T18:59:22.722Z""","503","materials/imgs/D106.png","arrowleft","","[""materials/imgs/D106.png"",""materials/imgs/D101.png""]","","check","materials/imgs/D106.png","0","true"
"","","","","","html-keyboard-response","411","7199671","0.0-19.0-2.3-0.6","12fobu06v4","","12fobu06v4","""2024-11-12T18:59:22.722Z""","null","+","null","","","","","","",""
"","","","","","image-keyboard-response","412","7201568","0.0-19.0-2.3-1.6","12fobu06v4","","12fobu06v4","""2024-11-12T18:59:22.722Z""","1896","materials/imgs/D64.png","arrowright","","[""materials/imgs/D6.png"",""materials/imgs/D81.png""]","false","validation","","",""
"","","","","","html-keyboard-response","413","7202070","0.0-19.0-2.3-0.7","12fobu06v4","","12fobu06v4","""2024-11-12T18:59:22.722Z""","null","+","null","","","","","","",""
"","","","","","image-keyboard-response","414","7202988","0.0-19.0-2.3-1.7","12fobu06v4","","12fobu06v4","""2024-11-12T18:59:22.722Z""","917","materials/imgs/D24.png","arrowleft","","[""materials/imgs/D36.png"",""materials/imgs/D8.png""]","false","validation","","",""
"","","","","","html-keyboard-response","415","7203490","0.0-19.0-0.4-0.28","12fobu06v4","","12fobu06v4","""2024-11-12T18:59:22.722Z""","null","+","null","","","","","","",""
"","","","","","image-keyboard-response","416","7204184","0.0-19.0-0.4-1.28","12fobu06v4","","12fobu06v4","""2024-11-12T18:59:22.722Z""","693","materials/imgs/D21.png","arrowright","","[""materials/imgs/D35.png"",""materials/imgs/D52.png""]","false","random","","",""
"","","","","","html-keyboard-response","417","7204686","0.0-19.0-0.4-0.29","12fobu06v4","","12fobu06v4","""2024-11-12T18:59:22.722Z""","null","+","null","","","","","","",""
"","","","","","image-keyboard-response","418","7205436","0.0-19.0-0.4-1.29","12fobu06v4","","12fobu06v4","""2024-11-12T18:59:22.722Z""","749","materials/imgs/D19.png","arrowright","","[""materials/imgs/D21.png"",""materials/imgs/D68.png""]","false","random","","",""
"","","","","","html-keyboard-response","419","7205937","0.0-19.0-0.4-0.30","12fobu06v4","","12fobu06v4","""2024-11-12T18:59:22.722Z""","null","+","null","","","","","","",""
"","","","","","image-keyboard-response","420","7206595","0.0-19.0-0.4-1.30","12fobu06v4","","12fobu06v4","""2024-11-12T18:59:22.722Z""","656","materials/imgs/D35.png","arrowleft","","[""materials/imgs/D55.png"",""materials/imgs/D48.png""]","false","random","","",""
"","","","","","html-keyboard-response","421","7207097","0.0-19.0-0.4-0.31","12fobu06v4","","12fobu06v4","""2024-11-12T18:59:22.722Z""","null","+","null","","","","","","",""
"","","","","","image-keyboard-response","422","7208760","0.0-19.0-0.4-1.31","12fobu06v4","","12fobu06v4","""2024-11-12T18:59:22.722Z""","1662","materials/imgs/D101.png","arrowleft","","[""materials/imgs/D8.png"",""materials/imgs/D92.png""]","false","random","","",""
"","","","","","html-keyboard-response","423","7209261","0.0-19.0-0.4-0.32","12fobu06v4","","12fobu06v4","""2024-11-12T18:59:22.722Z""","null","+","null","","","","","","",""
"","","","","","image-keyboard-response","424","7209938","0.0-19.0-0.4-1.32","12fobu06v4","","12fobu06v4","""2024-11-12T18:59:22.722Z""","675","materials/imgs/D77.png","arrowleft","","[""materials/imgs/D19.png"",""materials/imgs/D51.png""]","false","random","","",""
"","","","","","html-keyboard-response","425","7210439","0.0-19.0-0.4-0.33","12fobu06v4","","12fobu06v4","""2024-11-12T18:59:22.722Z""","null","+","null","","","","","","",""
"","","","","","image-keyboard-response","426","7210963","0.0-19.0-0.4-1.33","12fobu06v4","","12fobu06v4","""2024-11-12T18:59:22.722Z""","522","materials/imgs/D24.png","arrowright","","[""materials/imgs/D36.png"",""materials/imgs/D57.png""]","false","random","","",""
"","","","","","html-keyboard-response","427","7211465","0.0-19.0-0.4-0.34","12fobu06v4","","12fobu06v4","""2024-11-12T18:59:22.722Z""","null","+","null","","","","","","",""
"","","","","","image-keyboard-response","428","7212805","0.0-19.0-0.4-1.34","12fobu06v4","","12fobu06v4","""2024-11-12T18:59:22.722Z""","1339","materials/imgs/D103.png","arrowleft","","[""materials/imgs/D1.png"",""materials/imgs/D66.png""]","false","random","","",""
"","","","","","html-keyboard-response","429","7213307","0.0-19.0-1.4-0.4","12fobu06v4","","12fobu06v4","""2024-11-12T18:59:22.722Z""","null","+","null","","","","","","",""
"","","","","","image-keyboard-response","430","7213813","0.0-19.0-1.4-1.4","12fobu06v4","","12fobu06v4","""2024-11-12T18:59:22.722Z""","505","materials/imgs/D78.png","arrowright","","[""materials/imgs/D76.png"",""materials/imgs/D78.png""]","","check","materials/imgs/D78.png","1","true"
"","","","","","html-keyboard-response","431","7214314","0.0-19.0-2.4-0.8","12fobu06v4","","12fobu06v4","""2024-11-12T18:59:22.722Z""","null","+","null","","","","","","",""
"","","","","","image-keyboard-response","432","7215333","0.0-19.0-2.4-1.8","12fobu06v4","","12fobu06v4","""2024-11-12T18:59:22.722Z""","1018","materials/imgs/D76.png","arrowleft","","[""materials/imgs/D83.png"",""materials/imgs/D6.png""]","false","validation","","",""
"","","","","","html-keyboard-response","433","7215834","0.0-19.0-2.4-0.9","12fobu06v4","","12fobu06v4","""2024-11-12T18:59:22.722Z""","null","+","null","","","","","","",""
"","","","","","image-keyboard-response","434","7218058","0.0-19.0-2.4-1.9","12fobu06v4","","12fobu06v4","""2024-11-12T18:59:22.722Z""","2223","materials/imgs/D82.png","arrowleft","","[""materials/imgs/D83.png"",""materials/imgs/D22.png""]","false","validation","","",""
