"success","timeout","failed_images","failed_audio","failed_video","trial_type","trial_index","time_elapsed","internal_node_id","subject_id","sona_id","subjectID","dateInfo","rt","stimulus","response","question_order","choices","speedy","sampleAlg","selected_image","selected_index","correct"
"true","false","[]","[]","[]","preload","0","300","0.0-0.0","1pjaktyd3g","","1pjaktyd3g","""2024-11-13T15:04:56.147Z""","","","","","","","","","",""
"true","","","","","fullscreen","1","2724","0.0-1.0","1pjaktyd3g","","1pjaktyd3g","""2024-11-13T15:04:56.147Z""","","","","","","","","","",""
"","","","","","html-keyboard-response","2","2741","0.0-2.0","1pjaktyd3g","","1pjaktyd3g","""2024-11-13T15:04:56.147Z""","null","","null","","","","","","",""
"","","","","","html-button-response","3","6043","0.0-3.0","1pjaktyd3g","","1pjaktyd3g","""2024-11-13T15:04:56.147Z""","3300","<div style='text-align:center; font-size:20px; line-height:25px; width: 1200px;'>
                Welcome to our experiment! <br>
                <br>At the bottom of this screen, you will see a button that says 'Begin Experiment.
                <br>Please only click that button when you are ready to complete the 25 minute experiment in one sitting. <br>
                <br> Once you click that button, it will not be possible to restart the experiment. <br><br>","0","","","","","","",""
"true","","","","","fullscreen","4","8480","0.0-4.0","1pjaktyd3g","","1pjaktyd3g","""2024-11-13T15:04:56.147Z""","","","","","","","","","",""
"","","","","","survey-multi-select","5","18198","0.0-5.0","1pjaktyd3g","","1pjaktyd3g","""2024-11-13T15:04:56.147Z""","9708","","{""Consent"":[""<strong>I consent</strong>""]}","[0]","","","","","",""
"","","","","","html-button-response","6","19234","0.0-6.0","1pjaktyd3g","","1pjaktyd3g","""2024-11-13T15:04:56.147Z""","1034","Welcome! <p> This experiment involves two parts: demographic information, followed by the experimental task.<p> It will take about 25 minutes to complete both parts.","0","","","","","","",""
"","","","","","survey-text","7","29182","0.0-7.0","1pjaktyd3g","","1pjaktyd3g","""2024-11-13T15:04:56.147Z""","9938","","{""Age"":""19"",""Gender"":""Male"",""Race/ethnicity"":""White""}","","","","","","",""
"","","","","","html-button-response","8","49036","0.0-8.0","1pjaktyd3g","","1pjaktyd3g","""2024-11-13T15:04:56.147Z""","19852","<div style='text-align: center;'>
      <p>In each trial of this task, you will see three texture images: one target item on top, and two choices beneath the target item.</p>
      <p><strong>Please select the item that is most like the target item.</strong></p>
      <p>To select the option on the <strong>LEFT</strong>, press the <strong>LEFT ARROW</strong> key. 
      To select the option on the <strong>RIGHT</strong>, press the <strong>RIGHT ARROW</strong> key.</p>
                  <!-- Target Image at the Top -->
      <div style='margin: 20px;'>
        <img src='materials/imgs/instruction_images/InstructionImg1D78.png' alt='Target Image' style='width:200px; height:auto;' />
        <p><em>Target Image</em></p>
      </div>

      <!-- Two Choice Images Below -->
      <div style='display: flex; justify-content: center;'>
        <div style='margin-right: 50px;'>
          <img src='materials/imgs/instruction_images/InstructionImg2D34.png' alt='Choice Image 1' style='width:150px; height:auto;' />
          <p><em><strong>LEFT ARROW</strong></em></p>
        </div>
        <div style='margin-left: 50px;'>
          <img src='materials/imgs/instruction_images/InstructionImg3D80.png' alt='Choice Image 2' style='width:150px; height:auto;' />
          <p><em><strong>RIGHT ARROW</strong></em></p>
        </div>
      </div>
    </div>

      <p>When you are ready to proceed, please click 'Continue' to begin practice.</p>","0","","","","","","",""
"","","","","","html-keyboard-response","9","51556","0.0-9.0","1pjaktyd3g","","1pjaktyd3g","""2024-11-13T15:04:56.147Z""","null","+","null","","","","","","",""
"","","","","","html-keyboard-response","10","52066","0.0-10.0-0.0-0.0","1pjaktyd3g","","1pjaktyd3g","""2024-11-13T15:04:56.147Z""","null","+","null","","","","","","",""
"","","","","","image-keyboard-response","11","62443","0.0-10.0-0.0-1.0","1pjaktyd3g","","1pjaktyd3g","""2024-11-13T15:04:56.147Z""","10363","materials/imgs/D52.png","arrowleft","","[""materials/imgs/D37.png"",""materials/imgs/D64.png""]","false","random","","",""
"","","","","","html-keyboard-response","12","62959","0.0-10.0-0.0-0.1","1pjaktyd3g","","1pjaktyd3g","""2024-11-13T15:04:56.147Z""","null","+","null","","","","","","",""
"","","","","","image-keyboard-response","13","63727","0.0-10.0-0.0-1.1","1pjaktyd3g","","1pjaktyd3g","""2024-11-13T15:04:56.147Z""","763","materials/imgs/D96.png","arrowright","","[""materials/imgs/D76.png"",""materials/imgs/D16.png""]","false","random","","",""
"","","","","","html-keyboard-response","14","64244","0.0-10.0-0.0-0.2","1pjaktyd3g","","1pjaktyd3g","""2024-11-13T15:04:56.147Z""","null","+","null","","","","","","",""
"","","","","","image-keyboard-response","15","65810","0.0-10.0-0.0-1.2","1pjaktyd3g","","1pjaktyd3g","""2024-11-13T15:04:56.147Z""","1562","materials/imgs/D34.png","arrowright","","[""materials/imgs/D9.png"",""materials/imgs/D49.png""]","false","random","","",""
"","","","","","html-keyboard-response","16","66324","0.0-10.0-0.0-0.3","1pjaktyd3g","","1pjaktyd3g","""2024-11-13T15:04:56.147Z""","null","+","null","","","","","","",""
"","","","","","image-keyboard-response","17","67476","0.0-10.0-0.0-1.3","1pjaktyd3g","","1pjaktyd3g","""2024-11-13T15:04:56.147Z""","1147","materials/imgs/D36.png","arrowleft","","[""materials/imgs/D37.png"",""materials/imgs/D78.png""]","false","random","","",""
"","","","","","html-keyboard-response","18","67983","0.0-10.0-0.0-0.4","1pjaktyd3g","","1pjaktyd3g","""2024-11-13T15:04:56.147Z""","null","+","null","","","","","","",""
"","","","","","image-keyboard-response","19","68847","0.0-10.0-0.0-1.4","1pjaktyd3g","","1pjaktyd3g","""2024-11-13T15:04:56.147Z""","862","materials/imgs/D20.png","arrowright","","[""materials/imgs/D21.png"",""materials/imgs/D57.png""]","false","random","","",""
"","","","","","html-keyboard-response","20","69357","0.0-10.0-0.0-0.5","1pjaktyd3g","","1pjaktyd3g","""2024-11-13T15:04:56.147Z""","null","+","null","","","","","","",""
"","","","","","image-keyboard-response","21","70193","0.0-10.0-0.0-1.5","1pjaktyd3g","","1pjaktyd3g","""2024-11-13T15:04:56.147Z""","832","materials/imgs/D55.png","arrowleft","","[""materials/imgs/D106.png"",""materials/imgs/D46.png""]","false","random","","",""
"","","","","","html-keyboard-response","22","70706","0.0-10.0-0.0-0.6","1pjaktyd3g","","1pjaktyd3g","""2024-11-13T15:04:56.147Z""","null","+","null","","","","","","",""
"","","","","","image-keyboard-response","23","72037","0.0-10.0-0.0-1.6","1pjaktyd3g","","1pjaktyd3g","""2024-11-13T15:04:56.147Z""","1328","materials/imgs/D25.png","arrowright","","[""materials/imgs/D56.png"",""materials/imgs/D11.png""]","false","random","","",""
"","","","","","html-keyboard-response","24","72544","0.0-10.0-0.0-0.7","1pjaktyd3g","","1pjaktyd3g","""2024-11-13T15:04:56.147Z""","null","+","null","","","","","","",""
"","","","","","image-keyboard-response","25","73219","0.0-10.0-0.0-1.7","1pjaktyd3g","","1pjaktyd3g","""2024-11-13T15:04:56.147Z""","671","materials/imgs/D81.png","arrowleft","","[""materials/imgs/D57.png"",""materials/imgs/D55.png""]","false","random","","",""
"","","","","","html-keyboard-response","26","73727","0.0-10.0-0.0-0.8","1pjaktyd3g","","1pjaktyd3g","""2024-11-13T15:04:56.147Z""","null","+","null","","","","","","",""
"","","","","","image-keyboard-response","27","74378","0.0-10.0-0.0-1.8","1pjaktyd3g","","1pjaktyd3g","""2024-11-13T15:04:56.147Z""","647","materials/imgs/D34.png","arrowleft","","[""materials/imgs/D4.png"",""materials/imgs/D64.png""]","false","random","","",""
"","","","","","html-keyboard-response","28","74896","0.0-10.0-0.0-0.9","1pjaktyd3g","","1pjaktyd3g","""2024-11-13T15:04:56.147Z""","null","+","null","","","","","","",""
"","","","","","image-keyboard-response","29","75432","0.0-10.0-0.0-1.9","1pjaktyd3g","","1pjaktyd3g","""2024-11-13T15:04:56.147Z""","533","materials/imgs/D57.png","arrowright","","[""materials/imgs/D29.png"",""materials/imgs/D16.png""]","false","random","","",""
"","","","","","html-button-response","30","81432","0.0-11.0","1pjaktyd3g","","1pjaktyd3g","""2024-11-13T15:04:56.147Z""","5999","<p>Great job!</p>
      <p>You are now ready to begin the experiment.</p>
      <p>There will be around 200 trials. You will have opportunities to take breaks at three stages of the trials.</p>
      <p>When you are ready to begin please click 'Continue'.</p>","0","","","","","","",""
"","","","","","html-keyboard-response","31","83950","0.0-12.0","1pjaktyd3g","","1pjaktyd3g","""2024-11-13T15:04:56.147Z""","null","+","null","","","","","","",""
"","","","","","html-keyboard-response","32","84454","0.0-13.0-0.0-0.0","1pjaktyd3g","","1pjaktyd3g","""2024-11-13T15:04:56.147Z""","null","+","null","","","","","","",""
"","","","","","image-keyboard-response","33","85678","0.0-13.0-0.0-1.0","1pjaktyd3g","","1pjaktyd3g","""2024-11-13T15:04:56.147Z""","1220","materials/imgs/D85.png","arrowleft","","[""materials/imgs/D105.png"",""materials/imgs/D106.png""]","false","random","","",""
"","","","","","html-keyboard-response","34","86192","0.0-13.0-0.0-0.1","1pjaktyd3g","","1pjaktyd3g","""2024-11-13T15:04:56.147Z""","null","+","null","","","","","","",""
"","","","","","image-keyboard-response","35","87257","0.0-13.0-0.0-1.1","1pjaktyd3g","","1pjaktyd3g","""2024-11-13T15:04:56.147Z""","1060","materials/imgs/D52.png","arrowleft","","[""materials/imgs/D24.png"",""materials/imgs/D16.png""]","false","random","","",""
"","","","","","html-keyboard-response","36","87765","0.0-13.0-0.0-0.2","1pjaktyd3g","","1pjaktyd3g","""2024-11-13T15:04:56.147Z""","null","+","null","","","","","","",""
"","","","","","image-keyboard-response","37","88468","0.0-13.0-0.0-1.2","1pjaktyd3g","","1pjaktyd3g","""2024-11-13T15:04:56.147Z""","699","materials/imgs/D26.png","arrowright","","[""materials/imgs/D94.png"",""materials/imgs/D92.png""]","false","random","","",""
"","","","","","html-keyboard-response","38","88985","0.0-13.0-0.0-0.3","1pjaktyd3g","","1pjaktyd3g","""2024-11-13T15:04:56.147Z""","null","+","null","","","","","","",""
"","","","","","image-keyboard-response","39","91138","0.0-13.0-0.0-1.3","1pjaktyd3g","","1pjaktyd3g","""2024-11-13T15:04:56.147Z""","2149","materials/imgs/D75.png","arrowleft","","[""materials/imgs/D21.png"",""materials/imgs/D35.png""]","false","random","","",""
"","","","","","html-keyboard-response","40","91650","0.0-13.0-0.0-0.4","1pjaktyd3g","","1pjaktyd3g","""2024-11-13T15:04:56.147Z""","null","+","null","","","","","","",""
"","","","","","image-keyboard-response","41","92479","0.0-13.0-0.0-1.4","1pjaktyd3g","","1pjaktyd3g","""2024-11-13T15:04:56.147Z""","822","materials/imgs/D56.png","arrowleft","","[""materials/imgs/D37.png"",""materials/imgs/D4.png""]","false","random","","",""
"","","","","","html-keyboard-response","42","92993","0.0-13.0-0.0-0.5","1pjaktyd3g","","1pjaktyd3g","""2024-11-13T15:04:56.147Z""","null","+","null","","","","","","",""
"","","","","","image-keyboard-response","43","93681","0.0-13.0-0.0-1.5","1pjaktyd3g","","1pjaktyd3g","""2024-11-13T15:04:56.147Z""","686","materials/imgs/D75.png","arrowleft","","[""materials/imgs/D96.png"",""materials/imgs/D6.png""]","false","random","","",""
"","","","","","html-keyboard-response","44","94197","0.0-13.0-0.0-0.6","1pjaktyd3g","","1pjaktyd3g","""2024-11-13T15:04:56.147Z""","null","+","null","","","","","","",""
"","","","","","image-keyboard-response","45","95555","0.0-13.0-0.0-1.6","1pjaktyd3g","","1pjaktyd3g","""2024-11-13T15:04:56.147Z""","1353","materials/imgs/D102.png","arrowleft","","[""materials/imgs/D77.png"",""materials/imgs/D35.png""]","false","random","","",""
"","","","","","html-keyboard-response","46","96073","0.0-13.0-1.0-0.0","1pjaktyd3g","","1pjaktyd3g","""2024-11-13T15:04:56.147Z""","null","+","null","","","","","","",""
"","","","","","image-keyboard-response","47","97378","0.0-13.0-1.0-1.0","1pjaktyd3g","","1pjaktyd3g","""2024-11-13T15:04:56.147Z""","1301","materials/imgs/D76.png","arrowleft","","[""materials/imgs/D76.png"",""materials/imgs/D78.png""]","","check","materials/imgs/D76.png","0","true"
"","","","","","html-keyboard-response","48","97883","0.0-13.0-2.0-0.0","1pjaktyd3g","","1pjaktyd3g","""2024-11-13T15:04:56.147Z""","null","+","null","","","","","","",""
"","","","","","image-keyboard-response","49","98752","0.0-13.0-2.0-1.0","1pjaktyd3g","","1pjaktyd3g","""2024-11-13T15:04:56.147Z""","865","materials/imgs/D26.png","arrowright","","[""materials/imgs/D36.png"",""materials/imgs/D92.png""]","false","validation","","",""
"","","","","","html-keyboard-response","50","99263","0.0-13.0-2.0-0.1","1pjaktyd3g","","1pjaktyd3g","""2024-11-13T15:04:56.147Z""","null","+","null","","","","","","",""
"","","","","","image-keyboard-response","51","99750","0.0-13.0-2.0-1.1","1pjaktyd3g","","1pjaktyd3g","""2024-11-13T15:04:56.147Z""","483","materials/imgs/D46.png","arrowleft","","[""materials/imgs/D92.png"",""materials/imgs/D77.png""]","true","validation","","",""
"","","","","","html-keyboard-response","52","105115","0.0-13.0-2.0-2.1-0.1","1pjaktyd3g","","1pjaktyd3g","""2024-11-13T15:04:56.147Z""","5363","<p><strong>You're going too fast.</strong><p>Please slow down and assess each triplet.<p>Press 'y' to continue.</p></p>","y","","","","","","",""
"","","","","","html-keyboard-response","53","105623","0.0-13.0-0.1-0.7","1pjaktyd3g","","1pjaktyd3g","""2024-11-13T15:04:56.147Z""","null","+","null","","","","","","",""
"","","","","","image-keyboard-response","54","108243","0.0-13.0-0.1-1.7","1pjaktyd3g","","1pjaktyd3g","""2024-11-13T15:04:56.147Z""","2615","materials/imgs/D104.png","arrowright","","[""materials/imgs/D80.png"",""materials/imgs/D4.png""]","false","random","","",""
"","","","","","html-keyboard-response","55","108760","0.0-13.0-0.1-0.8","1pjaktyd3g","","1pjaktyd3g","""2024-11-13T15:04:56.147Z""","null","+","null","","","","","","",""
"","","","","","image-keyboard-response","56","111662","0.0-13.0-0.1-1.8","1pjaktyd3g","","1pjaktyd3g","""2024-11-13T15:04:56.147Z""","2898","materials/imgs/D8.png","arrowright","","[""materials/imgs/D102.png"",""materials/imgs/D53.png""]","false","random","","",""
"","","","","","html-keyboard-response","57","112171","0.0-13.0-0.1-0.9","1pjaktyd3g","","1pjaktyd3g","""2024-11-13T15:04:56.147Z""","null","+","null","","","","","","",""
"","","","","","image-keyboard-response","58","115031","0.0-13.0-0.1-1.9","1pjaktyd3g","","1pjaktyd3g","""2024-11-13T15:04:56.147Z""","2857","materials/imgs/D37.png","arrowright","","[""materials/imgs/D87.png"",""materials/imgs/D84.png""]","false","random","","",""
"","","","","","html-keyboard-response","59","115535","0.0-13.0-0.1-0.10","1pjaktyd3g","","1pjaktyd3g","""2024-11-13T15:04:56.147Z""","null","+","null","","","","","","",""
"","","","","","image-keyboard-response","60","117955","0.0-13.0-0.1-1.10","1pjaktyd3g","","1pjaktyd3g","""2024-11-13T15:04:56.147Z""","2416","materials/imgs/D22.png","arrowleft","","[""materials/imgs/D35.png"",""materials/imgs/D79.png""]","false","random","","",""
"","","","","","html-keyboard-response","61","118457","0.0-13.0-0.1-0.11","1pjaktyd3g","","1pjaktyd3g","""2024-11-13T15:04:56.147Z""","null","+","null","","","","","","",""
"","","","","","image-keyboard-response","62","120581","0.0-13.0-0.1-1.11","1pjaktyd3g","","1pjaktyd3g","""2024-11-13T15:04:56.147Z""","2121","materials/imgs/D92.png","arrowright","","[""materials/imgs/D19.png"",""materials/imgs/D81.png""]","false","random","","",""
"","","","","","html-keyboard-response","63","121093","0.0-13.0-0.1-0.12","1pjaktyd3g","","1pjaktyd3g","""2024-11-13T15:04:56.147Z""","null","+","null","","","","","","",""
"","","","","","image-keyboard-response","64","125117","0.0-13.0-0.1-1.12","1pjaktyd3g","","1pjaktyd3g","""2024-11-13T15:04:56.147Z""","4020","materials/imgs/D83.png","arrowright","","[""materials/imgs/D20.png"",""materials/imgs/D57.png""]","false","random","","",""
"","","","","","html-keyboard-response","65","125626","0.0-13.0-0.1-0.13","1pjaktyd3g","","1pjaktyd3g","""2024-11-13T15:04:56.147Z""","null","+","null","","","","","","",""
"","","","","","image-keyboard-response","66","128053","0.0-13.0-0.1-1.13","1pjaktyd3g","","1pjaktyd3g","""2024-11-13T15:04:56.147Z""","2425","materials/imgs/D77.png","arrowright","","[""materials/imgs/D95.png"",""materials/imgs/D16.png""]","false","random","","",""
"","","","","","html-keyboard-response","67","128569","0.0-13.0-1.1-0.1","1pjaktyd3g","","1pjaktyd3g","""2024-11-13T15:04:56.147Z""","null","+","null","","","","","","",""
"","","","","","image-keyboard-response","68","129969","0.0-13.0-1.1-1.1","1pjaktyd3g","","1pjaktyd3g","""2024-11-13T15:04:56.147Z""","1397","materials/imgs/D106.png","arrowleft","","[""materials/imgs/D106.png"",""materials/imgs/D101.png""]","","check","materials/imgs/D106.png","0","true"
"","","","","","html-keyboard-response","69","130487","0.0-13.0-2.1-0.2","1pjaktyd3g","","1pjaktyd3g","""2024-11-13T15:04:56.147Z""","null","+","null","","","","","","",""
"","","","","","image-keyboard-response","70","131814","0.0-13.0-2.1-1.2","1pjaktyd3g","","1pjaktyd3g","""2024-11-13T15:04:56.147Z""","1325","materials/imgs/D75.png","arrowright","","[""materials/imgs/D96.png"",""materials/imgs/D4.png""]","false","validation","","",""
"","","","","","html-keyboard-response","71","132326","0.0-13.0-2.1-0.3","1pjaktyd3g","","1pjaktyd3g","""2024-11-13T15:04:56.147Z""","null","+","null","","","","","","",""
"","","","","","image-keyboard-response","72","133854","0.0-13.0-2.1-1.3","1pjaktyd3g","","1pjaktyd3g","""2024-11-13T15:04:56.147Z""","1526","materials/imgs/D18.png","arrowright","","[""materials/imgs/D32.png"",""materials/imgs/D57.png""]","false","validation","","",""
"","","","","","html-keyboard-response","73","134365","0.0-13.0-0.2-0.14","1pjaktyd3g","","1pjaktyd3g","""2024-11-13T15:04:56.147Z""","null","+","null","","","","","","",""
"","","","","","image-keyboard-response","74","136296","0.0-13.0-0.2-1.14","1pjaktyd3g","","1pjaktyd3g","""2024-11-13T15:04:56.147Z""","1929","materials/imgs/D14.png","arrowleft","","[""materials/imgs/D35.png"",""materials/imgs/D1.png""]","false","random","","",""
"","","","","","html-keyboard-response","75","136812","0.0-13.0-0.2-0.15","1pjaktyd3g","","1pjaktyd3g","""2024-11-13T15:04:56.147Z""","null","+","null","","","","","","",""
"","","","","","image-keyboard-response","76","143059","0.0-13.0-0.2-1.15","1pjaktyd3g","","1pjaktyd3g","""2024-11-13T15:04:56.147Z""","6242","materials/imgs/D53.png","arrowleft","","[""materials/imgs/D52.png"",""materials/imgs/D19.png""]","false","random","","",""
"","","","","","html-keyboard-response","77","143564","0.0-13.0-0.2-0.16","1pjaktyd3g","","1pjaktyd3g","""2024-11-13T15:04:56.147Z""","null","+","null","","","","","","",""
"","","","","","image-keyboard-response","78","144881","0.0-13.0-0.2-1.16","1pjaktyd3g","","1pjaktyd3g","""2024-11-13T15:04:56.147Z""","1313","materials/imgs/D84.png","arrowleft","","[""materials/imgs/D6.png"",""materials/imgs/D68.png""]","false","random","","",""
"","","","","","html-keyboard-response","79","145392","0.0-13.0-0.2-0.17","1pjaktyd3g","","1pjaktyd3g","""2024-11-13T15:04:56.147Z""","null","+","null","","","","","","",""
"","","","","","image-keyboard-response","80","146313","0.0-13.0-0.2-1.17","1pjaktyd3g","","1pjaktyd3g","""2024-11-13T15:04:56.147Z""","916","materials/imgs/D37.png","arrowright","","[""materials/imgs/D105.png"",""materials/imgs/D11.png""]","false","random","","",""
"","","","","","html-keyboard-response","81","146827","0.0-13.0-0.2-0.18","1pjaktyd3g","","1pjaktyd3g","""2024-11-13T15:04:56.147Z""","null","+","null","","","","","","",""
"","","","","","image-keyboard-response","82","147645","0.0-13.0-0.2-1.18","1pjaktyd3g","","1pjaktyd3g","""2024-11-13T15:04:56.147Z""","814","materials/imgs/D103.png","arrowleft","","[""materials/imgs/D56.png"",""materials/imgs/D96.png""]","false","random","","",""
"","","","","","html-keyboard-response","83","148153","0.0-13.0-0.2-0.19","1pjaktyd3g","","1pjaktyd3g","""2024-11-13T15:04:56.147Z""","null","+","null","","","","","","",""
"","","","","","image-keyboard-response","84","149363","0.0-13.0-0.2-1.19","1pjaktyd3g","","1pjaktyd3g","""2024-11-13T15:04:56.147Z""","1205","materials/imgs/D87.png","arrowleft","","[""materials/imgs/D18.png"",""materials/imgs/D21.png""]","false","random","","",""
"","","","","","html-keyboard-response","85","149878","0.0-13.0-0.2-0.20","1pjaktyd3g","","1pjaktyd3g","""2024-11-13T15:04:56.147Z""","null","+","null","","","","","","",""
"","","","","","image-keyboard-response","86","150634","0.0-13.0-0.2-1.20","1pjaktyd3g","","1pjaktyd3g","""2024-11-13T15:04:56.147Z""","751","materials/imgs/D37.png","arrowright","","[""materials/imgs/D25.png"",""materials/imgs/D17.png""]","false","random","","",""
"","","","","","html-keyboard-response","87","151137","0.0-13.0-1.2-0.2","1pjaktyd3g","","1pjaktyd3g","""2024-11-13T15:04:56.147Z""","null","+","null","","","","","","",""
"","","","","","image-keyboard-response","88","151738","0.0-13.0-1.2-1.2","1pjaktyd3g","","1pjaktyd3g","""2024-11-13T15:04:56.147Z""","599","materials/imgs/D76.png","arrowleft","","[""materials/imgs/D76.png"",""materials/imgs/D78.png""]","","check","materials/imgs/D76.png","0","true"
"","","","","","html-keyboard-response","89","152249","0.0-13.0-2.2-0.4","1pjaktyd3g","","1pjaktyd3g","""2024-11-13T15:04:56.147Z""","null","+","null","","","","","","",""
"","","","","","image-keyboard-response","90","152849","0.0-13.0-2.2-1.4","1pjaktyd3g","","1pjaktyd3g","""2024-11-13T15:04:56.147Z""","598","materials/imgs/D76.png","arrowright","","[""materials/imgs/D83.png"",""materials/imgs/D6.png""]","false","validation","","",""
"","","","","","html-keyboard-response","91","153356","0.0-13.0-2.2-0.5","1pjaktyd3g","","1pjaktyd3g","""2024-11-13T15:04:56.147Z""","null","+","null","","","","","","",""
"","","","","","image-keyboard-response","92","154377","0.0-13.0-2.2-1.5","1pjaktyd3g","","1pjaktyd3g","""2024-11-13T15:04:56.147Z""","1020","materials/imgs/D82.png","arrowright","","[""materials/imgs/D83.png"",""materials/imgs/D22.png""]","false","validation","","",""
"","","","","","html-keyboard-response","93","154892","0.0-13.0-0.3-0.21","1pjaktyd3g","","1pjaktyd3g","""2024-11-13T15:04:56.147Z""","null","+","null","","","","","","",""
"","","","","","image-keyboard-response","94","155652","0.0-13.0-0.3-1.21","1pjaktyd3g","","1pjaktyd3g","""2024-11-13T15:04:56.147Z""","758","materials/imgs/D22.png","arrowleft","","[""materials/imgs/D76.png"",""materials/imgs/D3.png""]","false","random","","",""
"","","","","","html-keyboard-response","95","156165","0.0-13.0-0.3-0.22","1pjaktyd3g","","1pjaktyd3g","""2024-11-13T15:04:56.147Z""","null","+","null","","","","","","",""
"","","","","","image-keyboard-response","96","156963","0.0-13.0-0.3-1.22","1pjaktyd3g","","1pjaktyd3g","""2024-11-13T15:04:56.147Z""","795","materials/imgs/D101.png","arrowright","","[""materials/imgs/D87.png"",""materials/imgs/D29.png""]","false","random","","",""
"","","","","","html-keyboard-response","97","157467","0.0-13.0-0.3-0.23","1pjaktyd3g","","1pjaktyd3g","""2024-11-13T15:04:56.147Z""","null","+","null","","","","","","",""
"","","","","","image-keyboard-response","98","158027","0.0-13.0-0.3-1.23","1pjaktyd3g","","1pjaktyd3g","""2024-11-13T15:04:56.147Z""","558","materials/imgs/D106.png","arrowleft","","[""materials/imgs/D78.png"",""materials/imgs/D55.png""]","false","random","","",""
"","","","","","html-keyboard-response","99","158540","0.0-13.0-0.3-0.24","1pjaktyd3g","","1pjaktyd3g","""2024-11-13T15:04:56.147Z""","null","+","null","","","","","","",""
"","","","","","image-keyboard-response","100","159056","0.0-13.0-0.3-1.24","1pjaktyd3g","","1pjaktyd3g","""2024-11-13T15:04:56.147Z""","513","materials/imgs/D36.png","arrowright","","[""materials/imgs/D66.png"",""materials/imgs/D3.png""]","false","random","","",""
"","","","","","html-keyboard-response","101","159565","0.0-13.0-0.3-0.25","1pjaktyd3g","","1pjaktyd3g","""2024-11-13T15:04:56.147Z""","null","+","null","","","","","","",""
"","","","","","image-keyboard-response","102","160330","0.0-13.0-0.3-1.25","1pjaktyd3g","","1pjaktyd3g","""2024-11-13T15:04:56.147Z""","761","materials/imgs/D103.png","arrowleft","","[""materials/imgs/D14.png"",""materials/imgs/D19.png""]","false","random","","",""
"","","","","","html-keyboard-response","103","160847","0.0-13.0-0.3-0.26","1pjaktyd3g","","1pjaktyd3g","""2024-11-13T15:04:56.147Z""","null","+","null","","","","","","",""
"","","","","","image-keyboard-response","104","161820","0.0-13.0-0.3-1.26","1pjaktyd3g","","1pjaktyd3g","""2024-11-13T15:04:56.147Z""","969","materials/imgs/D55.png","arrowleft","","[""materials/imgs/D52.png"",""materials/imgs/D78.png""]","false","random","","",""
"","","","","","html-keyboard-response","105","162337","0.0-13.0-0.3-0.27","1pjaktyd3g","","1pjaktyd3g","""2024-11-13T15:04:56.147Z""","null","+","null","","","","","","",""
"","","","","","image-keyboard-response","106","162993","0.0-13.0-0.3-1.27","1pjaktyd3g","","1pjaktyd3g","""2024-11-13T15:04:56.147Z""","652","materials/imgs/D78.png","arrowright","","[""materials/imgs/D81.png"",""materials/imgs/D57.png""]","false","random","","",""
"","","","","","html-keyboard-response","107","163510","0.0-13.0-1.3-0.3","1pjaktyd3g","","1pjaktyd3g","""2024-11-13T15:04:56.147Z""","null","+","null","","","","","","",""
"","","","","","image-keyboard-response","108","166615","0.0-13.0-1.3-1.3","1pjaktyd3g","","1pjaktyd3g","""2024-11-13T15:04:56.147Z""","3104","materials/imgs/D76.png","arrowright","","[""materials/imgs/D76.png"",""materials/imgs/D78.png""]","","check","materials/imgs/D78.png","1","false"
"","","","","","html-keyboard-response","109","173507","0.0-13.0-1.3-2.3-0.3","1pjaktyd3g","","1pjaktyd3g","""2024-11-13T15:04:56.147Z""","6890","<p><strong>Incorrect!</strong></p>That was an attention check. Please pay attention while completing this task.<p>Press 'y' to continue.</p>","y","","","","","","",""
"","","","","","html-keyboard-response","110","174022","0.0-13.0-2.3-0.6","1pjaktyd3g","","1pjaktyd3g","""2024-11-13T15:04:56.147Z""","null","+","null","","","","","","",""
"","","","","","image-keyboard-response","111","178598","0.0-13.0-2.3-1.6","1pjaktyd3g","","1pjaktyd3g","""2024-11-13T15:04:56.147Z""","4572","materials/imgs/D68.png","arrowright","","[""materials/imgs/D96.png"",""materials/imgs/D48.png""]","false","validation","","",""
"","","","","","html-keyboard-response","112","179102","0.0-13.0-2.3-0.7","1pjaktyd3g","","1pjaktyd3g","""2024-11-13T15:04:56.147Z""","null","+","null","","","","","","",""
"","","","","","image-keyboard-response","113","180028","0.0-13.0-2.3-1.7","1pjaktyd3g","","1pjaktyd3g","""2024-11-13T15:04:56.147Z""","923","materials/imgs/D37.png","arrowleft","","[""materials/imgs/D84.png"",""materials/imgs/D111.png""]","false","validation","","",""
"","","","","","html-keyboard-response","114","180535","0.0-13.0-0.4-0.28","1pjaktyd3g","","1pjaktyd3g","""2024-11-13T15:04:56.147Z""","null","+","null","","","","","","",""
"","","","","","image-keyboard-response","115","181486","0.0-13.0-0.4-1.28","1pjaktyd3g","","1pjaktyd3g","""2024-11-13T15:04:56.147Z""","948","materials/imgs/D49.png","arrowright","","[""materials/imgs/D18.png"",""materials/imgs/D17.png""]","false","random","","",""
"","","","","","html-keyboard-response","116","182001","0.0-13.0-0.4-0.29","1pjaktyd3g","","1pjaktyd3g","""2024-11-13T15:04:56.147Z""","null","+","null","","","","","","",""
"","","","","","image-keyboard-response","117","182746","0.0-13.0-0.4-1.29","1pjaktyd3g","","1pjaktyd3g","""2024-11-13T15:04:56.147Z""","741","materials/imgs/D83.png","arrowleft","","[""materials/imgs/D95.png"",""materials/imgs/D66.png""]","false","random","","",""
"","","","","","html-keyboard-response","118","183249","0.0-13.0-0.4-0.30","1pjaktyd3g","","1pjaktyd3g","""2024-11-13T15:04:56.147Z""","null","+","null","","","","","","",""
"","","","","","image-keyboard-response","119","184009","0.0-13.0-0.4-1.30","1pjaktyd3g","","1pjaktyd3g","""2024-11-13T15:04:56.147Z""","756","materials/imgs/D14.png","arrowleft","","[""materials/imgs/D19.png"",""materials/imgs/D55.png""]","false","random","","",""
"","","","","","html-keyboard-response","120","184511","0.0-13.0-0.4-0.31","1pjaktyd3g","","1pjaktyd3g","""2024-11-13T15:04:56.147Z""","null","+","null","","","","","","",""
"","","","","","image-keyboard-response","121","185499","0.0-13.0-0.4-1.31","1pjaktyd3g","","1pjaktyd3g","""2024-11-13T15:04:56.147Z""","984","materials/imgs/D46.png","arrowright","","[""materials/imgs/D36.png"",""materials/imgs/D17.png""]","false","random","","",""
"","","","","","html-keyboard-response","122","186002","0.0-13.0-0.4-0.32","1pjaktyd3g","","1pjaktyd3g","""2024-11-13T15:04:56.147Z""","null","+","null","","","","","","",""
"","","","","","image-keyboard-response","123","186917","0.0-13.0-0.4-1.32","1pjaktyd3g","","1pjaktyd3g","""2024-11-13T15:04:56.147Z""","911","materials/imgs/D80.png","arrowright","","[""materials/imgs/D46.png"",""materials/imgs/D20.png""]","false","random","","",""
"","","","","","html-keyboard-response","124","187432","0.0-13.0-0.4-0.33","1pjaktyd3g","","1pjaktyd3g","""2024-11-13T15:04:56.147Z""","null","+","null","","","","","","",""
"","","","","","image-keyboard-response","125","188812","0.0-13.0-0.4-1.33","1pjaktyd3g","","1pjaktyd3g","""2024-11-13T15:04:56.147Z""","1378","materials/imgs/D56.png","arrowright","","[""materials/imgs/D48.png"",""materials/imgs/D11.png""]","false","random","","",""
"","","","","","html-keyboard-response","126","189325","0.0-13.0-0.4-0.34","1pjaktyd3g","","1pjaktyd3g","""2024-11-13T15:04:56.147Z""","null","+","null","","","","","","",""
"","","","","","image-keyboard-response","127","190613","0.0-13.0-0.4-1.34","1pjaktyd3g","","1pjaktyd3g","""2024-11-13T15:04:56.147Z""","1285","materials/imgs/D4.png","arrowleft","","[""materials/imgs/D64.png"",""materials/imgs/D16.png""]","false","random","","",""
"","","","","","html-keyboard-response","128","191117","0.0-13.0-1.4-0.4","1pjaktyd3g","","1pjaktyd3g","""2024-11-13T15:04:56.147Z""","null","+","null","","","","","","",""
"","","","","","image-keyboard-response","129","192008","0.0-13.0-1.4-1.4","1pjaktyd3g","","1pjaktyd3g","""2024-11-13T15:04:56.147Z""","887","materials/imgs/D76.png","arrowleft","","[""materials/imgs/D76.png"",""materials/imgs/D78.png""]","","check","materials/imgs/D76.png","0","true"
"","","","","","html-keyboard-response","130","192520","0.0-13.0-2.4-0.8","1pjaktyd3g","","1pjaktyd3g","""2024-11-13T15:04:56.147Z""","null","+","null","","","","","","",""
"","","","","","image-keyboard-response","131","193120","0.0-13.0-2.4-1.8","1pjaktyd3g","","1pjaktyd3g","""2024-11-13T15:04:56.147Z""","597","materials/imgs/D19.png","arrowright","","[""materials/imgs/D111.png"",""materials/imgs/D56.png""]","false","validation","","",""
"","","","","","html-keyboard-response","132","193632","0.0-13.0-2.4-0.9","1pjaktyd3g","","1pjaktyd3g","""2024-11-13T15:04:56.147Z""","null","+","null","","","","","","",""
"","","","","","image-keyboard-response","133","195122","0.0-13.0-2.4-1.9","1pjaktyd3g","","1pjaktyd3g","""2024-11-13T15:04:56.147Z""","1486","materials/imgs/D84.png","arrowright","","[""materials/imgs/D106.png"",""materials/imgs/D37.png""]","false","validation","","",""
"","","","","","html-button-response","134","197214","0.0-14.0","1pjaktyd3g","","1pjaktyd3g","""2024-11-13T15:04:56.147Z""","2088","You have completed 25% of the trials. Please click 'Continue' when you are ready proceed.","0","","","","","","",""
"","","","","","html-keyboard-response","135","197722","0.0-15.0-0.0-0.0","1pjaktyd3g","","1pjaktyd3g","""2024-11-13T15:04:56.147Z""","null","+","null","","","","","","",""
"","","","","","image-keyboard-response","136","198067","0.0-15.0-0.0-1.0","1pjaktyd3g","","1pjaktyd3g","""2024-11-13T15:04:56.147Z""","341","materials/imgs/D35.png","arrowleft","","[""materials/imgs/D79.png"",""materials/imgs/D106.png""]","true","random","","",""
"","","","","","html-keyboard-response","137","201506","0.0-15.0-0.0-2.0-0.0","1pjaktyd3g","","1pjaktyd3g","""2024-11-13T15:04:56.147Z""","3438","<p><strong>You're going too fast.</strong><p>Please slow down and assess each triplet.<p>Press 'y' to continue.</p></p>","y","","","","","","",""
"","","","","","html-keyboard-response","138","202011","0.0-15.0-0.0-0.1","1pjaktyd3g","","1pjaktyd3g","""2024-11-13T15:04:56.147Z""","null","+","null","","","","","","",""
"","","","","","image-keyboard-response","139","203110","0.0-15.0-0.0-1.1","1pjaktyd3g","","1pjaktyd3g","""2024-11-13T15:04:56.147Z""","1098","materials/imgs/D82.png","arrowleft","","[""materials/imgs/D78.png"",""materials/imgs/D1.png""]","false","random","","",""
"","","","","","html-keyboard-response","140","203614","0.0-15.0-0.0-0.2","1pjaktyd3g","","1pjaktyd3g","""2024-11-13T15:04:56.147Z""","null","+","null","","","","","","",""
"","","","","","image-keyboard-response","141","204922","0.0-15.0-0.0-1.2","1pjaktyd3g","","1pjaktyd3g","""2024-11-13T15:04:56.147Z""","1304","materials/imgs/D8.png","arrowright","","[""materials/imgs/D94.png"",""materials/imgs/D55.png""]","false","random","","",""
"","","","","","html-keyboard-response","142","205438","0.0-15.0-0.0-0.3","1pjaktyd3g","","1pjaktyd3g","""2024-11-13T15:04:56.147Z""","null","+","null","","","","","","",""
"","","","","","image-keyboard-response","143","214902","0.0-15.0-0.0-1.3","1pjaktyd3g","","1pjaktyd3g","""2024-11-13T15:04:56.147Z""","9460","materials/imgs/D104.png","arrowright","","[""materials/imgs/D21.png"",""materials/imgs/D3.png""]","false","random","","",""
"","","","","","html-keyboard-response","144","215417","0.0-15.0-0.0-0.4","1pjaktyd3g","","1pjaktyd3g","""2024-11-13T15:04:56.147Z""","null","+","null","","","","","","",""
"","","","","","image-keyboard-response","145","219638","0.0-15.0-0.0-1.4","1pjaktyd3g","","1pjaktyd3g","""2024-11-13T15:04:56.147Z""","4217","materials/imgs/D92.png","arrowright","","[""materials/imgs/D104.png"",""materials/imgs/D24.png""]","false","random","","",""
"","","","","","html-keyboard-response","146","220149","0.0-15.0-0.0-0.5","1pjaktyd3g","","1pjaktyd3g","""2024-11-13T15:04:56.147Z""","null","+","null","","","","","","",""
"","","","","","image-keyboard-response","147","221091","0.0-15.0-0.0-1.5","1pjaktyd3g","","1pjaktyd3g","""2024-11-13T15:04:56.147Z""","938","materials/imgs/D22.png","arrowright","","[""materials/imgs/D1.png"",""materials/imgs/D84.png""]","false","random","","",""
"","","","","","html-keyboard-response","148","221600","0.0-15.0-0.0-0.6","1pjaktyd3g","","1pjaktyd3g","""2024-11-13T15:04:56.147Z""","null","+","null","","","","","","",""
"","","","","","image-keyboard-response","149","224091","0.0-15.0-0.0-1.6","1pjaktyd3g","","1pjaktyd3g","""2024-11-13T15:04:56.147Z""","2487","materials/imgs/D81.png","arrowleft","","[""materials/imgs/D3.png"",""materials/imgs/D48.png""]","false","random","","",""
"","","","","","html-keyboard-response","150","224601","0.0-15.0-1.0-0.0","1pjaktyd3g","","1pjaktyd3g","""2024-11-13T15:04:56.147Z""","null","+","null","","","","","","",""
"","","","","","image-keyboard-response","151","225640","0.0-15.0-1.0-1.0","1pjaktyd3g","","1pjaktyd3g","""2024-11-13T15:04:56.147Z""","1035","materials/imgs/D106.png","arrowleft","","[""materials/imgs/D106.png"",""materials/imgs/D101.png""]","","check","materials/imgs/D106.png","0","true"
"","","","","","html-keyboard-response","152","226152","0.0-15.0-2.0-0.0","1pjaktyd3g","","1pjaktyd3g","""2024-11-13T15:04:56.147Z""","null","+","null","","","","","","",""
"","","","","","image-keyboard-response","153","227049","0.0-15.0-2.0-1.0","1pjaktyd3g","","1pjaktyd3g","""2024-11-13T15:04:56.147Z""","894","materials/imgs/D66.png","arrowleft","","[""materials/imgs/D85.png"",""materials/imgs/D25.png""]","false","validation","","",""
"","","","","","html-keyboard-response","154","227567","0.0-15.0-2.0-0.1","1pjaktyd3g","","1pjaktyd3g","""2024-11-13T15:04:56.147Z""","null","+","null","","","","","","",""
"","","","","","image-keyboard-response","155","228786","0.0-15.0-2.0-1.1","1pjaktyd3g","","1pjaktyd3g","""2024-11-13T15:04:56.147Z""","1216","materials/imgs/D48.png","arrowleft","","[""materials/imgs/D4.png"",""materials/imgs/D37.png""]","false","validation","","",""
"","","","","","html-keyboard-response","156","229299","0.0-15.0-0.1-0.7","1pjaktyd3g","","1pjaktyd3g","""2024-11-13T15:04:56.147Z""","null","+","null","","","","","","",""
"","","","","","image-keyboard-response","157","230180","0.0-15.0-0.1-1.7","1pjaktyd3g","","1pjaktyd3g","""2024-11-13T15:04:56.147Z""","876","materials/imgs/D77.png","arrowright","","[""materials/imgs/D78.png"",""materials/imgs/D68.png""]","false","random","","",""
"","","","","","html-keyboard-response","158","230704","0.0-15.0-0.1-0.8","1pjaktyd3g","","1pjaktyd3g","""2024-11-13T15:04:56.147Z""","null","+","null","","","","","","",""
"","","","","","image-keyboard-response","159","231982","0.0-15.0-0.1-1.8","1pjaktyd3g","","1pjaktyd3g","""2024-11-13T15:04:56.147Z""","1253","materials/imgs/D34.png","arrowleft","","[""materials/imgs/D56.png"",""materials/imgs/D96.png""]","false","random","","",""
"","","","","","html-keyboard-response","160","232500","0.0-15.0-0.1-0.9","1pjaktyd3g","","1pjaktyd3g","""2024-11-13T15:04:56.147Z""","null","+","null","","","","","","",""
"","","","","","image-keyboard-response","161","233532","0.0-15.0-0.1-1.9","1pjaktyd3g","","1pjaktyd3g","""2024-11-13T15:04:56.147Z""","1030","materials/imgs/D8.png","arrowright","","[""materials/imgs/D17.png"",""materials/imgs/D79.png""]","false","random","","",""
"","","","","","html-keyboard-response","162","234047","0.0-15.0-0.1-0.10","1pjaktyd3g","","1pjaktyd3g","""2024-11-13T15:04:56.147Z""","null","+","null","","","","","","",""
"","","","","","image-keyboard-response","163","234834","0.0-15.0-0.1-1.10","1pjaktyd3g","","1pjaktyd3g","""2024-11-13T15:04:56.147Z""","783","materials/imgs/D8.png","arrowleft","","[""materials/imgs/D17.png"",""materials/imgs/D53.png""]","false","random","","",""
"","","","","","html-keyboard-response","164","235349","0.0-15.0-0.1-0.11","1pjaktyd3g","","1pjaktyd3g","""2024-11-13T15:04:56.147Z""","null","+","null","","","","","","",""
"","","","","","image-keyboard-response","165","236349","0.0-15.0-0.1-1.11","1pjaktyd3g","","1pjaktyd3g","""2024-11-13T15:04:56.147Z""","996","materials/imgs/D24.png","arrowright","","[""materials/imgs/D22.png"",""materials/imgs/D4.png""]","false","random","","",""
"","","","","","html-keyboard-response","166","236855","0.0-15.0-0.1-0.12","1pjaktyd3g","","1pjaktyd3g","""2024-11-13T15:04:56.147Z""","null","+","null","","","","","","",""
"","","","","","image-keyboard-response","167","237794","0.0-15.0-0.1-1.12","1pjaktyd3g","","1pjaktyd3g","""2024-11-13T15:04:56.147Z""","935","materials/imgs/D68.png","arrowleft","","[""materials/imgs/D35.png"",""materials/imgs/D6.png""]","false","random","","",""
"","","","","","html-keyboard-response","168","238310","0.0-15.0-0.1-0.13","1pjaktyd3g","","1pjaktyd3g","""2024-11-13T15:04:56.147Z""","null","+","null","","","","","","",""
"","","","","","image-keyboard-response","169","239013","0.0-15.0-0.1-1.13","1pjaktyd3g","","1pjaktyd3g","""2024-11-13T15:04:56.147Z""","700","materials/imgs/D87.png","arrowleft","","[""materials/imgs/D84.png"",""materials/imgs/D24.png""]","false","random","","",""
"","","","","","html-keyboard-response","170","239521","0.0-15.0-1.1-0.1","1pjaktyd3g","","1pjaktyd3g","""2024-11-13T15:04:56.147Z""","null","+","null","","","","","","",""
"","","","","","image-keyboard-response","171","240700","0.0-15.0-1.1-1.1","1pjaktyd3g","","1pjaktyd3g","""2024-11-13T15:04:56.147Z""","1177","materials/imgs/D18.png","arrowright","","[""materials/imgs/D8.png"",""materials/imgs/D18.png""]","","check","materials/imgs/D18.png","1","true"
"","","","","","html-keyboard-response","172","241203","0.0-15.0-2.1-0.2","1pjaktyd3g","","1pjaktyd3g","""2024-11-13T15:04:56.147Z""","null","+","null","","","","","","",""
"","","","","","image-keyboard-response","173","242458","0.0-15.0-2.1-1.2","1pjaktyd3g","","1pjaktyd3g","""2024-11-13T15:04:56.147Z""","1253","materials/imgs/D25.png","arrowleft","","[""materials/imgs/D103.png"",""materials/imgs/D64.png""]","false","validation","","",""
"","","","","","html-keyboard-response","174","242971","0.0-15.0-2.1-0.3","1pjaktyd3g","","1pjaktyd3g","""2024-11-13T15:04:56.147Z""","null","+","null","","","","","","",""
"","","","","","image-keyboard-response","175","244478","0.0-15.0-2.1-1.3","1pjaktyd3g","","1pjaktyd3g","""2024-11-13T15:04:56.147Z""","1505","materials/imgs/D102.png","arrowright","","[""materials/imgs/D32.png"",""materials/imgs/D111.png""]","false","validation","","",""
"","","","","","html-keyboard-response","176","244984","0.0-15.0-0.2-0.14","1pjaktyd3g","","1pjaktyd3g","""2024-11-13T15:04:56.147Z""","null","+","null","","","","","","",""
"","","","","","image-keyboard-response","177","246349","0.0-15.0-0.2-1.14","1pjaktyd3g","","1pjaktyd3g","""2024-11-13T15:04:56.147Z""","1363","materials/imgs/D104.png","arrowleft","","[""materials/imgs/D9.png"",""materials/imgs/D87.png""]","false","random","","",""
"","","","","","html-keyboard-response","178","246852","0.0-15.0-0.2-0.15","1pjaktyd3g","","1pjaktyd3g","""2024-11-13T15:04:56.147Z""","null","+","null","","","","","","",""
"","","","","","image-keyboard-response","179","248382","0.0-15.0-0.2-1.15","1pjaktyd3g","","1pjaktyd3g","""2024-11-13T15:04:56.147Z""","1526","materials/imgs/D49.png","arrowleft","","[""materials/imgs/D17.png"",""materials/imgs/D20.png""]","false","random","","",""
"","","","","","html-keyboard-response","180","248888","0.0-15.0-0.2-0.16","1pjaktyd3g","","1pjaktyd3g","""2024-11-13T15:04:56.147Z""","null","+","null","","","","","","",""
"","","","","","image-keyboard-response","181","249700","0.0-15.0-0.2-1.16","1pjaktyd3g","","1pjaktyd3g","""2024-11-13T15:04:56.147Z""","807","materials/imgs/D74.png","arrowleft","","[""materials/imgs/D53.png"",""materials/imgs/D48.png""]","false","random","","",""
"","","","","","html-keyboard-response","182","250210","0.0-15.0-0.2-0.17","1pjaktyd3g","","1pjaktyd3g","""2024-11-13T15:04:56.147Z""","null","+","null","","","","","","",""
"","","","","","image-keyboard-response","183","251365","0.0-15.0-0.2-1.17","1pjaktyd3g","","1pjaktyd3g","""2024-11-13T15:04:56.147Z""","1152","materials/imgs/D17.png","arrowleft","","[""materials/imgs/D57.png"",""materials/imgs/D82.png""]","false","random","","",""
"","","","","","html-keyboard-response","184","251882","0.0-15.0-0.2-0.18","1pjaktyd3g","","1pjaktyd3g","""2024-11-13T15:04:56.147Z""","null","+","null","","","","","","",""
"","","","","","image-keyboard-response","185","252907","0.0-15.0-0.2-1.18","1pjaktyd3g","","1pjaktyd3g","""2024-11-13T15:04:56.147Z""","1020","materials/imgs/D56.png","arrowleft","","[""materials/imgs/D80.png"",""materials/imgs/D87.png""]","false","random","","",""
"","","","","","html-keyboard-response","186","253424","0.0-15.0-0.2-0.19","1pjaktyd3g","","1pjaktyd3g","""2024-11-13T15:04:56.147Z""","null","+","null","","","","","","",""
"","","","","","image-keyboard-response","187","254345","0.0-15.0-0.2-1.19","1pjaktyd3g","","1pjaktyd3g","""2024-11-13T15:04:56.147Z""","918","materials/imgs/D48.png","arrowleft","","[""materials/imgs/D22.png"",""materials/imgs/D64.png""]","false","random","","",""
"","","","","","html-keyboard-response","188","254850","0.0-15.0-0.2-0.20","1pjaktyd3g","","1pjaktyd3g","""2024-11-13T15:04:56.147Z""","null","+","null","","","","","","",""
"","","","","","image-keyboard-response","189","255732","0.0-15.0-0.2-1.20","1pjaktyd3g","","1pjaktyd3g","""2024-11-13T15:04:56.147Z""","876","materials/imgs/D29.png","arrowright","","[""materials/imgs/D101.png"",""materials/imgs/D19.png""]","false","random","","",""
"","","","","","html-keyboard-response","190","256248","0.0-15.0-1.2-0.2","1pjaktyd3g","","1pjaktyd3g","""2024-11-13T15:04:56.147Z""","null","+","null","","","","","","",""
"","","","","","image-keyboard-response","191","257026","0.0-15.0-1.2-1.2","1pjaktyd3g","","1pjaktyd3g","""2024-11-13T15:04:56.147Z""","774","materials/imgs/D53.png","arrowright","","[""materials/imgs/D64.png"",""materials/imgs/D53.png""]","","check","materials/imgs/D53.png","1","true"
"","","","","","html-keyboard-response","192","257531","0.0-15.0-2.2-0.4","1pjaktyd3g","","1pjaktyd3g","""2024-11-13T15:04:56.147Z""","null","+","null","","","","","","",""
"","","","","","image-keyboard-response","193","258228","0.0-15.0-2.2-1.4","1pjaktyd3g","","1pjaktyd3g","""2024-11-13T15:04:56.147Z""","693","materials/imgs/D64.png","arrowright","","[""materials/imgs/D6.png"",""materials/imgs/D81.png""]","false","validation","","",""
"","","","","","html-keyboard-response","194","258734","0.0-15.0-2.2-0.5","1pjaktyd3g","","1pjaktyd3g","""2024-11-13T15:04:56.147Z""","null","+","null","","","","","","",""
"","","","","","image-keyboard-response","195","259597","0.0-15.0-2.2-1.5","1pjaktyd3g","","1pjaktyd3g","""2024-11-13T15:04:56.147Z""","859","materials/imgs/D20.png","arrowleft","","[""materials/imgs/D84.png"",""materials/imgs/D85.png""]","false","validation","","",""
"","","","","","html-keyboard-response","196","260106","0.0-15.0-0.3-0.21","1pjaktyd3g","","1pjaktyd3g","""2024-11-13T15:04:56.147Z""","null","+","null","","","","","","",""
"","","","","","image-keyboard-response","197","260934","0.0-15.0-0.3-1.21","1pjaktyd3g","","1pjaktyd3g","""2024-11-13T15:04:56.147Z""","825","materials/imgs/D80.png","arrowright","","[""materials/imgs/D68.png"",""materials/imgs/D20.png""]","false","random","","",""
"","","","","","html-keyboard-response","198","261436","0.0-15.0-0.3-0.22","1pjaktyd3g","","1pjaktyd3g","""2024-11-13T15:04:56.147Z""","null","+","null","","","","","","",""
"","","","","","image-keyboard-response","199","262434","0.0-15.0-0.3-1.22","1pjaktyd3g","","1pjaktyd3g","""2024-11-13T15:04:56.147Z""","989","materials/imgs/D6.png","arrowleft","","[""materials/imgs/D105.png"",""materials/imgs/D96.png""]","false","random","","",""
"","","","","","html-keyboard-response","200","262940","0.0-15.0-0.3-0.23","1pjaktyd3g","","1pjaktyd3g","""2024-11-13T15:04:56.147Z""","null","+","null","","","","","","",""
"","","","","","image-keyboard-response","201","265140","0.0-15.0-0.3-1.23","1pjaktyd3g","","1pjaktyd3g","""2024-11-13T15:04:56.147Z""","2195","materials/imgs/D92.png","arrowleft","","[""materials/imgs/D6.png"",""materials/imgs/D83.png""]","false","random","","",""
"","","","","","html-keyboard-response","202","265644","0.0-15.0-0.3-0.24","1pjaktyd3g","","1pjaktyd3g","""2024-11-13T15:04:56.147Z""","null","+","null","","","","","","",""
"","","","","","image-keyboard-response","203","266550","0.0-15.0-0.3-1.24","1pjaktyd3g","","1pjaktyd3g","""2024-11-13T15:04:56.147Z""","900","materials/imgs/D77.png","arrowright","","[""materials/imgs/D80.png"",""materials/imgs/D21.png""]","false","random","","",""
"","","","","","html-keyboard-response","204","267059","0.0-15.0-0.3-0.25","1pjaktyd3g","","1pjaktyd3g","""2024-11-13T15:04:56.147Z""","null","+","null","","","","","","",""
"","","","","","image-keyboard-response","205","267830","0.0-15.0-0.3-1.25","1pjaktyd3g","","1pjaktyd3g","""2024-11-13T15:04:56.147Z""","768","materials/imgs/D8.png","arrowleft","","[""materials/imgs/D76.png"",""materials/imgs/D18.png""]","false","random","","",""
"","","","","","html-keyboard-response","206","268337","0.0-15.0-0.3-0.26","1pjaktyd3g","","1pjaktyd3g","""2024-11-13T15:04:56.147Z""","null","+","null","","","","","","",""
"","","","","","image-keyboard-response","207","270198","0.0-15.0-0.3-1.26","1pjaktyd3g","","1pjaktyd3g","""2024-11-13T15:04:56.147Z""","1857","materials/imgs/D82.png","arrowleft","","[""materials/imgs/D32.png"",""materials/imgs/D8.png""]","false","random","","",""
"","","","","","html-keyboard-response","208","270705","0.0-15.0-0.3-0.27","1pjaktyd3g","","1pjaktyd3g","""2024-11-13T15:04:56.147Z""","null","+","null","","","","","","",""
"","","","","","image-keyboard-response","209","271107","0.0-15.0-0.3-1.27","1pjaktyd3g","","1pjaktyd3g","""2024-11-13T15:04:56.147Z""","398","materials/imgs/D77.png","arrowright","","[""materials/imgs/D32.png"",""materials/imgs/D66.png""]","true","random","","",""
"","","","","","html-keyboard-response","210","274078","0.0-15.0-0.3-2.27-0.27","1pjaktyd3g","","1pjaktyd3g","""2024-11-13T15:04:56.147Z""","2969","<p><strong>You're going too fast.</strong><p>Please slow down and assess each triplet.<p>Press 'y' to continue.</p></p>","y","","","","","","",""
"","","","","","html-keyboard-response","211","274580","0.0-15.0-1.3-0.3","1pjaktyd3g","","1pjaktyd3g","""2024-11-13T15:04:56.147Z""","null","+","null","","","","","","",""
"","","","","","image-keyboard-response","212","275754","0.0-15.0-1.3-1.3","1pjaktyd3g","","1pjaktyd3g","""2024-11-13T15:04:56.147Z""","1172","materials/imgs/D101.png","arrowleft","","[""materials/imgs/D106.png"",""materials/imgs/D101.png""]","","check","materials/imgs/D106.png","0","false"
"","","","","","html-keyboard-response","213","279079","0.0-15.0-1.3-2.3-0.3","1pjaktyd3g","","1pjaktyd3g","""2024-11-13T15:04:56.147Z""","3324","<p><strong>Incorrect!</strong></p>That was an attention check. Please pay attention while completing this task.<p>Press 'y' to continue.</p>","y","","","","","","",""
"","","","","","html-keyboard-response","214","279585","0.0-15.0-2.3-0.6","1pjaktyd3g","","1pjaktyd3g","""2024-11-13T15:04:56.147Z""","null","+","null","","","","","","",""
"","","","","","image-keyboard-response","215","279833","0.0-15.0-2.3-1.6","1pjaktyd3g","","1pjaktyd3g","""2024-11-13T15:04:56.147Z""","245","materials/imgs/D51.png","arrowright","","[""materials/imgs/D92.png"",""materials/imgs/D20.png""]","true","validation","","",""
"","","","","","html-keyboard-response","216","281582","0.0-15.0-2.3-2.6-0.6","1pjaktyd3g","","1pjaktyd3g","""2024-11-13T15:04:56.147Z""","1747","<p><strong>You're going too fast.</strong><p>Please slow down and assess each triplet.<p>Press 'y' to continue.</p></p>","y","","","","","","",""
"","","","","","html-keyboard-response","217","282083","0.0-15.0-2.3-0.7","1pjaktyd3g","","1pjaktyd3g","""2024-11-13T15:04:56.147Z""","null","+","null","","","","","","",""
"","","","","","image-keyboard-response","218","285250","0.0-15.0-2.3-1.7","1pjaktyd3g","","1pjaktyd3g","""2024-11-13T15:04:56.147Z""","3165","materials/imgs/D11.png","arrowleft","","[""materials/imgs/D83.png"",""materials/imgs/D48.png""]","false","validation","","",""
"","","","","","html-keyboard-response","219","285756","0.0-15.0-0.4-0.28","1pjaktyd3g","","1pjaktyd3g","""2024-11-13T15:04:56.147Z""","null","+","null","","","","","","",""
"","","","","","image-keyboard-response","220","287419","0.0-15.0-0.4-1.28","1pjaktyd3g","","1pjaktyd3g","""2024-11-13T15:04:56.147Z""","1658","materials/imgs/D65.png","arrowleft","","[""materials/imgs/D19.png"",""materials/imgs/D6.png""]","false","random","","",""
"","","","","","html-keyboard-response","221","287925","0.0-15.0-0.4-0.29","1pjaktyd3g","","1pjaktyd3g","""2024-11-13T15:04:56.147Z""","null","+","null","","","","","","",""
"","","","","","image-keyboard-response","222","291927","0.0-15.0-0.4-1.29","1pjaktyd3g","","1pjaktyd3g","""2024-11-13T15:04:56.147Z""","3998","materials/imgs/D22.png","arrowleft","","[""materials/imgs/D92.png"",""materials/imgs/D87.png""]","false","random","","",""
"","","","","","html-keyboard-response","223","292434","0.0-15.0-0.4-0.30","1pjaktyd3g","","1pjaktyd3g","""2024-11-13T15:04:56.147Z""","null","+","null","","","","","","",""
"","","","","","image-keyboard-response","224","293427","0.0-15.0-0.4-1.30","1pjaktyd3g","","1pjaktyd3g","""2024-11-13T15:04:56.147Z""","987","materials/imgs/D49.png","arrowleft","","[""materials/imgs/D19.png"",""materials/imgs/D79.png""]","false","random","","",""
"","","","","","html-keyboard-response","225","293938","0.0-15.0-0.4-0.31","1pjaktyd3g","","1pjaktyd3g","""2024-11-13T15:04:56.147Z""","null","+","null","","","","","","",""
"","","","","","image-keyboard-response","226","294651","0.0-15.0-0.4-1.31","1pjaktyd3g","","1pjaktyd3g","""2024-11-13T15:04:56.147Z""","710","materials/imgs/D22.png","arrowleft","","[""materials/imgs/D21.png"",""materials/imgs/D48.png""]","false","random","","",""
"","","","","","html-keyboard-response","227","295156","0.0-15.0-0.4-0.32","1pjaktyd3g","","1pjaktyd3g","""2024-11-13T15:04:56.147Z""","null","+","null","","","","","","",""
"","","","","","image-keyboard-response","228","296435","0.0-15.0-0.4-1.32","1pjaktyd3g","","1pjaktyd3g","""2024-11-13T15:04:56.147Z""","1274","materials/imgs/D34.png","arrowleft","","[""materials/imgs/D103.png"",""materials/imgs/D47.png""]","false","random","","",""
"","","","","","html-keyboard-response","229","296944","0.0-15.0-0.4-0.33","1pjaktyd3g","","1pjaktyd3g","""2024-11-13T15:04:56.147Z""","null","+","null","","","","","","",""
"","","","","","image-keyboard-response","230","298089","0.0-15.0-0.4-1.33","1pjaktyd3g","","1pjaktyd3g","""2024-11-13T15:04:56.147Z""","1140","materials/imgs/D76.png","arrowleft","","[""materials/imgs/D80.png"",""materials/imgs/D6.png""]","false","random","","",""
"","","","","","html-keyboard-response","231","298598","0.0-15.0-0.4-0.34","1pjaktyd3g","","1pjaktyd3g","""2024-11-13T15:04:56.147Z""","null","+","null","","","","","","",""
"","","","","","image-keyboard-response","232","299819","0.0-15.0-0.4-1.34","1pjaktyd3g","","1pjaktyd3g","""2024-11-13T15:04:56.147Z""","1218","materials/imgs/D36.png","arrowleft","","[""materials/imgs/D64.png"",""materials/imgs/D18.png""]","false","random","","",""
"","","","","","html-keyboard-response","233","300326","0.0-15.0-1.4-0.4","1pjaktyd3g","","1pjaktyd3g","""2024-11-13T15:04:56.147Z""","null","+","null","","","","","","",""
"","","","","","image-keyboard-response","234","301616","0.0-15.0-1.4-1.4","1pjaktyd3g","","1pjaktyd3g","""2024-11-13T15:04:56.147Z""","1286","materials/imgs/D53.png","arrowleft","","[""materials/imgs/D64.png"",""materials/imgs/D53.png""]","","check","materials/imgs/D64.png","0","false"
"","","","","","html-keyboard-response","235","304982","0.0-15.0-1.4-2.4-0.4","1pjaktyd3g","","1pjaktyd3g","""2024-11-13T15:04:56.147Z""","3364","<p><strong>Incorrect!</strong></p>That was an attention check. Please pay attention while completing this task.<p>Press 'y' to continue.</p>","y","","","","","","",""
"","","","","","html-keyboard-response","236","305487","0.0-15.0-2.4-0.8","1pjaktyd3g","","1pjaktyd3g","""2024-11-13T15:04:56.147Z""","null","+","null","","","","","","",""
"","","","","","image-keyboard-response","237","306208","0.0-15.0-2.4-1.8","1pjaktyd3g","","1pjaktyd3g","""2024-11-13T15:04:56.147Z""","718","materials/imgs/D6.png","arrowright","","[""materials/imgs/D26.png"",""materials/imgs/D76.png""]","false","validation","","",""
"","","","","","html-keyboard-response","238","306714","0.0-15.0-2.4-0.9","1pjaktyd3g","","1pjaktyd3g","""2024-11-13T15:04:56.147Z""","null","+","null","","","","","","",""
"","","","","","image-keyboard-response","239","307976","0.0-15.0-2.4-1.9","1pjaktyd3g","","1pjaktyd3g","""2024-11-13T15:04:56.147Z""","1259","materials/imgs/D85.png","arrowright","","[""materials/imgs/D6.png"",""materials/imgs/D111.png""]","false","validation","","",""
"","","","","","html-button-response","240","310692","0.0-16.0","1pjaktyd3g","","1pjaktyd3g","""2024-11-13T15:04:56.147Z""","2713","You have completed 50% of the trials. Please click 'Continue' when you are ready proceed.","0","","","","","","",""
"","","","","","html-keyboard-response","241","311203","0.0-17.0-0.0-0.0","1pjaktyd3g","","1pjaktyd3g","""2024-11-13T15:04:56.147Z""","null","+","null","","","","","","",""
"","","","","","image-keyboard-response","242","311747","0.0-17.0-0.0-1.0","1pjaktyd3g","","1pjaktyd3g","""2024-11-13T15:04:56.147Z""","540","materials/imgs/D35.png","arrowleft","","[""materials/imgs/D106.png"",""materials/imgs/D48.png""]","false","random","","",""
"","","","","","html-keyboard-response","243","312257","0.0-17.0-0.0-0.1","1pjaktyd3g","","1pjaktyd3g","""2024-11-13T15:04:56.147Z""","null","+","null","","","","","","",""
"","","","","","image-keyboard-response","244","312998","0.0-17.0-0.0-1.1","1pjaktyd3g","","1pjaktyd3g","""2024-11-13T15:04:56.147Z""","737","materials/imgs/D47.png","arrowright","","[""materials/imgs/D8.png"",""materials/imgs/D76.png""]","false","random","","",""
"","","","","","html-keyboard-response","245","313507","0.0-17.0-0.0-0.2","1pjaktyd3g","","1pjaktyd3g","""2024-11-13T15:04:56.147Z""","null","+","null","","","","","","",""
"","","","","","image-keyboard-response","246","314351","0.0-17.0-0.0-1.2","1pjaktyd3g","","1pjaktyd3g","""2024-11-13T15:04:56.147Z""","841","materials/imgs/D25.png","arrowright","","[""materials/imgs/D102.png"",""materials/imgs/D84.png""]","false","random","","",""
"","","","","","html-keyboard-response","247","314866","0.0-17.0-0.0-0.3","1pjaktyd3g","","1pjaktyd3g","""2024-11-13T15:04:56.147Z""","null","+","null","","","","","","",""
"","","","","","image-keyboard-response","248","315458","0.0-17.0-0.0-1.3","1pjaktyd3g","","1pjaktyd3g","""2024-11-13T15:04:56.147Z""","586","materials/imgs/D68.png","arrowright","","[""materials/imgs/D17.png"",""materials/imgs/D55.png""]","false","random","","",""
"","","","","","html-keyboard-response","249","315972","0.0-17.0-0.0-0.4","1pjaktyd3g","","1pjaktyd3g","""2024-11-13T15:04:56.147Z""","null","+","null","","","","","","",""
"","","","","","image-keyboard-response","250","316575","0.0-17.0-0.0-1.4","1pjaktyd3g","","1pjaktyd3g","""2024-11-13T15:04:56.147Z""","601","materials/imgs/D3.png","arrowleft","","[""materials/imgs/D103.png"",""materials/imgs/D68.png""]","false","random","","",""
"","","","","","html-keyboard-response","251","317077","0.0-17.0-0.0-0.5","1pjaktyd3g","","1pjaktyd3g","""2024-11-13T15:04:56.147Z""","null","+","null","","","","","","",""
"","","","","","image-keyboard-response","252","317523","0.0-17.0-0.0-1.5","1pjaktyd3g","","1pjaktyd3g","""2024-11-13T15:04:56.147Z""","444","materials/imgs/D106.png","arrowright","","[""materials/imgs/D22.png"",""materials/imgs/D102.png""]","true","random","","",""
"","","","","","html-keyboard-response","253","318972","0.0-17.0-0.0-2.5-0.5","1pjaktyd3g","","1pjaktyd3g","""2024-11-13T15:04:56.147Z""","1447","<p><strong>You're going too fast.</strong><p>Please slow down and assess each triplet.<p>Press 'y' to continue.</p></p>","y","","","","","","",""
"","","","","","html-keyboard-response","254","319481","0.0-17.0-0.0-0.6","1pjaktyd3g","","1pjaktyd3g","""2024-11-13T15:04:56.147Z""","null","+","null","","","","","","",""
"","","","","","image-keyboard-response","255","319791","0.0-17.0-0.0-1.6","1pjaktyd3g","","1pjaktyd3g","""2024-11-13T15:04:56.147Z""","308","materials/imgs/D102.png","arrowleft","","[""materials/imgs/D49.png"",""materials/imgs/D83.png""]","true","random","","",""
"","","","","","html-keyboard-response","256","320986","0.0-17.0-0.0-2.6-0.6","1pjaktyd3g","","1pjaktyd3g","""2024-11-13T15:04:56.147Z""","1193","<p><strong>You're going too fast.</strong><p>Please slow down and assess each triplet.<p>Press 'y' to continue.</p></p>","y","","","","","","",""
"","","","","","html-keyboard-response","257","321501","0.0-17.0-1.0-0.0","1pjaktyd3g","","1pjaktyd3g","""2024-11-13T15:04:56.147Z""","null","+","null","","","","","","",""
"","","","","","image-keyboard-response","258","322684","0.0-17.0-1.0-1.0","1pjaktyd3g","","1pjaktyd3g","""2024-11-13T15:04:56.147Z""","1181","materials/imgs/D101.png","arrowleft","","[""materials/imgs/D106.png"",""materials/imgs/D101.png""]","","check","materials/imgs/D106.png","0","false"
"","","","","","html-keyboard-response","259","324599","0.0-17.0-1.0-2.0-0.0","1pjaktyd3g","","1pjaktyd3g","""2024-11-13T15:04:56.147Z""","1913","<p><strong>Incorrect!</strong></p>That was an attention check. Please pay attention while completing this task.<p>Press 'y' to continue.</p>","y","","","","","","",""
"","","","","","html-keyboard-response","260","325118","0.0-17.0-2.0-0.0","1pjaktyd3g","","1pjaktyd3g","""2024-11-13T15:04:56.147Z""","null","+","null","","","","","","",""
"","","","","","image-keyboard-response","261","325707","0.0-17.0-2.0-1.0","1pjaktyd3g","","1pjaktyd3g","""2024-11-13T15:04:56.147Z""","584","materials/imgs/D53.png","arrowleft","","[""materials/imgs/D77.png"",""materials/imgs/D75.png""]","false","validation","","",""
"","","","","","html-keyboard-response","262","326223","0.0-17.0-2.0-0.1","1pjaktyd3g","","1pjaktyd3g","""2024-11-13T15:04:56.147Z""","null","+","null","","","","","","",""
"","","","","","image-keyboard-response","263","326916","0.0-17.0-2.0-1.1","1pjaktyd3g","","1pjaktyd3g","""2024-11-13T15:04:56.147Z""","690","materials/imgs/D32.png","arrowleft","","[""materials/imgs/D68.png"",""materials/imgs/D96.png""]","false","validation","","",""
"","","","","","html-keyboard-response","264","327432","0.0-17.0-0.1-0.7","1pjaktyd3g","","1pjaktyd3g","""2024-11-13T15:04:56.147Z""","null","+","null","","","","","","",""
"","","","","","image-keyboard-response","265","328150","0.0-17.0-0.1-1.7","1pjaktyd3g","","1pjaktyd3g","""2024-11-13T15:04:56.147Z""","714","materials/imgs/D102.png","arrowleft","","[""materials/imgs/D105.png"",""materials/imgs/D9.png""]","false","random","","",""
"","","","","","html-keyboard-response","266","328653","0.0-17.0-0.1-0.8","1pjaktyd3g","","1pjaktyd3g","""2024-11-13T15:04:56.147Z""","null","+","null","","","","","","",""
"","","","","","image-keyboard-response","267","332251","0.0-17.0-0.1-1.8","1pjaktyd3g","","1pjaktyd3g","""2024-11-13T15:04:56.147Z""","3588","materials/imgs/D81.png","arrowright","","[""materials/imgs/D75.png"",""materials/imgs/D111.png""]","false","random","","",""
"","","","","","html-keyboard-response","268","332761","0.0-17.0-0.1-0.9","1pjaktyd3g","","1pjaktyd3g","""2024-11-13T15:04:56.147Z""","null","+","null","","","","","","",""
"","","","","","image-keyboard-response","269","334256","0.0-17.0-0.1-1.9","1pjaktyd3g","","1pjaktyd3g","""2024-11-13T15:04:56.147Z""","1493","materials/imgs/D85.png","arrowleft","","[""materials/imgs/D83.png"",""materials/imgs/D11.png""]","false","random","","",""
"","","","","","html-keyboard-response","270","334769","0.0-17.0-0.1-0.10","1pjaktyd3g","","1pjaktyd3g","""2024-11-13T15:04:56.147Z""","null","+","null","","","","","","",""
"","","","","","image-keyboard-response","271","337169","0.0-17.0-0.1-1.10","1pjaktyd3g","","1pjaktyd3g","""2024-11-13T15:04:56.147Z""","2396","materials/imgs/D83.png","arrowleft","","[""materials/imgs/D51.png"",""materials/imgs/D87.png""]","false","random","","",""
"","","","","","html-keyboard-response","272","337674","0.0-17.0-0.1-0.11","1pjaktyd3g","","1pjaktyd3g","""2024-11-13T15:04:56.147Z""","null","+","null","","","","","","",""
"","","","","","image-keyboard-response","273","338882","0.0-17.0-0.1-1.11","1pjaktyd3g","","1pjaktyd3g","""2024-11-13T15:04:56.147Z""","1205","materials/imgs/D106.png","arrowright","","[""materials/imgs/D94.png"",""materials/imgs/D6.png""]","false","random","","",""
"","","","","","html-keyboard-response","274","339389","0.0-17.0-0.1-0.12","1pjaktyd3g","","1pjaktyd3g","""2024-11-13T15:04:56.147Z""","null","+","null","","","","","","",""
"","","","","","image-keyboard-response","275","340616","0.0-17.0-0.1-1.12","1pjaktyd3g","","1pjaktyd3g","""2024-11-13T15:04:56.147Z""","1223","materials/imgs/D78.png","arrowright","","[""materials/imgs/D1.png"",""materials/imgs/D4.png""]","false","random","","",""
"","","","","","html-keyboard-response","276","341126","0.0-17.0-0.1-0.13","1pjaktyd3g","","1pjaktyd3g","""2024-11-13T15:04:56.147Z""","null","+","null","","","","","","",""
"","","","","","image-keyboard-response","277","342226","0.0-17.0-0.1-1.13","1pjaktyd3g","","1pjaktyd3g","""2024-11-13T15:04:56.147Z""","1097","materials/imgs/D77.png","arrowleft","","[""materials/imgs/D22.png"",""materials/imgs/D75.png""]","false","random","","",""
"","","","","","html-keyboard-response","278","342734","0.0-17.0-1.1-0.1","1pjaktyd3g","","1pjaktyd3g","""2024-11-13T15:04:56.147Z""","null","+","null","","","","","","",""
"","","","","","image-keyboard-response","279","343328","0.0-17.0-1.1-1.1","1pjaktyd3g","","1pjaktyd3g","""2024-11-13T15:04:56.147Z""","590","materials/imgs/D106.png","arrowleft","","[""materials/imgs/D106.png"",""materials/imgs/D101.png""]","","check","materials/imgs/D106.png","0","true"
"","","","","","html-keyboard-response","280","343843","0.0-17.0-2.1-0.2","1pjaktyd3g","","1pjaktyd3g","""2024-11-13T15:04:56.147Z""","null","+","null","","","","","","",""
"","","","","","image-keyboard-response","281","344870","0.0-17.0-2.1-1.2","1pjaktyd3g","","1pjaktyd3g","""2024-11-13T15:04:56.147Z""","1022","materials/imgs/D103.png","arrowleft","","[""materials/imgs/D76.png"",""materials/imgs/D106.png""]","false","validation","","",""
"","","","","","html-keyboard-response","282","345379","0.0-17.0-2.1-0.3","1pjaktyd3g","","1pjaktyd3g","""2024-11-13T15:04:56.147Z""","null","+","null","","","","","","",""
"","","","","","image-keyboard-response","283","347333","0.0-17.0-2.1-1.3","1pjaktyd3g","","1pjaktyd3g","""2024-11-13T15:04:56.147Z""","1951","materials/imgs/D46.png","arrowleft","","[""materials/imgs/D92.png"",""materials/imgs/D77.png""]","false","validation","","",""
"","","","","","html-keyboard-response","284","347842","0.0-17.0-0.2-0.14","1pjaktyd3g","","1pjaktyd3g","""2024-11-13T15:04:56.147Z""","null","+","null","","","","","","",""
"","","","","","image-keyboard-response","285","348893","0.0-17.0-0.2-1.14","1pjaktyd3g","","1pjaktyd3g","""2024-11-13T15:04:56.147Z""","1047","materials/imgs/D9.png","arrowleft","","[""materials/imgs/D78.png"",""materials/imgs/D20.png""]","false","random","","",""
"","","","","","html-keyboard-response","286","349409","0.0-17.0-0.2-0.15","1pjaktyd3g","","1pjaktyd3g","""2024-11-13T15:04:56.147Z""","null","+","null","","","","","","",""
"","","","","","image-keyboard-response","287","350251","0.0-17.0-0.2-1.15","1pjaktyd3g","","1pjaktyd3g","""2024-11-13T15:04:56.147Z""","838","materials/imgs/D34.png","arrowleft","","[""materials/imgs/D76.png"",""materials/imgs/D85.png""]","false","random","","",""
"","","","","","html-keyboard-response","288","350759","0.0-17.0-0.2-0.16","1pjaktyd3g","","1pjaktyd3g","""2024-11-13T15:04:56.147Z""","null","+","null","","","","","","",""
"","","","","","image-keyboard-response","289","351653","0.0-17.0-0.2-1.16","1pjaktyd3g","","1pjaktyd3g","""2024-11-13T15:04:56.147Z""","890","materials/imgs/D48.png","arrowright","","[""materials/imgs/D94.png"",""materials/imgs/D104.png""]","false","random","","",""
"","","","","","html-keyboard-response","290","352162","0.0-17.0-0.2-0.17","1pjaktyd3g","","1pjaktyd3g","""2024-11-13T15:04:56.147Z""","null","+","null","","","","","","",""
"","","","","","image-keyboard-response","291","353283","0.0-17.0-0.2-1.17","1pjaktyd3g","","1pjaktyd3g","""2024-11-13T15:04:56.147Z""","1117","materials/imgs/D95.png","arrowright","","[""materials/imgs/D92.png"",""materials/imgs/D6.png""]","false","random","","",""
"","","","","","html-keyboard-response","292","353786","0.0-17.0-0.2-0.18","1pjaktyd3g","","1pjaktyd3g","""2024-11-13T15:04:56.147Z""","null","+","null","","","","","","",""
"","","","","","image-keyboard-response","293","355107","0.0-17.0-0.2-1.18","1pjaktyd3g","","1pjaktyd3g","""2024-11-13T15:04:56.147Z""","1308","materials/imgs/D11.png","arrowleft","","[""materials/imgs/D24.png"",""materials/imgs/D92.png""]","false","random","","",""
"","","","","","html-keyboard-response","294","355615","0.0-17.0-0.2-0.19","1pjaktyd3g","","1pjaktyd3g","""2024-11-13T15:04:56.147Z""","null","+","null","","","","","","",""
"","","","","","image-keyboard-response","295","356656","0.0-17.0-0.2-1.19","1pjaktyd3g","","1pjaktyd3g","""2024-11-13T15:04:56.147Z""","1038","materials/imgs/D94.png","arrowright","","[""materials/imgs/D14.png"",""materials/imgs/D3.png""]","false","random","","",""
"","","","","","html-keyboard-response","296","357171","0.0-17.0-0.2-0.20","1pjaktyd3g","","1pjaktyd3g","""2024-11-13T15:04:56.147Z""","null","+","null","","","","","","",""
"","","","","","image-keyboard-response","297","358194","0.0-17.0-0.2-1.20","1pjaktyd3g","","1pjaktyd3g","""2024-11-13T15:04:56.147Z""","1018","materials/imgs/D74.png","arrowleft","","[""materials/imgs/D56.png"",""materials/imgs/D53.png""]","false","random","","",""
"","","","","","html-keyboard-response","298","358705","0.0-17.0-1.2-0.2","1pjaktyd3g","","1pjaktyd3g","""2024-11-13T15:04:56.147Z""","null","+","null","","","","","","",""
"","","","","","image-keyboard-response","299","359537","0.0-17.0-1.2-1.2","1pjaktyd3g","","1pjaktyd3g","""2024-11-13T15:04:56.147Z""","830","materials/imgs/D18.png","arrowright","","[""materials/imgs/D8.png"",""materials/imgs/D18.png""]","","check","materials/imgs/D18.png","1","true"
"","","","","","html-keyboard-response","300","360050","0.0-17.0-2.2-0.4","1pjaktyd3g","","1pjaktyd3g","""2024-11-13T15:04:56.147Z""","null","+","null","","","","","","",""
"","","","","","image-keyboard-response","301","360717","0.0-17.0-2.2-1.4","1pjaktyd3g","","1pjaktyd3g","""2024-11-13T15:04:56.147Z""","664","materials/imgs/D68.png","arrowleft","","[""materials/imgs/D96.png"",""materials/imgs/D48.png""]","false","validation","","",""
"","","","","","html-keyboard-response","302","361231","0.0-17.0-2.2-0.5","1pjaktyd3g","","1pjaktyd3g","""2024-11-13T15:04:56.147Z""","null","+","null","","","","","","",""
"","","","","","image-keyboard-response","303","361848","0.0-17.0-2.2-1.5","1pjaktyd3g","","1pjaktyd3g","""2024-11-13T15:04:56.147Z""","615","materials/imgs/D16.png","arrowleft","","[""materials/imgs/D52.png"",""materials/imgs/D25.png""]","false","validation","","",""
"","","","","","html-keyboard-response","304","362363","0.0-17.0-0.3-0.21","1pjaktyd3g","","1pjaktyd3g","""2024-11-13T15:04:56.147Z""","null","+","null","","","","","","",""
"","","","","","image-keyboard-response","305","363667","0.0-17.0-0.3-1.21","1pjaktyd3g","","1pjaktyd3g","""2024-11-13T15:04:56.147Z""","1300","materials/imgs/D21.png","arrowleft","","[""materials/imgs/D92.png"",""materials/imgs/D106.png""]","false","random","","",""
"","","","","","html-keyboard-response","306","364178","0.0-17.0-0.3-0.22","1pjaktyd3g","","1pjaktyd3g","""2024-11-13T15:04:56.147Z""","null","+","null","","","","","","",""
"","","","","","image-keyboard-response","307","365368","0.0-17.0-0.3-1.22","1pjaktyd3g","","1pjaktyd3g","""2024-11-13T15:04:56.147Z""","1186","materials/imgs/D94.png","arrowright","","[""materials/imgs/D74.png"",""materials/imgs/D4.png""]","false","random","","",""
"","","","","","html-keyboard-response","308","365878","0.0-17.0-0.3-0.23","1pjaktyd3g","","1pjaktyd3g","""2024-11-13T15:04:56.147Z""","null","+","null","","","","","","",""
"","","","","","image-keyboard-response","309","367436","0.0-17.0-0.3-1.23","1pjaktyd3g","","1pjaktyd3g","""2024-11-13T15:04:56.147Z""","1554","materials/imgs/D105.png","arrowleft","","[""materials/imgs/D21.png"",""materials/imgs/D9.png""]","false","random","","",""
"","","","","","html-keyboard-response","310","367941","0.0-17.0-0.3-0.24","1pjaktyd3g","","1pjaktyd3g","""2024-11-13T15:04:56.147Z""","null","+","null","","","","","","",""
"","","","","","image-keyboard-response","311","368682","0.0-17.0-0.3-1.24","1pjaktyd3g","","1pjaktyd3g","""2024-11-13T15:04:56.147Z""","738","materials/imgs/D18.png","arrowleft","","[""materials/imgs/D80.png"",""materials/imgs/D101.png""]","false","random","","",""
"","","","","","html-keyboard-response","312","369193","0.0-17.0-0.3-0.25","1pjaktyd3g","","1pjaktyd3g","""2024-11-13T15:04:56.147Z""","null","+","null","","","","","","",""
"","","","","","image-keyboard-response","313","370022","0.0-17.0-0.3-1.25","1pjaktyd3g","","1pjaktyd3g","""2024-11-13T15:04:56.147Z""","825","materials/imgs/D77.png","arrowleft","","[""materials/imgs/D8.png"",""materials/imgs/D74.png""]","false","random","","",""
"","","","","","html-keyboard-response","314","370538","0.0-17.0-0.3-0.26","1pjaktyd3g","","1pjaktyd3g","""2024-11-13T15:04:56.147Z""","null","+","null","","","","","","",""
"","","","","","image-keyboard-response","315","371600","0.0-17.0-0.3-1.26","1pjaktyd3g","","1pjaktyd3g","""2024-11-13T15:04:56.147Z""","1060","materials/imgs/D37.png","arrowright","","[""materials/imgs/D11.png"",""materials/imgs/D68.png""]","false","random","","",""
"","","","","","html-keyboard-response","316","372107","0.0-17.0-0.3-0.27","1pjaktyd3g","","1pjaktyd3g","""2024-11-13T15:04:56.147Z""","null","+","null","","","","","","",""
"","","","","","image-keyboard-response","317","373181","0.0-17.0-0.3-1.27","1pjaktyd3g","","1pjaktyd3g","""2024-11-13T15:04:56.147Z""","1071","materials/imgs/D103.png","arrowright","","[""materials/imgs/D80.png"",""materials/imgs/D81.png""]","false","random","","",""
"","","","","","html-keyboard-response","318","373696","0.0-17.0-1.3-0.3","1pjaktyd3g","","1pjaktyd3g","""2024-11-13T15:04:56.147Z""","null","+","null","","","","","","",""
"","","","","","image-keyboard-response","319","374343","0.0-17.0-1.3-1.3","1pjaktyd3g","","1pjaktyd3g","""2024-11-13T15:04:56.147Z""","644","materials/imgs/D46.png","arrowleft","","[""materials/imgs/D46.png"",""materials/imgs/D26.png""]","","check","materials/imgs/D46.png","0","true"
"","","","","","html-keyboard-response","320","374859","0.0-17.0-2.3-0.6","1pjaktyd3g","","1pjaktyd3g","""2024-11-13T15:04:56.147Z""","null","+","null","","","","","","",""
"","","","","","image-keyboard-response","321","375551","0.0-17.0-2.3-1.6","1pjaktyd3g","","1pjaktyd3g","""2024-11-13T15:04:56.147Z""","690","materials/imgs/D105.png","arrowleft","","[""materials/imgs/D106.png"",""materials/imgs/D52.png""]","false","validation","","",""
"","","","","","html-keyboard-response","322","376054","0.0-17.0-2.3-0.7","1pjaktyd3g","","1pjaktyd3g","""2024-11-13T15:04:56.147Z""","null","+","null","","","","","","",""
"","","","","","image-keyboard-response","323","376922","0.0-17.0-2.3-1.7","1pjaktyd3g","","1pjaktyd3g","""2024-11-13T15:04:56.147Z""","866","materials/imgs/D16.png","arrowleft","","[""materials/imgs/D52.png"",""materials/imgs/D25.png""]","false","validation","","",""
"","","","","","html-keyboard-response","324","377435","0.0-17.0-0.4-0.28","1pjaktyd3g","","1pjaktyd3g","""2024-11-13T15:04:56.147Z""","null","+","null","","","","","","",""
"","","","","","image-keyboard-response","325","378123","0.0-17.0-0.4-1.28","1pjaktyd3g","","1pjaktyd3g","""2024-11-13T15:04:56.147Z""","684","materials/imgs/D51.png","arrowright","","[""materials/imgs/D94.png"",""materials/imgs/D68.png""]","false","random","","",""
"","","","","","html-keyboard-response","326","378628","0.0-17.0-0.4-0.29","1pjaktyd3g","","1pjaktyd3g","""2024-11-13T15:04:56.147Z""","null","+","null","","","","","","",""
"","","","","","image-keyboard-response","327","379236","0.0-17.0-0.4-1.29","1pjaktyd3g","","1pjaktyd3g","""2024-11-13T15:04:56.147Z""","604","materials/imgs/D101.png","arrowleft","","[""materials/imgs/D24.png"",""materials/imgs/D32.png""]","false","random","","",""
"","","","","","html-keyboard-response","328","379740","0.0-17.0-0.4-0.30","1pjaktyd3g","","1pjaktyd3g","""2024-11-13T15:04:56.147Z""","null","+","null","","","","","","",""
"","","","","","image-keyboard-response","329","380708","0.0-17.0-0.4-1.30","1pjaktyd3g","","1pjaktyd3g","""2024-11-13T15:04:56.147Z""","964","materials/imgs/D34.png","arrowleft","","[""materials/imgs/D29.png"",""materials/imgs/D49.png""]","false","random","","",""
"","","","","","html-keyboard-response","330","381215","0.0-17.0-0.4-0.31","1pjaktyd3g","","1pjaktyd3g","""2024-11-13T15:04:56.147Z""","null","+","null","","","","","","",""
"","","","","","image-keyboard-response","331","382269","0.0-17.0-0.4-1.31","1pjaktyd3g","","1pjaktyd3g","""2024-11-13T15:04:56.147Z""","1050","materials/imgs/D29.png","arrowright","","[""materials/imgs/D96.png"",""materials/imgs/D32.png""]","false","random","","",""
"","","","","","html-keyboard-response","332","382779","0.0-17.0-0.4-0.32","1pjaktyd3g","","1pjaktyd3g","""2024-11-13T15:04:56.147Z""","null","+","null","","","","","","",""
"","","","","","image-keyboard-response","333","383460","0.0-17.0-0.4-1.32","1pjaktyd3g","","1pjaktyd3g","""2024-11-13T15:04:56.147Z""","677","materials/imgs/D53.png","arrowleft","","[""materials/imgs/D14.png"",""materials/imgs/D29.png""]","false","random","","",""
"","","","","","html-keyboard-response","334","383975","0.0-17.0-0.4-0.33","1pjaktyd3g","","1pjaktyd3g","""2024-11-13T15:04:56.147Z""","null","+","null","","","","","","",""
"","","","","","image-keyboard-response","335","384763","0.0-17.0-0.4-1.33","1pjaktyd3g","","1pjaktyd3g","""2024-11-13T15:04:56.147Z""","783","materials/imgs/D36.png","arrowleft","","[""materials/imgs/D68.png"",""materials/imgs/D25.png""]","false","random","","",""
"","","","","","html-keyboard-response","336","385275","0.0-17.0-0.4-0.34","1pjaktyd3g","","1pjaktyd3g","""2024-11-13T15:04:56.147Z""","null","+","null","","","","","","",""
"","","","","","image-keyboard-response","337","386281","0.0-17.0-0.4-1.34","1pjaktyd3g","","1pjaktyd3g","""2024-11-13T15:04:56.147Z""","1004","materials/imgs/D106.png","arrowright","","[""materials/imgs/D103.png"",""materials/imgs/D49.png""]","false","random","","",""
"","","","","","html-keyboard-response","338","386798","0.0-17.0-1.4-0.4","1pjaktyd3g","","1pjaktyd3g","""2024-11-13T15:04:56.147Z""","null","+","null","","","","","","",""
"","","","","","image-keyboard-response","339","387363","0.0-17.0-1.4-1.4","1pjaktyd3g","","1pjaktyd3g","""2024-11-13T15:04:56.147Z""","562","materials/imgs/D18.png","arrowright","","[""materials/imgs/D8.png"",""materials/imgs/D18.png""]","","check","materials/imgs/D18.png","1","true"
"","","","","","html-keyboard-response","340","387874","0.0-17.0-2.4-0.8","1pjaktyd3g","","1pjaktyd3g","""2024-11-13T15:04:56.147Z""","null","+","null","","","","","","",""
"","","","","","image-keyboard-response","341","389474","0.0-17.0-2.4-1.8","1pjaktyd3g","","1pjaktyd3g","""2024-11-13T15:04:56.147Z""","1598","materials/imgs/D79.png","arrowleft","","[""materials/imgs/D51.png"",""materials/imgs/D64.png""]","false","validation","","",""
"","","","","","html-keyboard-response","342","389978","0.0-17.0-2.4-0.9","1pjaktyd3g","","1pjaktyd3g","""2024-11-13T15:04:56.147Z""","null","+","null","","","","","","",""
"","","","","","image-keyboard-response","343","391333","0.0-17.0-2.4-1.9","1pjaktyd3g","","1pjaktyd3g","""2024-11-13T15:04:56.147Z""","1352","materials/imgs/D36.png","arrowright","","[""materials/imgs/D47.png"",""materials/imgs/D49.png""]","false","validation","","",""
"","","","","","html-button-response","344","392697","0.0-18.0","1pjaktyd3g","","1pjaktyd3g","""2024-11-13T15:04:56.147Z""","1362","You have completed 75% of the trials. Please click 'Continue' when you are ready proceed.","0","","","","","","",""
"","","","","","html-keyboard-response","345","393205","0.0-19.0-0.0-0.0","1pjaktyd3g","","1pjaktyd3g","""2024-11-13T15:04:56.147Z""","null","+","null","","","","","","",""
"","","","","","image-keyboard-response","346","399015","0.0-19.0-0.0-1.0","1pjaktyd3g","","1pjaktyd3g","""2024-11-13T15:04:56.147Z""","5806","materials/imgs/D8.png","arrowright","","[""materials/imgs/D22.png"",""materials/imgs/D47.png""]","false","random","","",""
"","","","","","html-keyboard-response","347","399530","0.0-19.0-0.0-0.1","1pjaktyd3g","","1pjaktyd3g","""2024-11-13T15:04:56.147Z""","null","+","null","","","","","","",""
"","","","","","image-keyboard-response","348","400538","0.0-19.0-0.0-1.1","1pjaktyd3g","","1pjaktyd3g","""2024-11-13T15:04:56.147Z""","1004","materials/imgs/D66.png","arrowright","","[""materials/imgs/D48.png"",""materials/imgs/D68.png""]","false","random","","",""
"","","","","","html-keyboard-response","349","401045","0.0-19.0-0.0-0.2","1pjaktyd3g","","1pjaktyd3g","""2024-11-13T15:04:56.147Z""","null","+","null","","","","","","",""
"","","","","","image-keyboard-response","350","401948","0.0-19.0-0.0-1.2","1pjaktyd3g","","1pjaktyd3g","""2024-11-13T15:04:56.147Z""","900","materials/imgs/D47.png","arrowleft","","[""materials/imgs/D111.png"",""materials/imgs/D36.png""]","false","random","","",""
"","","","","","html-keyboard-response","351","402461","0.0-19.0-0.0-0.3","1pjaktyd3g","","1pjaktyd3g","""2024-11-13T15:04:56.147Z""","null","+","null","","","","","","",""
"","","","","","image-keyboard-response","352","403429","0.0-19.0-0.0-1.3","1pjaktyd3g","","1pjaktyd3g","""2024-11-13T15:04:56.147Z""","964","materials/imgs/D29.png","arrowleft","","[""materials/imgs/D46.png"",""materials/imgs/D82.png""]","false","random","","",""
"","","","","","html-keyboard-response","353","403941","0.0-19.0-0.0-0.4","1pjaktyd3g","","1pjaktyd3g","""2024-11-13T15:04:56.147Z""","null","+","null","","","","","","",""
"","","","","","image-keyboard-response","354","407455","0.0-19.0-0.0-1.4","1pjaktyd3g","","1pjaktyd3g","""2024-11-13T15:04:56.147Z""","3512","materials/imgs/D105.png","arrowright","","[""materials/imgs/D25.png"",""materials/imgs/D11.png""]","false","random","","",""
"","","","","","html-keyboard-response","355","407960","0.0-19.0-0.0-0.5","1pjaktyd3g","","1pjaktyd3g","""2024-11-13T15:04:56.147Z""","null","+","null","","","","","","",""
"","","","","","image-keyboard-response","356","410607","0.0-19.0-0.0-1.5","1pjaktyd3g","","1pjaktyd3g","""2024-11-13T15:04:56.147Z""","2643","materials/imgs/D51.png","arrowright","","[""materials/imgs/D65.png"",""materials/imgs/D78.png""]","false","random","","",""
"","","","","","html-keyboard-response","357","411109","0.0-19.0-0.0-0.6","1pjaktyd3g","","1pjaktyd3g","""2024-11-13T15:04:56.147Z""","null","+","null","","","","","","",""
"","","","","","image-keyboard-response","358","412718","0.0-19.0-0.0-1.6","1pjaktyd3g","","1pjaktyd3g","""2024-11-13T15:04:56.147Z""","1605","materials/imgs/D78.png","arrowleft","","[""materials/imgs/D49.png"",""materials/imgs/D53.png""]","false","random","","",""
"","","","","","html-keyboard-response","359","413227","0.0-19.0-1.0-0.0","1pjaktyd3g","","1pjaktyd3g","""2024-11-13T15:04:56.147Z""","null","+","null","","","","","","",""
"","","","","","image-keyboard-response","360","413875","0.0-19.0-1.0-1.0","1pjaktyd3g","","1pjaktyd3g","""2024-11-13T15:04:56.147Z""","645","materials/imgs/D46.png","arrowleft","","[""materials/imgs/D46.png"",""materials/imgs/D26.png""]","","check","materials/imgs/D46.png","0","true"
"","","","","","html-keyboard-response","361","414385","0.0-19.0-2.0-0.0","1pjaktyd3g","","1pjaktyd3g","""2024-11-13T15:04:56.147Z""","null","+","null","","","","","","",""
"","","","","","image-keyboard-response","362","415457","0.0-19.0-2.0-1.0","1pjaktyd3g","","1pjaktyd3g","""2024-11-13T15:04:56.147Z""","1069","materials/imgs/D53.png","arrowleft","","[""materials/imgs/D77.png"",""materials/imgs/D75.png""]","false","validation","","",""
"","","","","","html-keyboard-response","363","415974","0.0-19.0-2.0-0.1","1pjaktyd3g","","1pjaktyd3g","""2024-11-13T15:04:56.147Z""","null","+","null","","","","","","",""
"","","","","","image-keyboard-response","364","418172","0.0-19.0-2.0-1.1","1pjaktyd3g","","1pjaktyd3g","""2024-11-13T15:04:56.147Z""","2194","materials/imgs/D49.png","arrowright","","[""materials/imgs/D8.png"",""materials/imgs/D101.png""]","false","validation","","",""
"","","","","","html-keyboard-response","365","418685","0.0-19.0-0.1-0.7","1pjaktyd3g","","1pjaktyd3g","""2024-11-13T15:04:56.147Z""","null","+","null","","","","","","",""
"","","","","","image-keyboard-response","366","420692","0.0-19.0-0.1-1.7","1pjaktyd3g","","1pjaktyd3g","""2024-11-13T15:04:56.147Z""","2004","materials/imgs/D25.png","arrowright","","[""materials/imgs/D57.png"",""materials/imgs/D9.png""]","false","random","","",""
"","","","","","html-keyboard-response","367","421201","0.0-19.0-0.1-0.8","1pjaktyd3g","","1pjaktyd3g","""2024-11-13T15:04:56.147Z""","null","+","null","","","","","","",""
"","","","","","image-keyboard-response","368","422078","0.0-19.0-0.1-1.8","1pjaktyd3g","","1pjaktyd3g","""2024-11-13T15:04:56.147Z""","874","materials/imgs/D101.png","arrowleft","","[""materials/imgs/D66.png"",""materials/imgs/D49.png""]","false","random","","",""
"","","","","","html-keyboard-response","369","422588","0.0-19.0-0.1-0.9","1pjaktyd3g","","1pjaktyd3g","""2024-11-13T15:04:56.147Z""","null","+","null","","","","","","",""
"","","","","","image-keyboard-response","370","427709","0.0-19.0-0.1-1.9","1pjaktyd3g","","1pjaktyd3g","""2024-11-13T15:04:56.147Z""","5117","materials/imgs/D8.png","arrowright","","[""materials/imgs/D16.png"",""materials/imgs/D96.png""]","false","random","","",""
"","","","","","html-keyboard-response","371","428216","0.0-19.0-0.1-0.10","1pjaktyd3g","","1pjaktyd3g","""2024-11-13T15:04:56.147Z""","null","+","null","","","","","","",""
"","","","","","image-keyboard-response","372","429202","0.0-19.0-0.1-1.10","1pjaktyd3g","","1pjaktyd3g","""2024-11-13T15:04:56.147Z""","984","materials/imgs/D25.png","arrowleft","","[""materials/imgs/D51.png"",""materials/imgs/D34.png""]","false","random","","",""
"","","","","","html-keyboard-response","373","429706","0.0-19.0-0.1-0.11","1pjaktyd3g","","1pjaktyd3g","""2024-11-13T15:04:56.147Z""","null","+","null","","","","","","",""
"","","","","","image-keyboard-response","374","441812","0.0-19.0-0.1-1.11","1pjaktyd3g","","1pjaktyd3g","""2024-11-13T15:04:56.147Z""","12102","materials/imgs/D94.png","arrowright","","[""materials/imgs/D82.png"",""materials/imgs/D47.png""]","false","random","","",""
"","","","","","html-keyboard-response","375","442316","0.0-19.0-0.1-0.12","1pjaktyd3g","","1pjaktyd3g","""2024-11-13T15:04:56.147Z""","null","+","null","","","","","","",""
"","","","","","image-keyboard-response","376","443598","0.0-19.0-0.1-1.12","1pjaktyd3g","","1pjaktyd3g","""2024-11-13T15:04:56.147Z""","1278","materials/imgs/D20.png","arrowleft","","[""materials/imgs/D53.png"",""materials/imgs/D96.png""]","false","random","","",""
"","","","","","html-keyboard-response","377","444105","0.0-19.0-0.1-0.13","1pjaktyd3g","","1pjaktyd3g","""2024-11-13T15:04:56.147Z""","null","+","null","","","","","","",""
"","","","","","image-keyboard-response","378","445195","0.0-19.0-0.1-1.13","1pjaktyd3g","","1pjaktyd3g","""2024-11-13T15:04:56.147Z""","1086","materials/imgs/D103.png","arrowright","","[""materials/imgs/D84.png"",""materials/imgs/D22.png""]","false","random","","",""
"","","","","","html-keyboard-response","379","445717","0.0-19.0-1.1-0.1","1pjaktyd3g","","1pjaktyd3g","""2024-11-13T15:04:56.147Z""","null","+","null","","","","","","",""
"","","","","","image-keyboard-response","380","446484","0.0-19.0-1.1-1.1","1pjaktyd3g","","1pjaktyd3g","""2024-11-13T15:04:56.147Z""","762","materials/imgs/D26.png","arrowleft","","[""materials/imgs/D26.png"",""materials/imgs/D46.png""]","","check","materials/imgs/D26.png","0","true"
"","","","","","html-keyboard-response","381","446995","0.0-19.0-2.1-0.2","1pjaktyd3g","","1pjaktyd3g","""2024-11-13T15:04:56.147Z""","null","+","null","","","","","","",""
"","","","","","image-keyboard-response","382","447999","0.0-19.0-2.1-1.2","1pjaktyd3g","","1pjaktyd3g","""2024-11-13T15:04:56.147Z""","1000","materials/imgs/D35.png","arrowright","","[""materials/imgs/D83.png"",""materials/imgs/D24.png""]","false","validation","","",""
"","","","","","html-keyboard-response","383","448508","0.0-19.0-2.1-0.3","1pjaktyd3g","","1pjaktyd3g","""2024-11-13T15:04:56.147Z""","null","+","null","","","","","","",""
"","","","","","image-keyboard-response","384","449256","0.0-19.0-2.1-1.3","1pjaktyd3g","","1pjaktyd3g","""2024-11-13T15:04:56.147Z""","745","materials/imgs/D57.png","arrowright","","[""materials/imgs/D111.png"",""materials/imgs/D4.png""]","false","validation","","",""
"","","","","","html-keyboard-response","385","449762","0.0-19.0-0.2-0.14","1pjaktyd3g","","1pjaktyd3g","""2024-11-13T15:04:56.147Z""","null","+","null","","","","","","",""
"","","","","","image-keyboard-response","386","454597","0.0-19.0-0.2-1.14","1pjaktyd3g","","1pjaktyd3g","""2024-11-13T15:04:56.147Z""","4831","materials/imgs/D18.png","arrowleft","","[""materials/imgs/D57.png"",""materials/imgs/D106.png""]","false","random","","",""
"","","","","","html-keyboard-response","387","455110","0.0-19.0-0.2-0.15","1pjaktyd3g","","1pjaktyd3g","""2024-11-13T15:04:56.147Z""","null","+","null","","","","","","",""
"","","","","","image-keyboard-response","388","456337","0.0-19.0-0.2-1.15","1pjaktyd3g","","1pjaktyd3g","""2024-11-13T15:04:56.147Z""","1224","materials/imgs/D103.png","arrowleft","","[""materials/imgs/D82.png"",""materials/imgs/D34.png""]","false","random","","",""
"","","","","","html-keyboard-response","389","456840","0.0-19.0-0.2-0.16","1pjaktyd3g","","1pjaktyd3g","""2024-11-13T15:04:56.147Z""","null","+","null","","","","","","",""
"","","","","","image-keyboard-response","390","464912","0.0-19.0-0.2-1.16","1pjaktyd3g","","1pjaktyd3g","""2024-11-13T15:04:56.147Z""","8068","materials/imgs/D14.png","arrowleft","","[""materials/imgs/D76.png"",""materials/imgs/D102.png""]","false","random","","",""
"","","","","","html-keyboard-response","391","465427","0.0-19.0-0.2-0.17","1pjaktyd3g","","1pjaktyd3g","""2024-11-13T15:04:56.147Z""","null","+","null","","","","","","",""
"","","","","","image-keyboard-response","392","466568","0.0-19.0-0.2-1.17","1pjaktyd3g","","1pjaktyd3g","""2024-11-13T15:04:56.147Z""","1137","materials/imgs/D76.png","arrowright","","[""materials/imgs/D17.png"",""materials/imgs/D104.png""]","false","random","","",""
"","","","","","html-keyboard-response","393","467082","0.0-19.0-0.2-0.18","1pjaktyd3g","","1pjaktyd3g","""2024-11-13T15:04:56.147Z""","null","+","null","","","","","","",""
"","","","","","image-keyboard-response","394","468392","0.0-19.0-0.2-1.18","1pjaktyd3g","","1pjaktyd3g","""2024-11-13T15:04:56.147Z""","1307","materials/imgs/D56.png","arrowright","","[""materials/imgs/D21.png"",""materials/imgs/D8.png""]","false","random","","",""
"","","","","","html-keyboard-response","395","468896","0.0-19.0-0.2-0.19","1pjaktyd3g","","1pjaktyd3g","""2024-11-13T15:04:56.147Z""","null","+","null","","","","","","",""
"","","","","","image-keyboard-response","396","469679","0.0-19.0-0.2-1.19","1pjaktyd3g","","1pjaktyd3g","""2024-11-13T15:04:56.147Z""","779","materials/imgs/D68.png","arrowleft","","[""materials/imgs/D80.png"",""materials/imgs/D105.png""]","false","random","","",""
"","","","","","html-keyboard-response","397","470190","0.0-19.0-0.2-0.20","1pjaktyd3g","","1pjaktyd3g","""2024-11-13T15:04:56.147Z""","null","+","null","","","","","","",""
"","","","","","image-keyboard-response","398","471547","0.0-19.0-0.2-1.20","1pjaktyd3g","","1pjaktyd3g","""2024-11-13T15:04:56.147Z""","1353","materials/imgs/D94.png","arrowright","","[""materials/imgs/D81.png"",""materials/imgs/D20.png""]","false","random","","",""
"","","","","","html-keyboard-response","399","472048","0.0-19.0-1.2-0.2","1pjaktyd3g","","1pjaktyd3g","""2024-11-13T15:04:56.147Z""","null","+","null","","","","","","",""
"","","","","","image-keyboard-response","400","472634","0.0-19.0-1.2-1.2","1pjaktyd3g","","1pjaktyd3g","""2024-11-13T15:04:56.147Z""","582","materials/imgs/D76.png","arrowleft","","[""materials/imgs/D76.png"",""materials/imgs/D78.png""]","","check","materials/imgs/D76.png","0","true"
"","","","","","html-keyboard-response","401","473148","0.0-19.0-2.2-0.4","1pjaktyd3g","","1pjaktyd3g","""2024-11-13T15:04:56.147Z""","null","+","null","","","","","","",""
"","","","","","image-keyboard-response","402","474413","0.0-19.0-2.2-1.4","1pjaktyd3g","","1pjaktyd3g","""2024-11-13T15:04:56.147Z""","1262","materials/imgs/D37.png","arrowleft","","[""materials/imgs/D84.png"",""materials/imgs/D111.png""]","false","validation","","",""
"","","","","","html-keyboard-response","403","474918","0.0-19.0-2.2-0.5","1pjaktyd3g","","1pjaktyd3g","""2024-11-13T15:04:56.147Z""","null","+","null","","","","","","",""
"","","","","","image-keyboard-response","404","475828","0.0-19.0-2.2-1.5","1pjaktyd3g","","1pjaktyd3g","""2024-11-13T15:04:56.147Z""","907","materials/imgs/D52.png","arrowright","","[""materials/imgs/D9.png"",""materials/imgs/D19.png""]","false","validation","","",""
"","","","","","html-keyboard-response","405","476336","0.0-19.0-0.3-0.21","1pjaktyd3g","","1pjaktyd3g","""2024-11-13T15:04:56.147Z""","null","+","null","","","","","","",""
"","","","","","image-keyboard-response","406","477279","0.0-19.0-0.3-1.21","1pjaktyd3g","","1pjaktyd3g","""2024-11-13T15:04:56.147Z""","939","materials/imgs/D17.png","arrowright","","[""materials/imgs/D101.png"",""materials/imgs/D95.png""]","false","random","","",""
"","","","","","html-keyboard-response","407","477783","0.0-19.0-0.3-0.22","1pjaktyd3g","","1pjaktyd3g","""2024-11-13T15:04:56.147Z""","null","+","null","","","","","","",""
"","","","","","image-keyboard-response","408","478619","0.0-19.0-0.3-1.22","1pjaktyd3g","","1pjaktyd3g","""2024-11-13T15:04:56.147Z""","832","materials/imgs/D74.png","arrowleft","","[""materials/imgs/D17.png"",""materials/imgs/D85.png""]","false","random","","",""
"","","","","","html-keyboard-response","409","479130","0.0-19.0-0.3-0.23","1pjaktyd3g","","1pjaktyd3g","""2024-11-13T15:04:56.147Z""","null","+","null","","","","","","",""
"","","","","","image-keyboard-response","410","479774","0.0-19.0-0.3-1.23","1pjaktyd3g","","1pjaktyd3g","""2024-11-13T15:04:56.147Z""","640","materials/imgs/D46.png","arrowright","","[""materials/imgs/D103.png"",""materials/imgs/D85.png""]","false","random","","",""
"","","","","","html-keyboard-response","411","480278","0.0-19.0-0.3-0.24","1pjaktyd3g","","1pjaktyd3g","""2024-11-13T15:04:56.147Z""","null","+","null","","","","","","",""
"","","","","","image-keyboard-response","412","481165","0.0-19.0-0.3-1.24","1pjaktyd3g","","1pjaktyd3g","""2024-11-13T15:04:56.147Z""","884","materials/imgs/D1.png","arrowright","","[""materials/imgs/D55.png"",""materials/imgs/D26.png""]","false","random","","",""
"","","","","","html-keyboard-response","413","481675","0.0-19.0-0.3-0.25","1pjaktyd3g","","1pjaktyd3g","""2024-11-13T15:04:56.147Z""","null","+","null","","","","","","",""
"","","","","","image-keyboard-response","414","482426","0.0-19.0-0.3-1.25","1pjaktyd3g","","1pjaktyd3g","""2024-11-13T15:04:56.147Z""","748","materials/imgs/D83.png","arrowright","","[""materials/imgs/D6.png"",""materials/imgs/D20.png""]","false","random","","",""
"","","","","","html-keyboard-response","415","482934","0.0-19.0-0.3-0.26","1pjaktyd3g","","1pjaktyd3g","""2024-11-13T15:04:56.147Z""","null","+","null","","","","","","",""
"","","","","","image-keyboard-response","416","483561","0.0-19.0-0.3-1.26","1pjaktyd3g","","1pjaktyd3g","""2024-11-13T15:04:56.147Z""","623","materials/imgs/D20.png","arrowleft","","[""materials/imgs/D6.png"",""materials/imgs/D64.png""]","false","random","","",""
"","","","","","html-keyboard-response","417","484064","0.0-19.0-0.3-0.27","1pjaktyd3g","","1pjaktyd3g","""2024-11-13T15:04:56.147Z""","null","+","null","","","","","","",""
"","","","","","image-keyboard-response","418","484774","0.0-19.0-0.3-1.27","1pjaktyd3g","","1pjaktyd3g","""2024-11-13T15:04:56.147Z""","707","materials/imgs/D26.png","arrowright","","[""materials/imgs/D37.png"",""materials/imgs/D87.png""]","false","random","","",""
"","","","","","html-keyboard-response","419","485285","0.0-19.0-1.3-0.3","1pjaktyd3g","","1pjaktyd3g","""2024-11-13T15:04:56.147Z""","null","+","null","","","","","","",""
"","","","","","image-keyboard-response","420","485902","0.0-19.0-1.3-1.3","1pjaktyd3g","","1pjaktyd3g","""2024-11-13T15:04:56.147Z""","606","materials/imgs/D18.png","arrowright","","[""materials/imgs/D8.png"",""materials/imgs/D18.png""]","","check","materials/imgs/D18.png","1","true"
"","","","","","html-keyboard-response","421","486417","0.0-19.0-2.3-0.6","1pjaktyd3g","","1pjaktyd3g","""2024-11-13T15:04:56.147Z""","null","+","null","","","","","","",""
"","","","","","image-keyboard-response","422","487081","0.0-19.0-2.3-1.6","1pjaktyd3g","","1pjaktyd3g","""2024-11-13T15:04:56.147Z""","661","materials/imgs/D6.png","arrowleft","","[""materials/imgs/D26.png"",""materials/imgs/D76.png""]","false","validation","","",""
"","","","","","html-keyboard-response","423","487589","0.0-19.0-2.3-0.7","1pjaktyd3g","","1pjaktyd3g","""2024-11-13T15:04:56.147Z""","null","+","null","","","","","","",""
"","","","","","image-keyboard-response","424","488588","0.0-19.0-2.3-1.7","1pjaktyd3g","","1pjaktyd3g","""2024-11-13T15:04:56.147Z""","996","materials/imgs/D64.png","arrowleft","","[""materials/imgs/D6.png"",""materials/imgs/D81.png""]","false","validation","","",""
"","","","","","html-keyboard-response","425","489094","0.0-19.0-0.4-0.28","1pjaktyd3g","","1pjaktyd3g","""2024-11-13T15:04:56.147Z""","null","+","null","","","","","","",""
"","","","","","image-keyboard-response","426","489854","0.0-19.0-0.4-1.28","1pjaktyd3g","","1pjaktyd3g","""2024-11-13T15:04:56.147Z""","754","materials/imgs/D95.png","arrowleft","","[""materials/imgs/D1.png"",""materials/imgs/D29.png""]","false","random","","",""
"","","","","","html-keyboard-response","427","490366","0.0-19.0-0.4-0.29","1pjaktyd3g","","1pjaktyd3g","""2024-11-13T15:04:56.147Z""","null","+","null","","","","","","",""
"","","","","","image-keyboard-response","428","491330","0.0-19.0-0.4-1.29","1pjaktyd3g","","1pjaktyd3g","""2024-11-13T15:04:56.147Z""","962","materials/imgs/D106.png","arrowright","","[""materials/imgs/D48.png"",""materials/imgs/D1.png""]","false","random","","",""
"","","","","","html-keyboard-response","429","491835","0.0-19.0-0.4-0.30","1pjaktyd3g","","1pjaktyd3g","""2024-11-13T15:04:56.147Z""","null","+","null","","","","","","",""
"","","","","","image-keyboard-response","430","492702","0.0-19.0-0.4-1.30","1pjaktyd3g","","1pjaktyd3g","""2024-11-13T15:04:56.147Z""","864","materials/imgs/D85.png","arrowleft","","[""materials/imgs/D11.png"",""materials/imgs/D80.png""]","false","random","","",""
"","","","","","html-keyboard-response","431","493204","0.0-19.0-0.4-0.31","1pjaktyd3g","","1pjaktyd3g","""2024-11-13T15:04:56.147Z""","null","+","null","","","","","","",""
"","","","","","image-keyboard-response","432","494067","0.0-19.0-0.4-1.31","1pjaktyd3g","","1pjaktyd3g","""2024-11-13T15:04:56.147Z""","860","materials/imgs/D35.png","arrowleft","","[""materials/imgs/D102.png"",""materials/imgs/D68.png""]","false","random","","",""
"","","","","","html-keyboard-response","433","494579","0.0-19.0-0.4-0.32","1pjaktyd3g","","1pjaktyd3g","""2024-11-13T15:04:56.147Z""","null","+","null","","","","","","",""
"","","","","","image-keyboard-response","434","495548","0.0-19.0-0.4-1.32","1pjaktyd3g","","1pjaktyd3g","""2024-11-13T15:04:56.147Z""","966","materials/imgs/D94.png","arrowright","","[""materials/imgs/D36.png"",""materials/imgs/D53.png""]","false","random","","",""
"","","","","","html-keyboard-response","435","496052","0.0-19.0-0.4-0.33","1pjaktyd3g","","1pjaktyd3g","""2024-11-13T15:04:56.147Z""","null","+","null","","","","","","",""
"","","","","","image-keyboard-response","436","496647","0.0-19.0-0.4-1.33","1pjaktyd3g","","1pjaktyd3g","""2024-11-13T15:04:56.147Z""","589","materials/imgs/D20.png","arrowright","","[""materials/imgs/D64.png"",""materials/imgs/D65.png""]","false","random","","",""
