"success","timeout","failed_images","failed_audio","failed_video","trial_type","trial_index","time_elapsed","internal_node_id","subject_id","sona_id","subjectID","dateInfo","rt","stimulus","response","question_order","choices","speedy","sampleAlg","selected_image","selected_index","correct"
"true","false","[]","[]","[]","preload","0","326","0.0-0.0","1xzkx56z9d","","1xzkx56z9d","""2024-11-12T18:26:14.908Z""","","","","","","","","","",""
"true","","","","","fullscreen","1","2370","0.0-1.0","1xzkx56z9d","","1xzkx56z9d","""2024-11-12T18:26:14.908Z""","","","","","","","","","",""
"","","","","","html-keyboard-response","2","2382","0.0-2.0","1xzkx56z9d","","1xzkx56z9d","""2024-11-12T18:26:14.908Z""","null","","null","","","","","","",""
"","","","","","html-button-response","3","3918","0.0-3.0","1xzkx56z9d","","1xzkx56z9d","""2024-11-12T18:26:14.908Z""","1535","<div style='text-align:center; font-size:20px; line-height:25px; width: 1200px;'>
                Welcome to our experiment! <br>
                <br>At the bottom of this screen, you will see a button that says 'Begin Experiment.
                <br>Please only click that button when you are ready to complete the 25 minute experiment in one sitting. <br>
                <br> Once you click that button, it will not be possible to restart the experiment. <br><br>","0","","","","","","",""
"true","","","","","fullscreen","4","5924","0.0-4.0","1xzkx56z9d","","1xzkx56z9d","""2024-11-12T18:26:14.908Z""","","","","","","","","","",""
"","","","","","survey-multi-select","5","9266","0.0-5.0","1xzkx56z9d","","1xzkx56z9d","""2024-11-12T18:26:14.908Z""","3339","","{""Consent"":[""<strong>I consent</strong>""]}","[0]","","","","","",""
"","","","","","html-button-response","6","10180","0.0-6.0","1xzkx56z9d","","1xzkx56z9d","""2024-11-12T18:26:14.908Z""","913","Welcome! <p> This experiment involves two parts: demographic information, followed by the experimental task.<p> It will take about 25 minutes to complete both parts.","0","","","","","","",""
"","","","","","survey-text","7","18561","0.0-7.0","1xzkx56z9d","","1xzkx56z9d","""2024-11-12T18:26:14.908Z""","8380","","{""Age"":""18"",""Gender"":""Female"",""Race/ethnicity"":""Italian and Chinese""}","","","","","","",""
"","","","","","html-button-response","8","33087","0.0-8.0","1xzkx56z9d","","1xzkx56z9d","""2024-11-12T18:26:14.908Z""","14526","<div style='text-align: center;'>
      <p>In each trial of this task, you will see three texture images: one target item on top, and two choices beneath the target item.</p>
      <p><strong>Please select the item that is most like the target item.</strong></p>
      <p>To select the option on the <strong>LEFT</strong>, press the <strong>LEFT ARROW</strong> key. 
      To select the option on the <strong>RIGHT</strong>, press the <strong>RIGHT ARROW</strong> key.</p>
                  <!-- Target Image at the Top -->
      <div style='margin: 20px;'>
        <img src='materials/imgs/instruction_images/InstructionImg1D78.png' alt='Target Image' style='width:200px; height:auto;' />
        <p><em>Target Image</em></p>
      </div>

      <!-- Two Choice Images Below -->
      <div style='display: flex; justify-content: center;'>
        <div style='margin-right: 50px;'>
          <img src='materials/imgs/instruction_images/InstructionImg2D34.png' alt='Choice Image 1' style='width:150px; height:auto;' />
          <p><em><strong>LEFT ARROW</strong></em></p>
        </div>
        <div style='margin-left: 50px;'>
          <img src='materials/imgs/instruction_images/InstructionImg3D80.png' alt='Choice Image 2' style='width:150px; height:auto;' />
          <p><em><strong>RIGHT ARROW</strong></em></p>
        </div>
      </div>
    </div>

      <p>When you are ready to proceed, please click 'Continue' to begin practice.</p>","0","","","","","","",""
"","","","","","html-keyboard-response","9","35591","0.0-9.0","1xzkx56z9d","","1xzkx56z9d","""2024-11-12T18:26:14.908Z""","null","+","null","","","","","","",""
"","","","","","html-keyboard-response","10","36092","0.0-10.0-0.0-0.0","1xzkx56z9d","","1xzkx56z9d","""2024-11-12T18:26:14.908Z""","null","+","null","","","","","","",""
"","","","","","image-keyboard-response","11","38987","0.0-10.0-0.0-1.0","1xzkx56z9d","","1xzkx56z9d","""2024-11-12T18:26:14.908Z""","2893","materials/imgs/D74.png","arrowright","","[""materials/imgs/D3.png"",""materials/imgs/D66.png""]","false","random","","",""
"","","","","","html-keyboard-response","12","39489","0.0-10.0-0.0-0.1","1xzkx56z9d","","1xzkx56z9d","""2024-11-12T18:26:14.908Z""","null","+","null","","","","","","",""
"","","","","","image-keyboard-response","13","41733","0.0-10.0-0.0-1.1","1xzkx56z9d","","1xzkx56z9d","""2024-11-12T18:26:14.908Z""","2242","materials/imgs/D17.png","arrowright","","[""materials/imgs/D35.png"",""materials/imgs/D3.png""]","false","random","","",""
"","","","","","html-keyboard-response","14","42235","0.0-10.0-0.0-0.2","1xzkx56z9d","","1xzkx56z9d","""2024-11-12T18:26:14.908Z""","null","+","null","","","","","","",""
"","","","","","image-keyboard-response","15","44455","0.0-10.0-0.0-1.2","1xzkx56z9d","","1xzkx56z9d","""2024-11-12T18:26:14.908Z""","2218","materials/imgs/D76.png","arrowright","","[""materials/imgs/D81.png"",""materials/imgs/D78.png""]","false","random","","",""
"","","","","","html-keyboard-response","16","44956","0.0-10.0-0.0-0.3","1xzkx56z9d","","1xzkx56z9d","""2024-11-12T18:26:14.908Z""","null","+","null","","","","","","",""
"","","","","","image-keyboard-response","17","45807","0.0-10.0-0.0-1.3","1xzkx56z9d","","1xzkx56z9d","""2024-11-12T18:26:14.908Z""","849","materials/imgs/D32.png","arrowright","","[""materials/imgs/D95.png"",""materials/imgs/D4.png""]","false","random","","",""
"","","","","","html-keyboard-response","18","46309","0.0-10.0-0.0-0.4","1xzkx56z9d","","1xzkx56z9d","""2024-11-12T18:26:14.908Z""","null","+","null","","","","","","",""
"","","","","","image-keyboard-response","19","48056","0.0-10.0-0.0-1.4","1xzkx56z9d","","1xzkx56z9d","""2024-11-12T18:26:14.908Z""","1746","materials/imgs/D111.png","arrowright","","[""materials/imgs/D57.png"",""materials/imgs/D8.png""]","false","random","","",""
"","","","","","html-keyboard-response","20","48558","0.0-10.0-0.0-0.5","1xzkx56z9d","","1xzkx56z9d","""2024-11-12T18:26:14.908Z""","null","+","null","","","","","","",""
"","","","","","image-keyboard-response","21","50575","0.0-10.0-0.0-1.5","1xzkx56z9d","","1xzkx56z9d","""2024-11-12T18:26:14.908Z""","2014","materials/imgs/D9.png","arrowleft","","[""materials/imgs/D6.png"",""materials/imgs/D75.png""]","false","random","","",""
"","","","","","html-keyboard-response","22","51076","0.0-10.0-0.0-0.6","1xzkx56z9d","","1xzkx56z9d","""2024-11-12T18:26:14.908Z""","null","+","null","","","","","","",""
"","","","","","image-keyboard-response","23","52645","0.0-10.0-0.0-1.6","1xzkx56z9d","","1xzkx56z9d","""2024-11-12T18:26:14.908Z""","1566","materials/imgs/D52.png","arrowleft","","[""materials/imgs/D36.png"",""materials/imgs/D95.png""]","false","random","","",""
"","","","","","html-keyboard-response","24","53146","0.0-10.0-0.0-0.7","1xzkx56z9d","","1xzkx56z9d","""2024-11-12T18:26:14.908Z""","null","+","null","","","","","","",""
"","","","","","image-keyboard-response","25","58751","0.0-10.0-0.0-1.7","1xzkx56z9d","","1xzkx56z9d","""2024-11-12T18:26:14.908Z""","5604","materials/imgs/D68.png","arrowright","","[""materials/imgs/D57.png"",""materials/imgs/D9.png""]","false","random","","",""
"","","","","","html-keyboard-response","26","59252","0.0-10.0-0.0-0.8","1xzkx56z9d","","1xzkx56z9d","""2024-11-12T18:26:14.908Z""","null","+","null","","","","","","",""
"","","","","","image-keyboard-response","27","61248","0.0-10.0-0.0-1.8","1xzkx56z9d","","1xzkx56z9d","""2024-11-12T18:26:14.908Z""","1992","materials/imgs/D102.png","arrowright","","[""materials/imgs/D79.png"",""materials/imgs/D76.png""]","false","random","","",""
"","","","","","html-keyboard-response","28","61749","0.0-10.0-0.0-0.9","1xzkx56z9d","","1xzkx56z9d","""2024-11-12T18:26:14.908Z""","null","+","null","","","","","","",""
"","","","","","image-keyboard-response","29","63062","0.0-10.0-0.0-1.9","1xzkx56z9d","","1xzkx56z9d","""2024-11-12T18:26:14.908Z""","1310","materials/imgs/D14.png","arrowleft","","[""materials/imgs/D11.png"",""materials/imgs/D111.png""]","false","random","","",""
"","","","","","html-button-response","30","64020","0.0-11.0","1xzkx56z9d","","1xzkx56z9d","""2024-11-12T18:26:14.908Z""","957","<p>Great job!</p>
      <p>You are now ready to begin the experiment.</p>
      <p>There will be around 200 trials. You will have opportunities to take breaks at three stages of the trials.</p>
      <p>When you are ready to begin please click 'Continue'.</p>","0","","","","","","",""
"","","","","","html-keyboard-response","31","66524","0.0-12.0","1xzkx56z9d","","1xzkx56z9d","""2024-11-12T18:26:14.908Z""","null","+","null","","","","","","",""
"","","","","","html-keyboard-response","32","67025","0.0-13.0-0.0-0.0","1xzkx56z9d","","1xzkx56z9d","""2024-11-12T18:26:14.908Z""","null","+","null","","","","","","",""
"","","","","","image-keyboard-response","33","69172","0.0-13.0-0.0-1.0","1xzkx56z9d","","1xzkx56z9d","""2024-11-12T18:26:14.908Z""","2145","materials/imgs/D74.png","arrowleft","","[""materials/imgs/D92.png"",""materials/imgs/D8.png""]","false","random","","",""
"","","","","","html-keyboard-response","34","69674","0.0-13.0-0.0-0.1","1xzkx56z9d","","1xzkx56z9d","""2024-11-12T18:26:14.908Z""","null","+","null","","","","","","",""
"","","","","","image-keyboard-response","35","71111","0.0-13.0-0.0-1.1","1xzkx56z9d","","1xzkx56z9d","""2024-11-12T18:26:14.908Z""","1434","materials/imgs/D65.png","arrowleft","","[""materials/imgs/D94.png"",""materials/imgs/D57.png""]","false","random","","",""
"","","","","","html-keyboard-response","36","71612","0.0-13.0-0.0-0.2","1xzkx56z9d","","1xzkx56z9d","""2024-11-12T18:26:14.908Z""","null","+","null","","","","","","",""
"","","","","","image-keyboard-response","37","72219","0.0-13.0-0.0-1.2","1xzkx56z9d","","1xzkx56z9d","""2024-11-12T18:26:14.908Z""","605","materials/imgs/D103.png","arrowright","","[""materials/imgs/D35.png"",""materials/imgs/D84.png""]","false","random","","",""
"","","","","","html-keyboard-response","38","72721","0.0-13.0-0.0-0.3","1xzkx56z9d","","1xzkx56z9d","""2024-11-12T18:26:14.908Z""","null","+","null","","","","","","",""
"","","","","","image-keyboard-response","39","73358","0.0-13.0-0.0-1.3","1xzkx56z9d","","1xzkx56z9d","""2024-11-12T18:26:14.908Z""","636","materials/imgs/D80.png","arrowleft","","[""materials/imgs/D87.png"",""materials/imgs/D52.png""]","false","random","","",""
"","","","","","html-keyboard-response","40","73860","0.0-13.0-0.0-0.4","1xzkx56z9d","","1xzkx56z9d","""2024-11-12T18:26:14.908Z""","null","+","null","","","","","","",""
"","","","","","image-keyboard-response","41","74379","0.0-13.0-0.0-1.4","1xzkx56z9d","","1xzkx56z9d","""2024-11-12T18:26:14.908Z""","517","materials/imgs/D36.png","arrowright","","[""materials/imgs/D18.png"",""materials/imgs/D37.png""]","false","random","","",""
"","","","","","html-keyboard-response","42","74880","0.0-13.0-0.0-0.5","1xzkx56z9d","","1xzkx56z9d","""2024-11-12T18:26:14.908Z""","null","+","null","","","","","","",""
"","","","","","image-keyboard-response","43","75395","0.0-13.0-0.0-1.5","1xzkx56z9d","","1xzkx56z9d","""2024-11-12T18:26:14.908Z""","512","materials/imgs/D36.png","arrowright","","[""materials/imgs/D74.png"",""materials/imgs/D17.png""]","false","random","","",""
"","","","","","html-keyboard-response","44","75897","0.0-13.0-0.0-0.6","1xzkx56z9d","","1xzkx56z9d","""2024-11-12T18:26:14.908Z""","null","+","null","","","","","","",""
"","","","","","image-keyboard-response","45","76335","0.0-13.0-0.0-1.6","1xzkx56z9d","","1xzkx56z9d","""2024-11-12T18:26:14.908Z""","435","materials/imgs/D3.png","arrowleft","","[""materials/imgs/D55.png"",""materials/imgs/D21.png""]","true","random","","",""
"","","","","","html-keyboard-response","46","79181","0.0-13.0-0.0-2.6-0.6","1xzkx56z9d","","1xzkx56z9d","""2024-11-12T18:26:14.908Z""","2845","<p><strong>You're going too fast.</strong><p>Please slow down and assess each triplet.<p>Press 'y' to continue.</p></p>","y","","","","","","",""
"","","","","","html-keyboard-response","47","79682","0.0-13.0-1.0-0.0","1xzkx56z9d","","1xzkx56z9d","""2024-11-12T18:26:14.908Z""","null","+","null","","","","","","",""
"","","","","","image-keyboard-response","48","80563","0.0-13.0-1.0-1.0","1xzkx56z9d","","1xzkx56z9d","""2024-11-12T18:26:14.908Z""","879","materials/imgs/D53.png","arrowright","","[""materials/imgs/D64.png"",""materials/imgs/D53.png""]","","check","materials/imgs/D53.png","1","true"
"","","","","","html-keyboard-response","49","81065","0.0-13.0-2.0-0.0","1xzkx56z9d","","1xzkx56z9d","""2024-11-12T18:26:14.908Z""","null","+","null","","","","","","",""
"","","","","","image-keyboard-response","50","82428","0.0-13.0-2.0-1.0","1xzkx56z9d","","1xzkx56z9d","""2024-11-12T18:26:14.908Z""","1363","materials/imgs/D111.png","arrowright","","[""materials/imgs/D82.png"",""materials/imgs/D95.png""]","false","validation","","",""
"","","","","","html-keyboard-response","51","82929","0.0-13.0-2.0-0.1","1xzkx56z9d","","1xzkx56z9d","""2024-11-12T18:26:14.908Z""","null","+","null","","","","","","",""
"","","","","","image-keyboard-response","52","83916","0.0-13.0-2.0-1.1","1xzkx56z9d","","1xzkx56z9d","""2024-11-12T18:26:14.908Z""","985","materials/imgs/D9.png","arrowright","","[""materials/imgs/D103.png"",""materials/imgs/D4.png""]","false","validation","","",""
"","","","","","html-keyboard-response","53","84418","0.0-13.0-0.1-0.7","1xzkx56z9d","","1xzkx56z9d","""2024-11-12T18:26:14.908Z""","null","+","null","","","","","","",""
"","","","","","image-keyboard-response","54","85745","0.0-13.0-0.1-1.7","1xzkx56z9d","","1xzkx56z9d","""2024-11-12T18:26:14.908Z""","1325","materials/imgs/D47.png","arrowright","","[""materials/imgs/D96.png"",""materials/imgs/D46.png""]","false","random","","",""
"","","","","","html-keyboard-response","55","86247","0.0-13.0-0.1-0.8","1xzkx56z9d","","1xzkx56z9d","""2024-11-12T18:26:14.908Z""","null","+","null","","","","","","",""
"","","","","","image-keyboard-response","56","87453","0.0-13.0-0.1-1.8","1xzkx56z9d","","1xzkx56z9d","""2024-11-12T18:26:14.908Z""","1204","materials/imgs/D48.png","arrowleft","","[""materials/imgs/D64.png"",""materials/imgs/D105.png""]","false","random","","",""
"","","","","","html-keyboard-response","57","87955","0.0-13.0-0.1-0.9","1xzkx56z9d","","1xzkx56z9d","""2024-11-12T18:26:14.908Z""","null","+","null","","","","","","",""
"","","","","","image-keyboard-response","58","89145","0.0-13.0-0.1-1.9","1xzkx56z9d","","1xzkx56z9d","""2024-11-12T18:26:14.908Z""","1188","materials/imgs/D26.png","arrowright","","[""materials/imgs/D32.png"",""materials/imgs/D103.png""]","false","random","","",""
"","","","","","html-keyboard-response","59","89646","0.0-13.0-0.1-0.10","1xzkx56z9d","","1xzkx56z9d","""2024-11-12T18:26:14.908Z""","null","+","null","","","","","","",""
"","","","","","image-keyboard-response","60","90556","0.0-13.0-0.1-1.10","1xzkx56z9d","","1xzkx56z9d","""2024-11-12T18:26:14.908Z""","907","materials/imgs/D26.png","arrowleft","","[""materials/imgs/D64.png"",""materials/imgs/D37.png""]","false","random","","",""
"","","","","","html-keyboard-response","61","91057","0.0-13.0-0.1-0.11","1xzkx56z9d","","1xzkx56z9d","""2024-11-12T18:26:14.908Z""","null","+","null","","","","","","",""
"","","","","","image-keyboard-response","62","92186","0.0-13.0-0.1-1.11","1xzkx56z9d","","1xzkx56z9d","""2024-11-12T18:26:14.908Z""","1126","materials/imgs/D76.png","arrowright","","[""materials/imgs/D24.png"",""materials/imgs/D29.png""]","false","random","","",""
"","","","","","html-keyboard-response","63","92688","0.0-13.0-0.1-0.12","1xzkx56z9d","","1xzkx56z9d","""2024-11-12T18:26:14.908Z""","null","+","null","","","","","","",""
"","","","","","image-keyboard-response","64","93679","0.0-13.0-0.1-1.12","1xzkx56z9d","","1xzkx56z9d","""2024-11-12T18:26:14.908Z""","989","materials/imgs/D17.png","arrowright","","[""materials/imgs/D75.png"",""materials/imgs/D57.png""]","false","random","","",""
"","","","","","html-keyboard-response","65","94181","0.0-13.0-0.1-0.13","1xzkx56z9d","","1xzkx56z9d","""2024-11-12T18:26:14.908Z""","null","+","null","","","","","","",""
"","","","","","image-keyboard-response","66","95305","0.0-13.0-0.1-1.13","1xzkx56z9d","","1xzkx56z9d","""2024-11-12T18:26:14.908Z""","1122","materials/imgs/D34.png","arrowright","","[""materials/imgs/D84.png"",""materials/imgs/D102.png""]","false","random","","",""
"","","","","","html-keyboard-response","67","95806","0.0-13.0-1.1-0.1","1xzkx56z9d","","1xzkx56z9d","""2024-11-12T18:26:14.908Z""","null","+","null","","","","","","",""
"","","","","","image-keyboard-response","68","96732","0.0-13.0-1.1-1.1","1xzkx56z9d","","1xzkx56z9d","""2024-11-12T18:26:14.908Z""","923","materials/imgs/D76.png","arrowleft","","[""materials/imgs/D76.png"",""materials/imgs/D78.png""]","","check","materials/imgs/D76.png","0","true"
"","","","","","html-keyboard-response","69","97233","0.0-13.0-2.1-0.2","1xzkx56z9d","","1xzkx56z9d","""2024-11-12T18:26:14.908Z""","null","+","null","","","","","","",""
"","","","","","image-keyboard-response","70","98344","0.0-13.0-2.1-1.2","1xzkx56z9d","","1xzkx56z9d","""2024-11-12T18:26:14.908Z""","1109","materials/imgs/D64.png","arrowright","","[""materials/imgs/D6.png"",""materials/imgs/D81.png""]","false","validation","","",""
"","","","","","html-keyboard-response","71","98845","0.0-13.0-2.1-0.3","1xzkx56z9d","","1xzkx56z9d","""2024-11-12T18:26:14.908Z""","null","+","null","","","","","","",""
"","","","","","image-keyboard-response","72","100077","0.0-13.0-2.1-1.3","1xzkx56z9d","","1xzkx56z9d","""2024-11-12T18:26:14.908Z""","1231","materials/imgs/D18.png","arrowleft","","[""materials/imgs/D32.png"",""materials/imgs/D57.png""]","false","validation","","",""
"","","","","","html-keyboard-response","73","100579","0.0-13.0-0.2-0.14","1xzkx56z9d","","1xzkx56z9d","""2024-11-12T18:26:14.908Z""","null","+","null","","","","","","",""
"","","","","","image-keyboard-response","74","101546","0.0-13.0-0.2-1.14","1xzkx56z9d","","1xzkx56z9d","""2024-11-12T18:26:14.908Z""","965","materials/imgs/D19.png","arrowright","","[""materials/imgs/D51.png"",""materials/imgs/D36.png""]","false","random","","",""
"","","","","","html-keyboard-response","75","102048","0.0-13.0-0.2-0.15","1xzkx56z9d","","1xzkx56z9d","""2024-11-12T18:26:14.908Z""","null","+","null","","","","","","",""
"","","","","","image-keyboard-response","76","103944","0.0-13.0-0.2-1.15","1xzkx56z9d","","1xzkx56z9d","""2024-11-12T18:26:14.908Z""","1893","materials/imgs/D49.png","arrowright","","[""materials/imgs/D25.png"",""materials/imgs/D83.png""]","false","random","","",""
"","","","","","html-keyboard-response","77","104445","0.0-13.0-0.2-0.16","1xzkx56z9d","","1xzkx56z9d","""2024-11-12T18:26:14.908Z""","null","+","null","","","","","","",""
"","","","","","image-keyboard-response","78","105224","0.0-13.0-0.2-1.16","1xzkx56z9d","","1xzkx56z9d","""2024-11-12T18:26:14.908Z""","777","materials/imgs/D8.png","arrowleft","","[""materials/imgs/D83.png"",""materials/imgs/D20.png""]","false","random","","",""
"","","","","","html-keyboard-response","79","105725","0.0-13.0-0.2-0.17","1xzkx56z9d","","1xzkx56z9d","""2024-11-12T18:26:14.908Z""","null","+","null","","","","","","",""
"","","","","","image-keyboard-response","80","106943","0.0-13.0-0.2-1.17","1xzkx56z9d","","1xzkx56z9d","""2024-11-12T18:26:14.908Z""","1217","materials/imgs/D81.png","arrowright","","[""materials/imgs/D75.png"",""materials/imgs/D56.png""]","false","random","","",""
"","","","","","html-keyboard-response","81","107445","0.0-13.0-0.2-0.18","1xzkx56z9d","","1xzkx56z9d","""2024-11-12T18:26:14.908Z""","null","+","null","","","","","","",""
"","","","","","image-keyboard-response","82","108432","0.0-13.0-0.2-1.18","1xzkx56z9d","","1xzkx56z9d","""2024-11-12T18:26:14.908Z""","984","materials/imgs/D6.png","arrowright","","[""materials/imgs/D19.png"",""materials/imgs/D16.png""]","false","random","","",""
"","","","","","html-keyboard-response","83","108933","0.0-13.0-0.2-0.19","1xzkx56z9d","","1xzkx56z9d","""2024-11-12T18:26:14.908Z""","null","+","null","","","","","","",""
"","","","","","image-keyboard-response","84","110492","0.0-13.0-0.2-1.19","1xzkx56z9d","","1xzkx56z9d","""2024-11-12T18:26:14.908Z""","1557","materials/imgs/D37.png","arrowleft","","[""materials/imgs/D78.png"",""materials/imgs/D84.png""]","false","random","","",""
"","","","","","html-keyboard-response","85","110993","0.0-13.0-0.2-0.20","1xzkx56z9d","","1xzkx56z9d","""2024-11-12T18:26:14.908Z""","null","+","null","","","","","","",""
"","","","","","image-keyboard-response","86","111986","0.0-13.0-0.2-1.20","1xzkx56z9d","","1xzkx56z9d","""2024-11-12T18:26:14.908Z""","990","materials/imgs/D25.png","arrowright","","[""materials/imgs/D111.png"",""materials/imgs/D80.png""]","false","random","","",""
"","","","","","html-keyboard-response","87","112488","0.0-13.0-1.2-0.2","1xzkx56z9d","","1xzkx56z9d","""2024-11-12T18:26:14.908Z""","null","+","null","","","","","","",""
"","","","","","image-keyboard-response","88","113580","0.0-13.0-1.2-1.2","1xzkx56z9d","","1xzkx56z9d","""2024-11-12T18:26:14.908Z""","1090","materials/imgs/D101.png","arrowright","","[""materials/imgs/D106.png"",""materials/imgs/D101.png""]","","check","materials/imgs/D101.png","1","true"
"","","","","","html-keyboard-response","89","114083","0.0-13.0-2.2-0.4","1xzkx56z9d","","1xzkx56z9d","""2024-11-12T18:26:14.908Z""","null","+","null","","","","","","",""
"","","","","","image-keyboard-response","90","115584","0.0-13.0-2.2-1.4","1xzkx56z9d","","1xzkx56z9d","""2024-11-12T18:26:14.908Z""","1499","materials/imgs/D52.png","arrowleft","","[""materials/imgs/D9.png"",""materials/imgs/D19.png""]","false","validation","","",""
"","","","","","html-keyboard-response","91","116085","0.0-13.0-2.2-0.5","1xzkx56z9d","","1xzkx56z9d","""2024-11-12T18:26:14.908Z""","null","+","null","","","","","","",""
"","","","","","image-keyboard-response","92","117501","0.0-13.0-2.2-1.5","1xzkx56z9d","","1xzkx56z9d","""2024-11-12T18:26:14.908Z""","1413","materials/imgs/D1.png","arrowright","","[""materials/imgs/D57.png"",""materials/imgs/D76.png""]","false","validation","","",""
"","","","","","html-keyboard-response","93","118003","0.0-13.0-0.3-0.21","1xzkx56z9d","","1xzkx56z9d","""2024-11-12T18:26:14.908Z""","null","+","null","","","","","","",""
"","","","","","image-keyboard-response","94","119499","0.0-13.0-0.3-1.21","1xzkx56z9d","","1xzkx56z9d","""2024-11-12T18:26:14.908Z""","1494","materials/imgs/D47.png","arrowleft","","[""materials/imgs/D56.png"",""materials/imgs/D76.png""]","false","random","","",""
"","","","","","html-keyboard-response","95","120001","0.0-13.0-0.3-0.22","1xzkx56z9d","","1xzkx56z9d","""2024-11-12T18:26:14.908Z""","null","+","null","","","","","","",""
"","","","","","image-keyboard-response","96","121708","0.0-13.0-0.3-1.22","1xzkx56z9d","","1xzkx56z9d","""2024-11-12T18:26:14.908Z""","1705","materials/imgs/D105.png","arrowright","","[""materials/imgs/D56.png"",""materials/imgs/D24.png""]","false","random","","",""
"","","","","","html-keyboard-response","97","122209","0.0-13.0-0.3-0.23","1xzkx56z9d","","1xzkx56z9d","""2024-11-12T18:26:14.908Z""","null","+","null","","","","","","",""
"","","","","","image-keyboard-response","98","123445","0.0-13.0-0.3-1.23","1xzkx56z9d","","1xzkx56z9d","""2024-11-12T18:26:14.908Z""","1234","materials/imgs/D101.png","arrowleft","","[""materials/imgs/D8.png"",""materials/imgs/D66.png""]","false","random","","",""
"","","","","","html-keyboard-response","99","123946","0.0-13.0-0.3-0.24","1xzkx56z9d","","1xzkx56z9d","""2024-11-12T18:26:14.908Z""","null","+","null","","","","","","",""
"","","","","","image-keyboard-response","100","125153","0.0-13.0-0.3-1.24","1xzkx56z9d","","1xzkx56z9d","""2024-11-12T18:26:14.908Z""","1206","materials/imgs/D34.png","arrowleft","","[""materials/imgs/D11.png"",""materials/imgs/D106.png""]","false","random","","",""
"","","","","","html-keyboard-response","101","125654","0.0-13.0-0.3-0.25","1xzkx56z9d","","1xzkx56z9d","""2024-11-12T18:26:14.908Z""","null","+","null","","","","","","",""
"","","","","","image-keyboard-response","102","126934","0.0-13.0-0.3-1.25","1xzkx56z9d","","1xzkx56z9d","""2024-11-12T18:26:14.908Z""","1277","materials/imgs/D52.png","arrowright","","[""materials/imgs/D111.png"",""materials/imgs/D6.png""]","false","random","","",""
"","","","","","html-keyboard-response","103","127435","0.0-13.0-0.3-0.26","1xzkx56z9d","","1xzkx56z9d","""2024-11-12T18:26:14.908Z""","null","+","null","","","","","","",""
"","","","","","image-keyboard-response","104","128824","0.0-13.0-0.3-1.26","1xzkx56z9d","","1xzkx56z9d","""2024-11-12T18:26:14.908Z""","1387","materials/imgs/D101.png","arrowleft","","[""materials/imgs/D22.png"",""materials/imgs/D17.png""]","false","random","","",""
"","","","","","html-keyboard-response","105","129326","0.0-13.0-0.3-0.27","1xzkx56z9d","","1xzkx56z9d","""2024-11-12T18:26:14.908Z""","null","+","null","","","","","","",""
"","","","","","image-keyboard-response","106","131112","0.0-13.0-0.3-1.27","1xzkx56z9d","","1xzkx56z9d","""2024-11-12T18:26:14.908Z""","1783","materials/imgs/D66.png","arrowleft","","[""materials/imgs/D57.png"",""materials/imgs/D94.png""]","false","random","","",""
"","","","","","html-keyboard-response","107","131613","0.0-13.0-1.3-0.3","1xzkx56z9d","","1xzkx56z9d","""2024-11-12T18:26:14.908Z""","null","+","null","","","","","","",""
"","","","","","image-keyboard-response","108","133339","0.0-13.0-1.3-1.3","1xzkx56z9d","","1xzkx56z9d","""2024-11-12T18:26:14.908Z""","1724","materials/imgs/D64.png","arrowleft","","[""materials/imgs/D64.png"",""materials/imgs/D53.png""]","","check","materials/imgs/D64.png","0","true"
"","","","","","html-keyboard-response","109","133840","0.0-13.0-2.3-0.6","1xzkx56z9d","","1xzkx56z9d","""2024-11-12T18:26:14.908Z""","null","+","null","","","","","","",""
"","","","","","image-keyboard-response","110","135193","0.0-13.0-2.3-1.6","1xzkx56z9d","","1xzkx56z9d","""2024-11-12T18:26:14.908Z""","1350","materials/imgs/D56.png","arrowleft","","[""materials/imgs/D25.png"",""materials/imgs/D105.png""]","false","validation","","",""
"","","","","","html-keyboard-response","111","135694","0.0-13.0-2.3-0.7","1xzkx56z9d","","1xzkx56z9d","""2024-11-12T18:26:14.908Z""","null","+","null","","","","","","",""
"","","","","","image-keyboard-response","112","136964","0.0-13.0-2.3-1.7","1xzkx56z9d","","1xzkx56z9d","""2024-11-12T18:26:14.908Z""","1267","materials/imgs/D35.png","arrowleft","","[""materials/imgs/D83.png"",""materials/imgs/D24.png""]","false","validation","","",""
"","","","","","html-keyboard-response","113","137465","0.0-13.0-0.4-0.28","1xzkx56z9d","","1xzkx56z9d","""2024-11-12T18:26:14.908Z""","null","+","null","","","","","","",""
"","","","","","image-keyboard-response","114","138805","0.0-13.0-0.4-1.28","1xzkx56z9d","","1xzkx56z9d","""2024-11-12T18:26:14.908Z""","1337","materials/imgs/D34.png","arrowleft","","[""materials/imgs/D55.png"",""materials/imgs/D21.png""]","false","random","","",""
"","","","","","html-keyboard-response","115","139307","0.0-13.0-0.4-0.29","1xzkx56z9d","","1xzkx56z9d","""2024-11-12T18:26:14.908Z""","null","+","null","","","","","","",""
"","","","","","image-keyboard-response","116","140846","0.0-13.0-0.4-1.29","1xzkx56z9d","","1xzkx56z9d","""2024-11-12T18:26:14.908Z""","1536","materials/imgs/D32.png","arrowright","","[""materials/imgs/D25.png"",""materials/imgs/D106.png""]","false","random","","",""
"","","","","","html-keyboard-response","117","141348","0.0-13.0-0.4-0.30","1xzkx56z9d","","1xzkx56z9d","""2024-11-12T18:26:14.908Z""","null","+","null","","","","","","",""
"","","","","","image-keyboard-response","118","142615","0.0-13.0-0.4-1.30","1xzkx56z9d","","1xzkx56z9d","""2024-11-12T18:26:14.908Z""","1264","materials/imgs/D18.png","arrowleft","","[""materials/imgs/D65.png"",""materials/imgs/D77.png""]","false","random","","",""
"","","","","","html-keyboard-response","119","143116","0.0-13.0-0.4-0.31","1xzkx56z9d","","1xzkx56z9d","""2024-11-12T18:26:14.908Z""","null","+","null","","","","","","",""
"","","","","","image-keyboard-response","120","144345","0.0-13.0-0.4-1.31","1xzkx56z9d","","1xzkx56z9d","""2024-11-12T18:26:14.908Z""","1226","materials/imgs/D83.png","arrowright","","[""materials/imgs/D48.png"",""materials/imgs/D47.png""]","false","random","","",""
"","","","","","html-keyboard-response","121","144846","0.0-13.0-0.4-0.32","1xzkx56z9d","","1xzkx56z9d","""2024-11-12T18:26:14.908Z""","null","+","null","","","","","","",""
"","","","","","image-keyboard-response","122","146218","0.0-13.0-0.4-1.32","1xzkx56z9d","","1xzkx56z9d","""2024-11-12T18:26:14.908Z""","1370","materials/imgs/D47.png","arrowright","","[""materials/imgs/D53.png"",""materials/imgs/D64.png""]","false","random","","",""
"","","","","","html-keyboard-response","123","146719","0.0-13.0-0.4-0.33","1xzkx56z9d","","1xzkx56z9d","""2024-11-12T18:26:14.908Z""","null","+","null","","","","","","",""
"","","","","","image-keyboard-response","124","148030","0.0-13.0-0.4-1.33","1xzkx56z9d","","1xzkx56z9d","""2024-11-12T18:26:14.908Z""","1309","materials/imgs/D22.png","arrowright","","[""materials/imgs/D75.png"",""materials/imgs/D57.png""]","false","random","","",""
"","","","","","html-keyboard-response","125","148532","0.0-13.0-0.4-0.34","1xzkx56z9d","","1xzkx56z9d","""2024-11-12T18:26:14.908Z""","null","+","null","","","","","","",""
"","","","","","image-keyboard-response","126","150502","0.0-13.0-0.4-1.34","1xzkx56z9d","","1xzkx56z9d","""2024-11-12T18:26:14.908Z""","1961","materials/imgs/D11.png","arrowright","","[""materials/imgs/D20.png"",""materials/imgs/D19.png""]","false","random","","",""
"","","","","","html-keyboard-response","127","151003","0.0-13.0-1.4-0.4","1xzkx56z9d","","1xzkx56z9d","""2024-11-12T18:26:14.908Z""","null","+","null","","","","","","",""
"","","","","","image-keyboard-response","128","154309","0.0-13.0-1.4-1.4","1xzkx56z9d","","1xzkx56z9d","""2024-11-12T18:26:14.908Z""","3304","materials/imgs/D78.png","arrowright","","[""materials/imgs/D76.png"",""materials/imgs/D78.png""]","","check","materials/imgs/D78.png","1","true"
"","","","","","html-keyboard-response","129","154810","0.0-13.0-2.4-0.8","1xzkx56z9d","","1xzkx56z9d","""2024-11-12T18:26:14.908Z""","null","+","null","","","","","","",""
"","","","","","image-keyboard-response","130","155427","0.0-13.0-2.4-1.8","1xzkx56z9d","","1xzkx56z9d","""2024-11-12T18:26:14.908Z""","615","materials/imgs/D57.png","arrowright","","[""materials/imgs/D111.png"",""materials/imgs/D4.png""]","false","validation","","",""
"","","","","","html-keyboard-response","131","155929","0.0-13.0-2.4-0.9","1xzkx56z9d","","1xzkx56z9d","""2024-11-12T18:26:14.908Z""","null","+","null","","","","","","",""
"","","","","","image-keyboard-response","132","157152","0.0-13.0-2.4-1.9","1xzkx56z9d","","1xzkx56z9d","""2024-11-12T18:26:14.908Z""","1221","materials/imgs/D46.png","arrowleft","","[""materials/imgs/D92.png"",""materials/imgs/D77.png""]","false","validation","","",""
"","","","","","html-button-response","133","158871","0.0-14.0","1xzkx56z9d","","1xzkx56z9d","""2024-11-12T18:26:14.908Z""","1718","You have completed 25% of the trials. Please click 'Continue' when you are ready proceed.","0","","","","","","",""
"","","","","","html-keyboard-response","134","159373","0.0-15.0-0.0-0.0","1xzkx56z9d","","1xzkx56z9d","""2024-11-12T18:26:14.908Z""","null","+","null","","","","","","",""
"","","","","","image-keyboard-response","135","161642","0.0-15.0-0.0-1.0","1xzkx56z9d","","1xzkx56z9d","""2024-11-12T18:26:14.908Z""","2267","materials/imgs/D103.png","arrowright","","[""materials/imgs/D52.png"",""materials/imgs/D11.png""]","false","random","","",""
"","","","","","html-keyboard-response","136","162143","0.0-15.0-0.0-0.1","1xzkx56z9d","","1xzkx56z9d","""2024-11-12T18:26:14.908Z""","null","+","null","","","","","","",""
"","","","","","image-keyboard-response","137","163208","0.0-15.0-0.0-1.1","1xzkx56z9d","","1xzkx56z9d","""2024-11-12T18:26:14.908Z""","1062","materials/imgs/D55.png","arrowleft","","[""materials/imgs/D35.png"",""materials/imgs/D101.png""]","false","random","","",""
"","","","","","html-keyboard-response","138","163710","0.0-15.0-0.0-0.2","1xzkx56z9d","","1xzkx56z9d","""2024-11-12T18:26:14.908Z""","null","+","null","","","","","","",""
"","","","","","image-keyboard-response","139","165082","0.0-15.0-0.0-1.2","1xzkx56z9d","","1xzkx56z9d","""2024-11-12T18:26:14.908Z""","1369","materials/imgs/D111.png","arrowleft","","[""materials/imgs/D22.png"",""materials/imgs/D106.png""]","false","random","","",""
"","","","","","html-keyboard-response","140","165583","0.0-15.0-0.0-0.3","1xzkx56z9d","","1xzkx56z9d","""2024-11-12T18:26:14.908Z""","null","+","null","","","","","","",""
"","","","","","image-keyboard-response","141","166762","0.0-15.0-0.0-1.3","1xzkx56z9d","","1xzkx56z9d","""2024-11-12T18:26:14.908Z""","1176","materials/imgs/D77.png","arrowright","","[""materials/imgs/D25.png"",""materials/imgs/D47.png""]","false","random","","",""
"","","","","","html-keyboard-response","142","167263","0.0-15.0-0.0-0.4","1xzkx56z9d","","1xzkx56z9d","""2024-11-12T18:26:14.908Z""","null","+","null","","","","","","",""
"","","","","","image-keyboard-response","143","168545","0.0-15.0-0.0-1.4","1xzkx56z9d","","1xzkx56z9d","""2024-11-12T18:26:14.908Z""","1279","materials/imgs/D66.png","arrowright","","[""materials/imgs/D9.png"",""materials/imgs/D80.png""]","false","random","","",""
"","","","","","html-keyboard-response","144","169046","0.0-15.0-0.0-0.5","1xzkx56z9d","","1xzkx56z9d","""2024-11-12T18:26:14.908Z""","null","+","null","","","","","","",""
"","","","","","image-keyboard-response","145","170306","0.0-15.0-0.0-1.5","1xzkx56z9d","","1xzkx56z9d","""2024-11-12T18:26:14.908Z""","1257","materials/imgs/D18.png","arrowleft","","[""materials/imgs/D80.png"",""materials/imgs/D36.png""]","false","random","","",""
"","","","","","html-keyboard-response","146","170807","0.0-15.0-0.0-0.6","1xzkx56z9d","","1xzkx56z9d","""2024-11-12T18:26:14.908Z""","null","+","null","","","","","","",""
"","","","","","image-keyboard-response","147","171753","0.0-15.0-0.0-1.6","1xzkx56z9d","","1xzkx56z9d","""2024-11-12T18:26:14.908Z""","944","materials/imgs/D18.png","arrowright","","[""materials/imgs/D96.png"",""materials/imgs/D95.png""]","false","random","","",""
"","","","","","html-keyboard-response","148","172254","0.0-15.0-1.0-0.0","1xzkx56z9d","","1xzkx56z9d","""2024-11-12T18:26:14.908Z""","null","+","null","","","","","","",""
"","","","","","image-keyboard-response","149","173222","0.0-15.0-1.0-1.0","1xzkx56z9d","","1xzkx56z9d","""2024-11-12T18:26:14.908Z""","965","materials/imgs/D64.png","arrowleft","","[""materials/imgs/D64.png"",""materials/imgs/D53.png""]","","check","materials/imgs/D64.png","0","true"
"","","","","","html-keyboard-response","150","173724","0.0-15.0-2.0-0.0","1xzkx56z9d","","1xzkx56z9d","""2024-11-12T18:26:14.908Z""","null","+","null","","","","","","",""
"","","","","","image-keyboard-response","151","174864","0.0-15.0-2.0-1.0","1xzkx56z9d","","1xzkx56z9d","""2024-11-12T18:26:14.908Z""","1138","materials/imgs/D25.png","arrowright","","[""materials/imgs/D103.png"",""materials/imgs/D64.png""]","false","validation","","",""
"","","","","","html-keyboard-response","152","175365","0.0-15.0-2.0-0.1","1xzkx56z9d","","1xzkx56z9d","""2024-11-12T18:26:14.908Z""","null","+","null","","","","","","",""
"","","","","","image-keyboard-response","153","176843","0.0-15.0-2.0-1.1","1xzkx56z9d","","1xzkx56z9d","""2024-11-12T18:26:14.908Z""","1475","materials/imgs/D32.png","arrowleft","","[""materials/imgs/D68.png"",""materials/imgs/D96.png""]","false","validation","","",""
"","","","","","html-keyboard-response","154","177345","0.0-15.0-0.1-0.7","1xzkx56z9d","","1xzkx56z9d","""2024-11-12T18:26:14.908Z""","null","+","null","","","","","","",""
"","","","","","image-keyboard-response","155","178288","0.0-15.0-0.1-1.7","1xzkx56z9d","","1xzkx56z9d","""2024-11-12T18:26:14.908Z""","940","materials/imgs/D22.png","arrowright","","[""materials/imgs/D92.png"",""materials/imgs/D32.png""]","false","random","","",""
"","","","","","html-keyboard-response","156","178789","0.0-15.0-0.1-0.8","1xzkx56z9d","","1xzkx56z9d","""2024-11-12T18:26:14.908Z""","null","+","null","","","","","","",""
"","","","","","image-keyboard-response","157","179865","0.0-15.0-0.1-1.8","1xzkx56z9d","","1xzkx56z9d","""2024-11-12T18:26:14.908Z""","1073","materials/imgs/D26.png","arrowleft","","[""materials/imgs/D47.png"",""materials/imgs/D21.png""]","false","random","","",""
"","","","","","html-keyboard-response","158","180366","0.0-15.0-0.1-0.9","1xzkx56z9d","","1xzkx56z9d","""2024-11-12T18:26:14.908Z""","null","+","null","","","","","","",""
"","","","","","image-keyboard-response","159","181488","0.0-15.0-0.1-1.9","1xzkx56z9d","","1xzkx56z9d","""2024-11-12T18:26:14.908Z""","1119","materials/imgs/D14.png","arrowleft","","[""materials/imgs/D49.png"",""materials/imgs/D25.png""]","false","random","","",""
"","","","","","html-keyboard-response","160","181990","0.0-15.0-0.1-0.10","1xzkx56z9d","","1xzkx56z9d","""2024-11-12T18:26:14.908Z""","null","+","null","","","","","","",""
"","","","","","image-keyboard-response","161","183029","0.0-15.0-0.1-1.10","1xzkx56z9d","","1xzkx56z9d","""2024-11-12T18:26:14.908Z""","1037","materials/imgs/D16.png","arrowright","","[""materials/imgs/D19.png"",""materials/imgs/D104.png""]","false","random","","",""
"","","","","","html-keyboard-response","162","183531","0.0-15.0-0.1-0.11","1xzkx56z9d","","1xzkx56z9d","""2024-11-12T18:26:14.908Z""","null","+","null","","","","","","",""
"","","","","","image-keyboard-response","163","184755","0.0-15.0-0.1-1.11","1xzkx56z9d","","1xzkx56z9d","""2024-11-12T18:26:14.908Z""","1222","materials/imgs/D16.png","arrowright","","[""materials/imgs/D94.png"",""materials/imgs/D85.png""]","false","random","","",""
"","","","","","html-keyboard-response","164","185257","0.0-15.0-0.1-0.12","1xzkx56z9d","","1xzkx56z9d","""2024-11-12T18:26:14.908Z""","null","+","null","","","","","","",""
"","","","","","image-keyboard-response","165","187073","0.0-15.0-0.1-1.12","1xzkx56z9d","","1xzkx56z9d","""2024-11-12T18:26:14.908Z""","1814","materials/imgs/D64.png","arrowleft","","[""materials/imgs/D87.png"",""materials/imgs/D22.png""]","false","random","","",""
"","","","","","html-keyboard-response","166","187575","0.0-15.0-0.1-0.13","1xzkx56z9d","","1xzkx56z9d","""2024-11-12T18:26:14.908Z""","null","+","null","","","","","","",""
"","","","","","image-keyboard-response","167","188527","0.0-15.0-0.1-1.13","1xzkx56z9d","","1xzkx56z9d","""2024-11-12T18:26:14.908Z""","950","materials/imgs/D3.png","arrowright","","[""materials/imgs/D6.png"",""materials/imgs/D79.png""]","false","random","","",""
"","","","","","html-keyboard-response","168","189028","0.0-15.0-1.1-0.1","1xzkx56z9d","","1xzkx56z9d","""2024-11-12T18:26:14.908Z""","null","+","null","","","","","","",""
"","","","","","image-keyboard-response","169","193100","0.0-15.0-1.1-1.1","1xzkx56z9d","","1xzkx56z9d","""2024-11-12T18:26:14.908Z""","4069","materials/imgs/D78.png","arrowright","","[""materials/imgs/D76.png"",""materials/imgs/D78.png""]","","check","materials/imgs/D78.png","1","true"
"","","","","","html-keyboard-response","170","193602","0.0-15.0-2.1-0.2","1xzkx56z9d","","1xzkx56z9d","""2024-11-12T18:26:14.908Z""","null","+","null","","","","","","",""
"","","","","","image-keyboard-response","171","195208","0.0-15.0-2.1-1.2","1xzkx56z9d","","1xzkx56z9d","""2024-11-12T18:26:14.908Z""","1604","materials/imgs/D25.png","arrowleft","","[""materials/imgs/D103.png"",""materials/imgs/D64.png""]","false","validation","","",""
"","","","","","html-keyboard-response","172","195709","0.0-15.0-2.1-0.3","1xzkx56z9d","","1xzkx56z9d","""2024-11-12T18:26:14.908Z""","null","+","null","","","","","","",""
"","","","","","image-keyboard-response","173","197160","0.0-15.0-2.1-1.3","1xzkx56z9d","","1xzkx56z9d","""2024-11-12T18:26:14.908Z""","1449","materials/imgs/D11.png","arrowleft","","[""materials/imgs/D83.png"",""materials/imgs/D48.png""]","false","validation","","",""
"","","","","","html-keyboard-response","174","197661","0.0-15.0-0.2-0.14","1xzkx56z9d","","1xzkx56z9d","""2024-11-12T18:26:14.908Z""","null","+","null","","","","","","",""
"","","","","","image-keyboard-response","175","198964","0.0-15.0-0.2-1.14","1xzkx56z9d","","1xzkx56z9d","""2024-11-12T18:26:14.908Z""","1300","materials/imgs/D14.png","arrowleft","","[""materials/imgs/D3.png"",""materials/imgs/D20.png""]","false","random","","",""
"","","","","","html-keyboard-response","176","199466","0.0-15.0-0.2-0.15","1xzkx56z9d","","1xzkx56z9d","""2024-11-12T18:26:14.908Z""","null","+","null","","","","","","",""
"","","","","","image-keyboard-response","177","200719","0.0-15.0-0.2-1.15","1xzkx56z9d","","1xzkx56z9d","""2024-11-12T18:26:14.908Z""","1251","materials/imgs/D94.png","arrowright","","[""materials/imgs/D79.png"",""materials/imgs/D18.png""]","false","random","","",""
"","","","","","html-keyboard-response","178","201220","0.0-15.0-0.2-0.16","1xzkx56z9d","","1xzkx56z9d","""2024-11-12T18:26:14.908Z""","null","+","null","","","","","","",""
"","","","","","image-keyboard-response","179","202407","0.0-15.0-0.2-1.16","1xzkx56z9d","","1xzkx56z9d","""2024-11-12T18:26:14.908Z""","1184","materials/imgs/D22.png","arrowright","","[""materials/imgs/D64.png"",""materials/imgs/D102.png""]","false","random","","",""
"","","","","","html-keyboard-response","180","202908","0.0-15.0-0.2-0.17","1xzkx56z9d","","1xzkx56z9d","""2024-11-12T18:26:14.908Z""","null","+","null","","","","","","",""
"","","","","","image-keyboard-response","181","204225","0.0-15.0-0.2-1.17","1xzkx56z9d","","1xzkx56z9d","""2024-11-12T18:26:14.908Z""","1314","materials/imgs/D68.png","arrowleft","","[""materials/imgs/D79.png"",""materials/imgs/D25.png""]","false","random","","",""
"","","","","","html-keyboard-response","182","204727","0.0-15.0-0.2-0.18","1xzkx56z9d","","1xzkx56z9d","""2024-11-12T18:26:14.908Z""","null","+","null","","","","","","",""
"","","","","","image-keyboard-response","183","206232","0.0-15.0-0.2-1.18","1xzkx56z9d","","1xzkx56z9d","""2024-11-12T18:26:14.908Z""","1502","materials/imgs/D64.png","arrowleft","","[""materials/imgs/D4.png"",""materials/imgs/D16.png""]","false","random","","",""
"","","","","","html-keyboard-response","184","206733","0.0-15.0-0.2-0.19","1xzkx56z9d","","1xzkx56z9d","""2024-11-12T18:26:14.908Z""","null","+","null","","","","","","",""
"","","","","","image-keyboard-response","185","208050","0.0-15.0-0.2-1.19","1xzkx56z9d","","1xzkx56z9d","""2024-11-12T18:26:14.908Z""","1315","materials/imgs/D47.png","arrowleft","","[""materials/imgs/D11.png"",""materials/imgs/D35.png""]","false","random","","",""
"","","","","","html-keyboard-response","186","208552","0.0-15.0-0.2-0.20","1xzkx56z9d","","1xzkx56z9d","""2024-11-12T18:26:14.908Z""","null","+","null","","","","","","",""
"","","","","","image-keyboard-response","187","209118","0.0-15.0-0.2-1.20","1xzkx56z9d","","1xzkx56z9d","""2024-11-12T18:26:14.908Z""","563","materials/imgs/D14.png","arrowright","","[""materials/imgs/D92.png"",""materials/imgs/D6.png""]","false","random","","",""
"","","","","","html-keyboard-response","188","209619","0.0-15.0-1.2-0.2","1xzkx56z9d","","1xzkx56z9d","""2024-11-12T18:26:14.908Z""","null","+","null","","","","","","",""
"","","","","","image-keyboard-response","189","210356","0.0-15.0-1.2-1.2","1xzkx56z9d","","1xzkx56z9d","""2024-11-12T18:26:14.908Z""","735","materials/imgs/D26.png","arrowleft","","[""materials/imgs/D26.png"",""materials/imgs/D46.png""]","","check","materials/imgs/D26.png","0","true"
"","","","","","html-keyboard-response","190","210857","0.0-15.0-2.2-0.4","1xzkx56z9d","","1xzkx56z9d","""2024-11-12T18:26:14.908Z""","null","+","null","","","","","","",""
"","","","","","image-keyboard-response","191","211863","0.0-15.0-2.2-1.4","1xzkx56z9d","","1xzkx56z9d","""2024-11-12T18:26:14.908Z""","1003","materials/imgs/D16.png","arrowleft","","[""materials/imgs/D52.png"",""materials/imgs/D25.png""]","false","validation","","",""
"","","","","","html-keyboard-response","192","212365","0.0-15.0-2.2-0.5","1xzkx56z9d","","1xzkx56z9d","""2024-11-12T18:26:14.908Z""","null","+","null","","","","","","",""
"","","","","","image-keyboard-response","193","214369","0.0-15.0-2.2-1.5","1xzkx56z9d","","1xzkx56z9d","""2024-11-12T18:26:14.908Z""","2002","materials/imgs/D95.png","arrowright","","[""materials/imgs/D36.png"",""materials/imgs/D4.png""]","false","validation","","",""
"","","","","","html-keyboard-response","194","214871","0.0-15.0-0.3-0.21","1xzkx56z9d","","1xzkx56z9d","""2024-11-12T18:26:14.908Z""","null","+","null","","","","","","",""
"","","","","","image-keyboard-response","195","217365","0.0-15.0-0.3-1.21","1xzkx56z9d","","1xzkx56z9d","""2024-11-12T18:26:14.908Z""","2492","materials/imgs/D64.png","arrowleft","","[""materials/imgs/D80.png"",""materials/imgs/D85.png""]","false","random","","",""
"","","","","","html-keyboard-response","196","217866","0.0-15.0-0.3-0.22","1xzkx56z9d","","1xzkx56z9d","""2024-11-12T18:26:14.908Z""","null","+","null","","","","","","",""
"","","","","","image-keyboard-response","197","219805","0.0-15.0-0.3-1.22","1xzkx56z9d","","1xzkx56z9d","""2024-11-12T18:26:14.908Z""","1938","materials/imgs/D55.png","arrowright","","[""materials/imgs/D75.png"",""materials/imgs/D8.png""]","false","random","","",""
"","","","","","html-keyboard-response","198","220307","0.0-15.0-0.3-0.23","1xzkx56z9d","","1xzkx56z9d","""2024-11-12T18:26:14.908Z""","null","+","null","","","","","","",""
"","","","","","image-keyboard-response","199","221780","0.0-15.0-0.3-1.23","1xzkx56z9d","","1xzkx56z9d","""2024-11-12T18:26:14.908Z""","1472","materials/imgs/D102.png","arrowright","","[""materials/imgs/D57.png"",""materials/imgs/D35.png""]","false","random","","",""
"","","","","","html-keyboard-response","200","222282","0.0-15.0-0.3-0.24","1xzkx56z9d","","1xzkx56z9d","""2024-11-12T18:26:14.908Z""","null","+","null","","","","","","",""
"","","","","","image-keyboard-response","201","223862","0.0-15.0-0.3-1.24","1xzkx56z9d","","1xzkx56z9d","""2024-11-12T18:26:14.908Z""","1578","materials/imgs/D37.png","arrowright","","[""materials/imgs/D22.png"",""materials/imgs/D46.png""]","false","random","","",""
"","","","","","html-keyboard-response","202","224364","0.0-15.0-0.3-0.25","1xzkx56z9d","","1xzkx56z9d","""2024-11-12T18:26:14.908Z""","null","+","null","","","","","","",""
"","","","","","image-keyboard-response","203","225380","0.0-15.0-0.3-1.25","1xzkx56z9d","","1xzkx56z9d","""2024-11-12T18:26:14.908Z""","1013","materials/imgs/D83.png","arrowleft","","[""materials/imgs/D65.png"",""materials/imgs/D94.png""]","false","random","","",""
"","","","","","html-keyboard-response","204","225880","0.0-15.0-0.3-0.26","1xzkx56z9d","","1xzkx56z9d","""2024-11-12T18:26:14.908Z""","null","+","null","","","","","","",""
"","","","","","image-keyboard-response","205","227056","0.0-15.0-0.3-1.26","1xzkx56z9d","","1xzkx56z9d","""2024-11-12T18:26:14.908Z""","1173","materials/imgs/D6.png","arrowright","","[""materials/imgs/D9.png"",""materials/imgs/D55.png""]","false","random","","",""
"","","","","","html-keyboard-response","206","227557","0.0-15.0-0.3-0.27","1xzkx56z9d","","1xzkx56z9d","""2024-11-12T18:26:14.908Z""","null","+","null","","","","","","",""
"","","","","","image-keyboard-response","207","228568","0.0-15.0-0.3-1.27","1xzkx56z9d","","1xzkx56z9d","""2024-11-12T18:26:14.908Z""","1008","materials/imgs/D101.png","arrowleft","","[""materials/imgs/D29.png"",""materials/imgs/D46.png""]","false","random","","",""
"","","","","","html-keyboard-response","208","229069","0.0-15.0-1.3-0.3","1xzkx56z9d","","1xzkx56z9d","""2024-11-12T18:26:14.908Z""","null","+","null","","","","","","",""
"","","","","","image-keyboard-response","209","230348","0.0-15.0-1.3-1.3","1xzkx56z9d","","1xzkx56z9d","""2024-11-12T18:26:14.908Z""","1277","materials/imgs/D64.png","arrowleft","","[""materials/imgs/D64.png"",""materials/imgs/D53.png""]","","check","materials/imgs/D64.png","0","true"
"","","","","","html-keyboard-response","210","230849","0.0-15.0-2.3-0.6","1xzkx56z9d","","1xzkx56z9d","""2024-11-12T18:26:14.908Z""","null","+","null","","","","","","",""
"","","","","","image-keyboard-response","211","231799","0.0-15.0-2.3-1.6","1xzkx56z9d","","1xzkx56z9d","""2024-11-12T18:26:14.908Z""","947","materials/imgs/D84.png","arrowright","","[""materials/imgs/D106.png"",""materials/imgs/D37.png""]","false","validation","","",""
"","","","","","html-keyboard-response","212","232300","0.0-15.0-2.3-0.7","1xzkx56z9d","","1xzkx56z9d","""2024-11-12T18:26:14.908Z""","null","+","null","","","","","","",""
"","","","","","image-keyboard-response","213","233992","0.0-15.0-2.3-1.7","1xzkx56z9d","","1xzkx56z9d","""2024-11-12T18:26:14.908Z""","1689","materials/imgs/D95.png","arrowright","","[""materials/imgs/D36.png"",""materials/imgs/D4.png""]","false","validation","","",""
"","","","","","html-keyboard-response","214","234493","0.0-15.0-0.4-0.28","1xzkx56z9d","","1xzkx56z9d","""2024-11-12T18:26:14.908Z""","null","+","null","","","","","","",""
"","","","","","image-keyboard-response","215","236150","0.0-15.0-0.4-1.28","1xzkx56z9d","","1xzkx56z9d","""2024-11-12T18:26:14.908Z""","1654","materials/imgs/D22.png","arrowright","","[""materials/imgs/D25.png"",""materials/imgs/D103.png""]","false","random","","",""
"","","","","","html-keyboard-response","216","236651","0.0-15.0-0.4-0.29","1xzkx56z9d","","1xzkx56z9d","""2024-11-12T18:26:14.908Z""","null","+","null","","","","","","",""
"","","","","","image-keyboard-response","217","238238","0.0-15.0-0.4-1.29","1xzkx56z9d","","1xzkx56z9d","""2024-11-12T18:26:14.908Z""","1585","materials/imgs/D6.png","arrowleft","","[""materials/imgs/D34.png"",""materials/imgs/D84.png""]","false","random","","",""
"","","","","","html-keyboard-response","218","238739","0.0-15.0-0.4-0.30","1xzkx56z9d","","1xzkx56z9d","""2024-11-12T18:26:14.908Z""","null","+","null","","","","","","",""
"","","","","","image-keyboard-response","219","239753","0.0-15.0-0.4-1.30","1xzkx56z9d","","1xzkx56z9d","""2024-11-12T18:26:14.908Z""","1010","materials/imgs/D57.png","arrowright","","[""materials/imgs/D105.png"",""materials/imgs/D32.png""]","false","random","","",""
"","","","","","html-keyboard-response","220","240254","0.0-15.0-0.4-0.31","1xzkx56z9d","","1xzkx56z9d","""2024-11-12T18:26:14.908Z""","null","+","null","","","","","","",""
"","","","","","image-keyboard-response","221","241741","0.0-15.0-0.4-1.31","1xzkx56z9d","","1xzkx56z9d","""2024-11-12T18:26:14.908Z""","1484","materials/imgs/D92.png","arrowright","","[""materials/imgs/D48.png"",""materials/imgs/D4.png""]","false","random","","",""
"","","","","","html-keyboard-response","222","242242","0.0-15.0-0.4-0.32","1xzkx56z9d","","1xzkx56z9d","""2024-11-12T18:26:14.908Z""","null","+","null","","","","","","",""
"","","","","","image-keyboard-response","223","246848","0.0-15.0-0.4-1.32","1xzkx56z9d","","1xzkx56z9d","""2024-11-12T18:26:14.908Z""","4604","materials/imgs/D57.png","arrowright","","[""materials/imgs/D26.png"",""materials/imgs/D8.png""]","false","random","","",""
"","","","","","html-keyboard-response","224","247349","0.0-15.0-0.4-0.33","1xzkx56z9d","","1xzkx56z9d","""2024-11-12T18:26:14.908Z""","null","+","null","","","","","","",""
"","","","","","image-keyboard-response","225","248852","0.0-15.0-0.4-1.33","1xzkx56z9d","","1xzkx56z9d","""2024-11-12T18:26:14.908Z""","1500","materials/imgs/D85.png","arrowright","","[""materials/imgs/D84.png"",""materials/imgs/D77.png""]","false","random","","",""
"","","","","","html-keyboard-response","226","249353","0.0-15.0-0.4-0.34","1xzkx56z9d","","1xzkx56z9d","""2024-11-12T18:26:14.908Z""","null","+","null","","","","","","",""
"","","","","","image-keyboard-response","227","251351","0.0-15.0-0.4-1.34","1xzkx56z9d","","1xzkx56z9d","""2024-11-12T18:26:14.908Z""","1995","materials/imgs/D84.png","arrowright","","[""materials/imgs/D55.png"",""materials/imgs/D57.png""]","false","random","","",""
"","","","","","html-keyboard-response","228","251852","0.0-15.0-1.4-0.4","1xzkx56z9d","","1xzkx56z9d","""2024-11-12T18:26:14.908Z""","null","+","null","","","","","","",""
"","","","","","image-keyboard-response","229","252919","0.0-15.0-1.4-1.4","1xzkx56z9d","","1xzkx56z9d","""2024-11-12T18:26:14.908Z""","1065","materials/imgs/D18.png","arrowright","","[""materials/imgs/D8.png"",""materials/imgs/D18.png""]","","check","materials/imgs/D18.png","1","true"
"","","","","","html-keyboard-response","230","253421","0.0-15.0-2.4-0.8","1xzkx56z9d","","1xzkx56z9d","""2024-11-12T18:26:14.908Z""","null","+","null","","","","","","",""
"","","","","","image-keyboard-response","231","254556","0.0-15.0-2.4-1.8","1xzkx56z9d","","1xzkx56z9d","""2024-11-12T18:26:14.908Z""","1132","materials/imgs/D20.png","arrowright","","[""materials/imgs/D84.png"",""materials/imgs/D85.png""]","false","validation","","",""
"","","","","","html-keyboard-response","232","255057","0.0-15.0-2.4-0.9","1xzkx56z9d","","1xzkx56z9d","""2024-11-12T18:26:14.908Z""","null","+","null","","","","","","",""
"","","","","","image-keyboard-response","233","255876","0.0-15.0-2.4-1.9","1xzkx56z9d","","1xzkx56z9d","""2024-11-12T18:26:14.908Z""","816","materials/imgs/D22.png","arrowleft","","[""materials/imgs/D4.png"",""materials/imgs/D25.png""]","false","validation","","",""
"","","","","","html-button-response","234","257683","0.0-16.0","1xzkx56z9d","","1xzkx56z9d","""2024-11-12T18:26:14.908Z""","1807","You have completed 50% of the trials. Please click 'Continue' when you are ready proceed.","0","","","","","","",""
"","","","","","html-keyboard-response","235","258184","0.0-17.0-0.0-0.0","1xzkx56z9d","","1xzkx56z9d","""2024-11-12T18:26:14.908Z""","null","+","null","","","","","","",""
"","","","","","image-keyboard-response","236","260401","0.0-17.0-0.0-1.0","1xzkx56z9d","","1xzkx56z9d","""2024-11-12T18:26:14.908Z""","2213","materials/imgs/D49.png","arrowright","","[""materials/imgs/D25.png"",""materials/imgs/D51.png""]","false","random","","",""
"","","","","","html-keyboard-response","237","260902","0.0-17.0-0.0-0.1","1xzkx56z9d","","1xzkx56z9d","""2024-11-12T18:26:14.908Z""","null","+","null","","","","","","",""
"","","","","","image-keyboard-response","238","261600","0.0-17.0-0.0-1.1","1xzkx56z9d","","1xzkx56z9d","""2024-11-12T18:26:14.908Z""","695","materials/imgs/D77.png","arrowright","","[""materials/imgs/D11.png"",""materials/imgs/D68.png""]","false","random","","",""
"","","","","","html-keyboard-response","239","262101","0.0-17.0-0.0-0.2","1xzkx56z9d","","1xzkx56z9d","""2024-11-12T18:26:14.908Z""","null","+","null","","","","","","",""
"","","","","","image-keyboard-response","240","263348","0.0-17.0-0.0-1.2","1xzkx56z9d","","1xzkx56z9d","""2024-11-12T18:26:14.908Z""","1245","materials/imgs/D52.png","arrowright","","[""materials/imgs/D66.png"",""materials/imgs/D57.png""]","false","random","","",""
"","","","","","html-keyboard-response","241","263849","0.0-17.0-0.0-0.3","1xzkx56z9d","","1xzkx56z9d","""2024-11-12T18:26:14.908Z""","null","+","null","","","","","","",""
"","","","","","image-keyboard-response","242","265274","0.0-17.0-0.0-1.3","1xzkx56z9d","","1xzkx56z9d","""2024-11-12T18:26:14.908Z""","1422","materials/imgs/D74.png","arrowright","","[""materials/imgs/D78.png"",""materials/imgs/D68.png""]","false","random","","",""
"","","","","","html-keyboard-response","243","265775","0.0-17.0-0.0-0.4","1xzkx56z9d","","1xzkx56z9d","""2024-11-12T18:26:14.908Z""","null","+","null","","","","","","",""
"","","","","","image-keyboard-response","244","266704","0.0-17.0-0.0-1.4","1xzkx56z9d","","1xzkx56z9d","""2024-11-12T18:26:14.908Z""","927","materials/imgs/D20.png","arrowleft","","[""materials/imgs/D87.png"",""materials/imgs/D16.png""]","false","random","","",""
"","","","","","html-keyboard-response","245","267205","0.0-17.0-0.0-0.5","1xzkx56z9d","","1xzkx56z9d","""2024-11-12T18:26:14.908Z""","null","+","null","","","","","","",""
"","","","","","image-keyboard-response","246","268311","0.0-17.0-0.0-1.5","1xzkx56z9d","","1xzkx56z9d","""2024-11-12T18:26:14.908Z""","1103","materials/imgs/D77.png","arrowleft","","[""materials/imgs/D57.png"",""materials/imgs/D101.png""]","false","random","","",""
"","","","","","html-keyboard-response","247","268812","0.0-17.0-0.0-0.6","1xzkx56z9d","","1xzkx56z9d","""2024-11-12T18:26:14.908Z""","null","+","null","","","","","","",""
"","","","","","image-keyboard-response","248","270115","0.0-17.0-0.0-1.6","1xzkx56z9d","","1xzkx56z9d","""2024-11-12T18:26:14.908Z""","1301","materials/imgs/D26.png","arrowleft","","[""materials/imgs/D96.png"",""materials/imgs/D47.png""]","false","random","","",""
"","","","","","html-keyboard-response","249","270616","0.0-17.0-1.0-0.0","1xzkx56z9d","","1xzkx56z9d","""2024-11-12T18:26:14.908Z""","null","+","null","","","","","","",""
"","","","","","image-keyboard-response","250","271672","0.0-17.0-1.0-1.0","1xzkx56z9d","","1xzkx56z9d","""2024-11-12T18:26:14.908Z""","1054","materials/imgs/D18.png","arrowright","","[""materials/imgs/D8.png"",""materials/imgs/D18.png""]","","check","materials/imgs/D18.png","1","true"
"","","","","","html-keyboard-response","251","272174","0.0-17.0-2.0-0.0","1xzkx56z9d","","1xzkx56z9d","""2024-11-12T18:26:14.908Z""","null","+","null","","","","","","",""
"","","","","","image-keyboard-response","252","273919","0.0-17.0-2.0-1.0","1xzkx56z9d","","1xzkx56z9d","""2024-11-12T18:26:14.908Z""","1743","materials/imgs/D102.png","arrowright","","[""materials/imgs/D32.png"",""materials/imgs/D111.png""]","false","validation","","",""
"","","","","","html-keyboard-response","253","274420","0.0-17.0-2.0-0.1","1xzkx56z9d","","1xzkx56z9d","""2024-11-12T18:26:14.908Z""","null","+","null","","","","","","",""
"","","","","","image-keyboard-response","254","275574","0.0-17.0-2.0-1.1","1xzkx56z9d","","1xzkx56z9d","""2024-11-12T18:26:14.908Z""","1145","materials/imgs/D8.png","arrowleft","","[""materials/imgs/D101.png"",""materials/imgs/D52.png""]","false","validation","","",""
"","","","","","html-keyboard-response","255","276075","0.0-17.0-0.1-0.7","1xzkx56z9d","","1xzkx56z9d","""2024-11-12T18:26:14.908Z""","null","+","null","","","","","","",""
"","","","","","image-keyboard-response","256","277508","0.0-17.0-0.1-1.7","1xzkx56z9d","","1xzkx56z9d","""2024-11-12T18:26:14.908Z""","1431","materials/imgs/D95.png","arrowright","","[""materials/imgs/D84.png"",""materials/imgs/D49.png""]","false","random","","",""
"","","","","","html-keyboard-response","257","278009","0.0-17.0-0.1-0.8","1xzkx56z9d","","1xzkx56z9d","""2024-11-12T18:26:14.908Z""","null","+","null","","","","","","",""
"","","","","","image-keyboard-response","258","279725","0.0-17.0-0.1-1.8","1xzkx56z9d","","1xzkx56z9d","""2024-11-12T18:26:14.908Z""","1713","materials/imgs/D79.png","arrowleft","","[""materials/imgs/D47.png"",""materials/imgs/D75.png""]","false","random","","",""
"","","","","","html-keyboard-response","259","280226","0.0-17.0-0.1-0.9","1xzkx56z9d","","1xzkx56z9d","""2024-11-12T18:26:14.908Z""","null","+","null","","","","","","",""
"","","","","","image-keyboard-response","260","281743","0.0-17.0-0.1-1.9","1xzkx56z9d","","1xzkx56z9d","""2024-11-12T18:26:14.908Z""","1514","materials/imgs/D6.png","arrowright","","[""materials/imgs/D22.png"",""materials/imgs/D85.png""]","false","random","","",""
"","","","","","html-keyboard-response","261","282244","0.0-17.0-0.1-0.10","1xzkx56z9d","","1xzkx56z9d","""2024-11-12T18:26:14.908Z""","null","+","null","","","","","","",""
"","","","","","image-keyboard-response","262","283370","0.0-17.0-0.1-1.10","1xzkx56z9d","","1xzkx56z9d","""2024-11-12T18:26:14.908Z""","1124","materials/imgs/D77.png","arrowright","","[""materials/imgs/D18.png"",""materials/imgs/D11.png""]","false","random","","",""
"","","","","","html-keyboard-response","263","283871","0.0-17.0-0.1-0.11","1xzkx56z9d","","1xzkx56z9d","""2024-11-12T18:26:14.908Z""","null","+","null","","","","","","",""
"","","","","","image-keyboard-response","264","285322","0.0-17.0-0.1-1.11","1xzkx56z9d","","1xzkx56z9d","""2024-11-12T18:26:14.908Z""","1449","materials/imgs/D83.png","arrowleft","","[""materials/imgs/D56.png"",""materials/imgs/D57.png""]","false","random","","",""
"","","","","","html-keyboard-response","265","285824","0.0-17.0-0.1-0.12","1xzkx56z9d","","1xzkx56z9d","""2024-11-12T18:26:14.908Z""","null","+","null","","","","","","",""
"","","","","","image-keyboard-response","266","287296","0.0-17.0-0.1-1.12","1xzkx56z9d","","1xzkx56z9d","""2024-11-12T18:26:14.908Z""","1469","materials/imgs/D47.png","arrowleft","","[""materials/imgs/D87.png"",""materials/imgs/D52.png""]","false","random","","",""
"","","","","","html-keyboard-response","267","287797","0.0-17.0-0.1-0.13","1xzkx56z9d","","1xzkx56z9d","""2024-11-12T18:26:14.908Z""","null","+","null","","","","","","",""
"","","","","","image-keyboard-response","268","288831","0.0-17.0-0.1-1.13","1xzkx56z9d","","1xzkx56z9d","""2024-11-12T18:26:14.908Z""","1032","materials/imgs/D21.png","arrowleft","","[""materials/imgs/D76.png"",""materials/imgs/D26.png""]","false","random","","",""
"","","","","","html-keyboard-response","269","289332","0.0-17.0-1.1-0.1","1xzkx56z9d","","1xzkx56z9d","""2024-11-12T18:26:14.908Z""","null","+","null","","","","","","",""
"","","","","","image-keyboard-response","270","290463","0.0-17.0-1.1-1.1","1xzkx56z9d","","1xzkx56z9d","""2024-11-12T18:26:14.908Z""","1129","materials/imgs/D8.png","arrowright","","[""materials/imgs/D18.png"",""materials/imgs/D8.png""]","","check","materials/imgs/D8.png","1","true"
"","","","","","html-keyboard-response","271","290965","0.0-17.0-2.1-0.2","1xzkx56z9d","","1xzkx56z9d","""2024-11-12T18:26:14.908Z""","null","+","null","","","","","","",""
"","","","","","image-keyboard-response","272","292452","0.0-17.0-2.1-1.2","1xzkx56z9d","","1xzkx56z9d","""2024-11-12T18:26:14.908Z""","1485","materials/imgs/D76.png","arrowleft","","[""materials/imgs/D83.png"",""materials/imgs/D6.png""]","false","validation","","",""
"","","","","","html-keyboard-response","273","292954","0.0-17.0-2.1-0.3","1xzkx56z9d","","1xzkx56z9d","""2024-11-12T18:26:14.908Z""","null","+","null","","","","","","",""
"","","","","","image-keyboard-response","274","294540","0.0-17.0-2.1-1.3","1xzkx56z9d","","1xzkx56z9d","""2024-11-12T18:26:14.908Z""","1584","materials/imgs/D75.png","arrowleft","","[""materials/imgs/D96.png"",""materials/imgs/D4.png""]","false","validation","","",""
"","","","","","html-keyboard-response","275","295041","0.0-17.0-0.2-0.14","1xzkx56z9d","","1xzkx56z9d","""2024-11-12T18:26:14.908Z""","null","+","null","","","","","","",""
"","","","","","image-keyboard-response","276","297002","0.0-17.0-0.2-1.14","1xzkx56z9d","","1xzkx56z9d","""2024-11-12T18:26:14.908Z""","1959","materials/imgs/D51.png","arrowright","","[""materials/imgs/D55.png"",""materials/imgs/D82.png""]","false","random","","",""
"","","","","","html-keyboard-response","277","297504","0.0-17.0-0.2-0.15","1xzkx56z9d","","1xzkx56z9d","""2024-11-12T18:26:14.908Z""","null","+","null","","","","","","",""
"","","","","","image-keyboard-response","278","301065","0.0-17.0-0.2-1.15","1xzkx56z9d","","1xzkx56z9d","""2024-11-12T18:26:14.908Z""","3559","materials/imgs/D34.png","arrowleft","","[""materials/imgs/D74.png"",""materials/imgs/D56.png""]","false","random","","",""
"","","","","","html-keyboard-response","279","301567","0.0-17.0-0.2-0.16","1xzkx56z9d","","1xzkx56z9d","""2024-11-12T18:26:14.908Z""","null","+","null","","","","","","",""
"","","","","","image-keyboard-response","280","302978","0.0-17.0-0.2-1.16","1xzkx56z9d","","1xzkx56z9d","""2024-11-12T18:26:14.908Z""","1409","materials/imgs/D75.png","arrowright","","[""materials/imgs/D55.png"",""materials/imgs/D56.png""]","false","random","","",""
"","","","","","html-keyboard-response","281","303479","0.0-17.0-0.2-0.17","1xzkx56z9d","","1xzkx56z9d","""2024-11-12T18:26:14.908Z""","null","+","null","","","","","","",""
"","","","","","image-keyboard-response","282","305741","0.0-17.0-0.2-1.17","1xzkx56z9d","","1xzkx56z9d","""2024-11-12T18:26:14.908Z""","2259","materials/imgs/D11.png","arrowright","","[""materials/imgs/D95.png"",""materials/imgs/D65.png""]","false","random","","",""
"","","","","","html-keyboard-response","283","306242","0.0-17.0-0.2-0.18","1xzkx56z9d","","1xzkx56z9d","""2024-11-12T18:26:14.908Z""","null","+","null","","","","","","",""
"","","","","","image-keyboard-response","284","307149","0.0-17.0-0.2-1.18","1xzkx56z9d","","1xzkx56z9d","""2024-11-12T18:26:14.908Z""","904","materials/imgs/D82.png","arrowright","","[""materials/imgs/D46.png"",""materials/imgs/D92.png""]","false","random","","",""
"","","","","","html-keyboard-response","285","307650","0.0-17.0-0.2-0.19","1xzkx56z9d","","1xzkx56z9d","""2024-11-12T18:26:14.908Z""","null","+","null","","","","","","",""
"","","","","","image-keyboard-response","286","308789","0.0-17.0-0.2-1.19","1xzkx56z9d","","1xzkx56z9d","""2024-11-12T18:26:14.908Z""","1137","materials/imgs/D14.png","arrowleft","","[""materials/imgs/D82.png"",""materials/imgs/D101.png""]","false","random","","",""
"","","","","","html-keyboard-response","287","309290","0.0-17.0-0.2-0.20","1xzkx56z9d","","1xzkx56z9d","""2024-11-12T18:26:14.908Z""","null","+","null","","","","","","",""
"","","","","","image-keyboard-response","288","310538","0.0-17.0-0.2-1.20","1xzkx56z9d","","1xzkx56z9d","""2024-11-12T18:26:14.908Z""","1245","materials/imgs/D68.png","arrowleft","","[""materials/imgs/D104.png"",""materials/imgs/D6.png""]","false","random","","",""
"","","","","","html-keyboard-response","289","311039","0.0-17.0-1.2-0.2","1xzkx56z9d","","1xzkx56z9d","""2024-11-12T18:26:14.908Z""","null","+","null","","","","","","",""
"","","","","","image-keyboard-response","290","311942","0.0-17.0-1.2-1.2","1xzkx56z9d","","1xzkx56z9d","""2024-11-12T18:26:14.908Z""","901","materials/imgs/D8.png","arrowright","","[""materials/imgs/D18.png"",""materials/imgs/D8.png""]","","check","materials/imgs/D8.png","1","true"
"","","","","","html-keyboard-response","291","312443","0.0-17.0-2.2-0.4","1xzkx56z9d","","1xzkx56z9d","""2024-11-12T18:26:14.908Z""","null","+","null","","","","","","",""
"","","","","","image-keyboard-response","292","313424","0.0-17.0-2.2-1.4","1xzkx56z9d","","1xzkx56z9d","""2024-11-12T18:26:14.908Z""","979","materials/imgs/D75.png","arrowleft","","[""materials/imgs/D96.png"",""materials/imgs/D4.png""]","false","validation","","",""
"","","","","","html-keyboard-response","293","313925","0.0-17.0-2.2-0.5","1xzkx56z9d","","1xzkx56z9d","""2024-11-12T18:26:14.908Z""","null","+","null","","","","","","",""
"","","","","","image-keyboard-response","294","315032","0.0-17.0-2.2-1.5","1xzkx56z9d","","1xzkx56z9d","""2024-11-12T18:26:14.908Z""","1105","materials/imgs/D65.png","arrowright","","[""materials/imgs/D4.png"",""materials/imgs/D16.png""]","false","validation","","",""
"","","","","","html-keyboard-response","295","315534","0.0-17.0-0.3-0.21","1xzkx56z9d","","1xzkx56z9d","""2024-11-12T18:26:14.908Z""","null","+","null","","","","","","",""
"","","","","","image-keyboard-response","296","316364","0.0-17.0-0.3-1.21","1xzkx56z9d","","1xzkx56z9d","""2024-11-12T18:26:14.908Z""","828","materials/imgs/D35.png","arrowright","","[""materials/imgs/D9.png"",""materials/imgs/D3.png""]","false","random","","",""
"","","","","","html-keyboard-response","297","316866","0.0-17.0-0.3-0.22","1xzkx56z9d","","1xzkx56z9d","""2024-11-12T18:26:14.908Z""","null","+","null","","","","","","",""
"","","","","","image-keyboard-response","298","317772","0.0-17.0-0.3-1.22","1xzkx56z9d","","1xzkx56z9d","""2024-11-12T18:26:14.908Z""","904","materials/imgs/D17.png","arrowright","","[""materials/imgs/D49.png"",""materials/imgs/D14.png""]","false","random","","",""
"","","","","","html-keyboard-response","299","318273","0.0-17.0-0.3-0.23","1xzkx56z9d","","1xzkx56z9d","""2024-11-12T18:26:14.908Z""","null","+","null","","","","","","",""
"","","","","","image-keyboard-response","300","319060","0.0-17.0-0.3-1.23","1xzkx56z9d","","1xzkx56z9d","""2024-11-12T18:26:14.908Z""","784","materials/imgs/D52.png","arrowleft","","[""materials/imgs/D104.png"",""materials/imgs/D103.png""]","false","random","","",""
"","","","","","html-keyboard-response","301","319561","0.0-17.0-0.3-0.24","1xzkx56z9d","","1xzkx56z9d","""2024-11-12T18:26:14.908Z""","null","+","null","","","","","","",""
"","","","","","image-keyboard-response","302","320463","0.0-17.0-0.3-1.24","1xzkx56z9d","","1xzkx56z9d","""2024-11-12T18:26:14.908Z""","899","materials/imgs/D16.png","arrowright","","[""materials/imgs/D26.png"",""materials/imgs/D75.png""]","false","random","","",""
"","","","","","html-keyboard-response","303","320964","0.0-17.0-0.3-0.25","1xzkx56z9d","","1xzkx56z9d","""2024-11-12T18:26:14.908Z""","null","+","null","","","","","","",""
"","","","","","image-keyboard-response","304","321885","0.0-17.0-0.3-1.25","1xzkx56z9d","","1xzkx56z9d","""2024-11-12T18:26:14.908Z""","919","materials/imgs/D80.png","arrowleft","","[""materials/imgs/D92.png"",""materials/imgs/D36.png""]","false","random","","",""
"","","","","","html-keyboard-response","305","322387","0.0-17.0-0.3-0.26","1xzkx56z9d","","1xzkx56z9d","""2024-11-12T18:26:14.908Z""","null","+","null","","","","","","",""
"","","","","","image-keyboard-response","306","323138","0.0-17.0-0.3-1.26","1xzkx56z9d","","1xzkx56z9d","""2024-11-12T18:26:14.908Z""","748","materials/imgs/D64.png","arrowleft","","[""materials/imgs/D95.png"",""materials/imgs/D24.png""]","false","random","","",""
"","","","","","html-keyboard-response","307","323639","0.0-17.0-0.3-0.27","1xzkx56z9d","","1xzkx56z9d","""2024-11-12T18:26:14.908Z""","null","+","null","","","","","","",""
"","","","","","image-keyboard-response","308","324461","0.0-17.0-0.3-1.27","1xzkx56z9d","","1xzkx56z9d","""2024-11-12T18:26:14.908Z""","819","materials/imgs/D3.png","arrowright","","[""materials/imgs/D81.png"",""materials/imgs/D22.png""]","false","random","","",""
"","","","","","html-keyboard-response","309","324961","0.0-17.0-1.3-0.3","1xzkx56z9d","","1xzkx56z9d","""2024-11-12T18:26:14.908Z""","null","+","null","","","","","","",""
"","","","","","image-keyboard-response","310","325755","0.0-17.0-1.3-1.3","1xzkx56z9d","","1xzkx56z9d","""2024-11-12T18:26:14.908Z""","791","materials/imgs/D18.png","arrowright","","[""materials/imgs/D8.png"",""materials/imgs/D18.png""]","","check","materials/imgs/D18.png","1","true"
"","","","","","html-keyboard-response","311","326255","0.0-17.0-2.3-0.6","1xzkx56z9d","","1xzkx56z9d","""2024-11-12T18:26:14.908Z""","null","+","null","","","","","","",""
"","","","","","image-keyboard-response","312","327030","0.0-17.0-2.3-1.6","1xzkx56z9d","","1xzkx56z9d","""2024-11-12T18:26:14.908Z""","772","materials/imgs/D9.png","arrowright","","[""materials/imgs/D103.png"",""materials/imgs/D4.png""]","false","validation","","",""
"","","","","","html-keyboard-response","313","327531","0.0-17.0-2.3-0.7","1xzkx56z9d","","1xzkx56z9d","""2024-11-12T18:26:14.908Z""","null","+","null","","","","","","",""
"","","","","","image-keyboard-response","314","328370","0.0-17.0-2.3-1.7","1xzkx56z9d","","1xzkx56z9d","""2024-11-12T18:26:14.908Z""","837","materials/imgs/D16.png","arrowleft","","[""materials/imgs/D52.png"",""materials/imgs/D25.png""]","false","validation","","",""
"","","","","","html-keyboard-response","315","328871","0.0-17.0-0.4-0.28","1xzkx56z9d","","1xzkx56z9d","""2024-11-12T18:26:14.908Z""","null","+","null","","","","","","",""
"","","","","","image-keyboard-response","316","329572","0.0-17.0-0.4-1.28","1xzkx56z9d","","1xzkx56z9d","""2024-11-12T18:26:14.908Z""","699","materials/imgs/D80.png","arrowleft","","[""materials/imgs/D29.png"",""materials/imgs/D48.png""]","false","random","","",""
"","","","","","html-keyboard-response","317","330073","0.0-17.0-0.4-0.29","1xzkx56z9d","","1xzkx56z9d","""2024-11-12T18:26:14.908Z""","null","+","null","","","","","","",""
"","","","","","image-keyboard-response","318","330793","0.0-17.0-0.4-1.29","1xzkx56z9d","","1xzkx56z9d","""2024-11-12T18:26:14.908Z""","718","materials/imgs/D22.png","arrowleft","","[""materials/imgs/D6.png"",""materials/imgs/D56.png""]","false","random","","",""
"","","","","","html-keyboard-response","319","331295","0.0-17.0-0.4-0.30","1xzkx56z9d","","1xzkx56z9d","""2024-11-12T18:26:14.908Z""","null","+","null","","","","","","",""
"","","","","","image-keyboard-response","320","332022","0.0-17.0-0.4-1.30","1xzkx56z9d","","1xzkx56z9d","""2024-11-12T18:26:14.908Z""","725","materials/imgs/D29.png","arrowleft","","[""materials/imgs/D92.png"",""materials/imgs/D19.png""]","false","random","","",""
"","","","","","html-keyboard-response","321","332523","0.0-17.0-0.4-0.31","1xzkx56z9d","","1xzkx56z9d","""2024-11-12T18:26:14.908Z""","null","+","null","","","","","","",""
"","","","","","image-keyboard-response","322","333436","0.0-17.0-0.4-1.31","1xzkx56z9d","","1xzkx56z9d","""2024-11-12T18:26:14.908Z""","911","materials/imgs/D16.png","arrowleft","","[""materials/imgs/D80.png"",""materials/imgs/D48.png""]","false","random","","",""
"","","","","","html-keyboard-response","323","333937","0.0-17.0-0.4-0.32","1xzkx56z9d","","1xzkx56z9d","""2024-11-12T18:26:14.908Z""","null","+","null","","","","","","",""
"","","","","","image-keyboard-response","324","335442","0.0-17.0-0.4-1.32","1xzkx56z9d","","1xzkx56z9d","""2024-11-12T18:26:14.908Z""","1503","materials/imgs/D1.png","arrowleft","","[""materials/imgs/D55.png"",""materials/imgs/D105.png""]","false","random","","",""
"","","","","","html-keyboard-response","325","335943","0.0-17.0-0.4-0.33","1xzkx56z9d","","1xzkx56z9d","""2024-11-12T18:26:14.908Z""","null","+","null","","","","","","",""
"","","","","","image-keyboard-response","326","336713","0.0-17.0-0.4-1.33","1xzkx56z9d","","1xzkx56z9d","""2024-11-12T18:26:14.908Z""","768","materials/imgs/D34.png","arrowright","","[""materials/imgs/D32.png"",""materials/imgs/D111.png""]","false","random","","",""
"","","","","","html-keyboard-response","327","337215","0.0-17.0-0.4-0.34","1xzkx56z9d","","1xzkx56z9d","""2024-11-12T18:26:14.908Z""","null","+","null","","","","","","",""
"","","","","","image-keyboard-response","328","338011","0.0-17.0-0.4-1.34","1xzkx56z9d","","1xzkx56z9d","""2024-11-12T18:26:14.908Z""","794","materials/imgs/D101.png","arrowleft","","[""materials/imgs/D52.png"",""materials/imgs/D18.png""]","false","random","","",""
"","","","","","html-keyboard-response","329","338512","0.0-17.0-1.4-0.4","1xzkx56z9d","","1xzkx56z9d","""2024-11-12T18:26:14.908Z""","null","+","null","","","","","","",""
"","","","","","image-keyboard-response","330","339207","0.0-17.0-1.4-1.4","1xzkx56z9d","","1xzkx56z9d","""2024-11-12T18:26:14.908Z""","693","materials/imgs/D46.png","arrowleft","","[""materials/imgs/D46.png"",""materials/imgs/D26.png""]","","check","materials/imgs/D46.png","0","true"
"","","","","","html-keyboard-response","331","339709","0.0-17.0-2.4-0.8","1xzkx56z9d","","1xzkx56z9d","""2024-11-12T18:26:14.908Z""","null","+","null","","","","","","",""
"","","","","","image-keyboard-response","332","341331","0.0-17.0-2.4-1.8","1xzkx56z9d","","1xzkx56z9d","""2024-11-12T18:26:14.908Z""","1619","materials/imgs/D37.png","arrowleft","","[""materials/imgs/D84.png"",""materials/imgs/D111.png""]","false","validation","","",""
"","","","","","html-keyboard-response","333","341832","0.0-17.0-2.4-0.9","1xzkx56z9d","","1xzkx56z9d","""2024-11-12T18:26:14.908Z""","null","+","null","","","","","","",""
"","","","","","image-keyboard-response","334","342896","0.0-17.0-2.4-1.9","1xzkx56z9d","","1xzkx56z9d","""2024-11-12T18:26:14.908Z""","1062","materials/imgs/D101.png","arrowright","","[""materials/imgs/D76.png"",""materials/imgs/D47.png""]","false","validation","","",""
"","","","","","html-button-response","335","344753","0.0-18.0","1xzkx56z9d","","1xzkx56z9d","""2024-11-12T18:26:14.908Z""","1857","You have completed 75% of the trials. Please click 'Continue' when you are ready proceed.","0","","","","","","",""
"","","","","","html-keyboard-response","336","345255","0.0-19.0-0.0-0.0","1xzkx56z9d","","1xzkx56z9d","""2024-11-12T18:26:14.908Z""","null","+","null","","","","","","",""
"","","","","","image-keyboard-response","337","346443","0.0-19.0-0.0-1.0","1xzkx56z9d","","1xzkx56z9d","""2024-11-12T18:26:14.908Z""","1187","materials/imgs/D57.png","arrowleft","","[""materials/imgs/D68.png"",""materials/imgs/D64.png""]","false","random","","",""
"","","","","","html-keyboard-response","338","346945","0.0-19.0-0.0-0.1","1xzkx56z9d","","1xzkx56z9d","""2024-11-12T18:26:14.908Z""","null","+","null","","","","","","",""
"","","","","","image-keyboard-response","339","347513","0.0-19.0-0.0-1.1","1xzkx56z9d","","1xzkx56z9d","""2024-11-12T18:26:14.908Z""","565","materials/imgs/D87.png","arrowleft","","[""materials/imgs/D55.png"",""materials/imgs/D51.png""]","false","random","","",""
"","","","","","html-keyboard-response","340","348014","0.0-19.0-0.0-0.2","1xzkx56z9d","","1xzkx56z9d","""2024-11-12T18:26:14.908Z""","null","+","null","","","","","","",""
"","","","","","image-keyboard-response","341","348752","0.0-19.0-0.0-1.2","1xzkx56z9d","","1xzkx56z9d","""2024-11-12T18:26:14.908Z""","736","materials/imgs/D64.png","arrowleft","","[""materials/imgs/D19.png"",""materials/imgs/D35.png""]","false","random","","",""
"","","","","","html-keyboard-response","342","349253","0.0-19.0-0.0-0.3","1xzkx56z9d","","1xzkx56z9d","""2024-11-12T18:26:14.908Z""","null","+","null","","","","","","",""
"","","","","","image-keyboard-response","343","349821","0.0-19.0-0.0-1.3","1xzkx56z9d","","1xzkx56z9d","""2024-11-12T18:26:14.908Z""","565","materials/imgs/D24.png","arrowright","","[""materials/imgs/D34.png"",""materials/imgs/D17.png""]","false","random","","",""
"","","","","","html-keyboard-response","344","350322","0.0-19.0-0.0-0.4","1xzkx56z9d","","1xzkx56z9d","""2024-11-12T18:26:14.908Z""","null","+","null","","","","","","",""
"","","","","","image-keyboard-response","345","351251","0.0-19.0-0.0-1.4","1xzkx56z9d","","1xzkx56z9d","""2024-11-12T18:26:14.908Z""","927","materials/imgs/D37.png","arrowright","","[""materials/imgs/D106.png"",""materials/imgs/D21.png""]","false","random","","",""
"","","","","","html-keyboard-response","346","351753","0.0-19.0-0.0-0.5","1xzkx56z9d","","1xzkx56z9d","""2024-11-12T18:26:14.908Z""","null","+","null","","","","","","",""
"","","","","","image-keyboard-response","347","352490","0.0-19.0-0.0-1.5","1xzkx56z9d","","1xzkx56z9d","""2024-11-12T18:26:14.908Z""","735","materials/imgs/D49.png","arrowright","","[""materials/imgs/D19.png"",""materials/imgs/D56.png""]","false","random","","",""
"","","","","","html-keyboard-response","348","352991","0.0-19.0-0.0-0.6","1xzkx56z9d","","1xzkx56z9d","""2024-11-12T18:26:14.908Z""","null","+","null","","","","","","",""
"","","","","","image-keyboard-response","349","353936","0.0-19.0-0.0-1.6","1xzkx56z9d","","1xzkx56z9d","""2024-11-12T18:26:14.908Z""","942","materials/imgs/D78.png","arrowright","","[""materials/imgs/D46.png"",""materials/imgs/D51.png""]","false","random","","",""
"","","","","","html-keyboard-response","350","354438","0.0-19.0-1.0-0.0","1xzkx56z9d","","1xzkx56z9d","""2024-11-12T18:26:14.908Z""","null","+","null","","","","","","",""
"","","","","","image-keyboard-response","351","355205","0.0-19.0-1.0-1.0","1xzkx56z9d","","1xzkx56z9d","""2024-11-12T18:26:14.908Z""","766","materials/imgs/D78.png","arrowright","","[""materials/imgs/D76.png"",""materials/imgs/D78.png""]","","check","materials/imgs/D78.png","1","true"
"","","","","","html-keyboard-response","352","355706","0.0-19.0-2.0-0.0","1xzkx56z9d","","1xzkx56z9d","""2024-11-12T18:26:14.908Z""","null","+","null","","","","","","",""
"","","","","","image-keyboard-response","353","356634","0.0-19.0-2.0-1.0","1xzkx56z9d","","1xzkx56z9d","""2024-11-12T18:26:14.908Z""","926","materials/imgs/D49.png","arrowright","","[""materials/imgs/D8.png"",""materials/imgs/D101.png""]","false","validation","","",""
"","","","","","html-keyboard-response","354","357136","0.0-19.0-2.0-0.1","1xzkx56z9d","","1xzkx56z9d","""2024-11-12T18:26:14.908Z""","null","+","null","","","","","","",""
"","","","","","image-keyboard-response","355","358160","0.0-19.0-2.0-1.1","1xzkx56z9d","","1xzkx56z9d","""2024-11-12T18:26:14.908Z""","1022","materials/imgs/D37.png","arrowleft","","[""materials/imgs/D84.png"",""materials/imgs/D111.png""]","false","validation","","",""
"","","","","","html-keyboard-response","356","358661","0.0-19.0-0.1-0.7","1xzkx56z9d","","1xzkx56z9d","""2024-11-12T18:26:14.908Z""","null","+","null","","","","","","",""
"","","","","","image-keyboard-response","357","359837","0.0-19.0-0.1-1.7","1xzkx56z9d","","1xzkx56z9d","""2024-11-12T18:26:14.908Z""","1174","materials/imgs/D19.png","arrowleft","","[""materials/imgs/D18.png"",""materials/imgs/D87.png""]","false","random","","",""
"","","","","","html-keyboard-response","358","360339","0.0-19.0-0.1-0.8","1xzkx56z9d","","1xzkx56z9d","""2024-11-12T18:26:14.908Z""","null","+","null","","","","","","",""
"","","","","","image-keyboard-response","359","361015","0.0-19.0-0.1-1.8","1xzkx56z9d","","1xzkx56z9d","""2024-11-12T18:26:14.908Z""","674","materials/imgs/D47.png","arrowleft","","[""materials/imgs/D18.png"",""materials/imgs/D29.png""]","false","random","","",""
"","","","","","html-keyboard-response","360","361517","0.0-19.0-0.1-0.9","1xzkx56z9d","","1xzkx56z9d","""2024-11-12T18:26:14.908Z""","null","+","null","","","","","","",""
"","","","","","image-keyboard-response","361","362752","0.0-19.0-0.1-1.9","1xzkx56z9d","","1xzkx56z9d","""2024-11-12T18:26:14.908Z""","1232","materials/imgs/D37.png","arrowleft","","[""materials/imgs/D103.png"",""materials/imgs/D56.png""]","false","random","","",""
"","","","","","html-keyboard-response","362","363252","0.0-19.0-0.1-0.10","1xzkx56z9d","","1xzkx56z9d","""2024-11-12T18:26:14.908Z""","null","+","null","","","","","","",""
"","","","","","image-keyboard-response","363","364194","0.0-19.0-0.1-1.10","1xzkx56z9d","","1xzkx56z9d","""2024-11-12T18:26:14.908Z""","939","materials/imgs/D78.png","arrowleft","","[""materials/imgs/D4.png"",""materials/imgs/D49.png""]","false","random","","",""
"","","","","","html-keyboard-response","364","364695","0.0-19.0-0.1-0.11","1xzkx56z9d","","1xzkx56z9d","""2024-11-12T18:26:14.908Z""","null","+","null","","","","","","",""
"","","","","","image-keyboard-response","365","365797","0.0-19.0-0.1-1.11","1xzkx56z9d","","1xzkx56z9d","""2024-11-12T18:26:14.908Z""","1100","materials/imgs/D49.png","arrowright","","[""materials/imgs/D36.png"",""materials/imgs/D101.png""]","false","random","","",""
"","","","","","html-keyboard-response","366","366299","0.0-19.0-0.1-0.12","1xzkx56z9d","","1xzkx56z9d","""2024-11-12T18:26:14.908Z""","null","+","null","","","","","","",""
"","","","","","image-keyboard-response","367","367301","0.0-19.0-0.1-1.12","1xzkx56z9d","","1xzkx56z9d","""2024-11-12T18:26:14.908Z""","999","materials/imgs/D95.png","arrowright","","[""materials/imgs/D65.png"",""materials/imgs/D46.png""]","false","random","","",""
"","","","","","html-keyboard-response","368","367802","0.0-19.0-0.1-0.13","1xzkx56z9d","","1xzkx56z9d","""2024-11-12T18:26:14.908Z""","null","+","null","","","","","","",""
"","","","","","image-keyboard-response","369","368848","0.0-19.0-0.1-1.13","1xzkx56z9d","","1xzkx56z9d","""2024-11-12T18:26:14.908Z""","1045","materials/imgs/D103.png","arrowright","","[""materials/imgs/D35.png"",""materials/imgs/D66.png""]","false","random","","",""
"","","","","","html-keyboard-response","370","369350","0.0-19.0-1.1-0.1","1xzkx56z9d","","1xzkx56z9d","""2024-11-12T18:26:14.908Z""","null","+","null","","","","","","",""
"","","","","","image-keyboard-response","371","370015","0.0-19.0-1.1-1.1","1xzkx56z9d","","1xzkx56z9d","""2024-11-12T18:26:14.908Z""","663","materials/imgs/D53.png","arrowright","","[""materials/imgs/D64.png"",""materials/imgs/D53.png""]","","check","materials/imgs/D53.png","1","true"
"","","","","","html-keyboard-response","372","370517","0.0-19.0-2.1-0.2","1xzkx56z9d","","1xzkx56z9d","""2024-11-12T18:26:14.908Z""","null","+","null","","","","","","",""
"","","","","","image-keyboard-response","373","371408","0.0-19.0-2.1-1.2","1xzkx56z9d","","1xzkx56z9d","""2024-11-12T18:26:14.908Z""","889","materials/imgs/D4.png","arrowleft","","[""materials/imgs/D52.png"",""materials/imgs/D83.png""]","false","validation","","",""
"","","","","","html-keyboard-response","374","371910","0.0-19.0-2.1-0.3","1xzkx56z9d","","1xzkx56z9d","""2024-11-12T18:26:14.908Z""","null","+","null","","","","","","",""
"","","","","","image-keyboard-response","375","372816","0.0-19.0-2.1-1.3","1xzkx56z9d","","1xzkx56z9d","""2024-11-12T18:26:14.908Z""","904","materials/imgs/D8.png","arrowright","","[""materials/imgs/D101.png"",""materials/imgs/D52.png""]","false","validation","","",""
"","","","","","html-keyboard-response","376","373318","0.0-19.0-0.2-0.14","1xzkx56z9d","","1xzkx56z9d","""2024-11-12T18:26:14.908Z""","null","+","null","","","","","","",""
"","","","","","image-keyboard-response","377","374218","0.0-19.0-0.2-1.14","1xzkx56z9d","","1xzkx56z9d","""2024-11-12T18:26:14.908Z""","898","materials/imgs/D26.png","arrowright","","[""materials/imgs/D85.png"",""materials/imgs/D56.png""]","false","random","","",""
"","","","","","html-keyboard-response","378","374719","0.0-19.0-0.2-0.15","1xzkx56z9d","","1xzkx56z9d","""2024-11-12T18:26:14.908Z""","null","+","null","","","","","","",""
"","","","","","image-keyboard-response","379","375578","0.0-19.0-0.2-1.15","1xzkx56z9d","","1xzkx56z9d","""2024-11-12T18:26:14.908Z""","856","materials/imgs/D11.png","arrowright","","[""materials/imgs/D74.png"",""materials/imgs/D101.png""]","false","random","","",""
"","","","","","html-keyboard-response","380","376078","0.0-19.0-0.2-0.16","1xzkx56z9d","","1xzkx56z9d","""2024-11-12T18:26:14.908Z""","null","+","null","","","","","","",""
"","","","","","image-keyboard-response","381","376864","0.0-19.0-0.2-1.16","1xzkx56z9d","","1xzkx56z9d","""2024-11-12T18:26:14.908Z""","776","materials/imgs/D103.png","arrowleft","","[""materials/imgs/D49.png"",""materials/imgs/D47.png""]","false","random","","",""
"","","","","","html-keyboard-response","382","377365","0.0-19.0-0.2-0.17","1xzkx56z9d","","1xzkx56z9d","""2024-11-12T18:26:14.908Z""","null","+","null","","","","","","",""
"","","","","","image-keyboard-response","383","378116","0.0-19.0-0.2-1.17","1xzkx56z9d","","1xzkx56z9d","""2024-11-12T18:26:14.908Z""","748","materials/imgs/D16.png","arrowright","","[""materials/imgs/D51.png"",""materials/imgs/D24.png""]","false","random","","",""
"","","","","","html-keyboard-response","384","378617","0.0-19.0-0.2-0.18","1xzkx56z9d","","1xzkx56z9d","""2024-11-12T18:26:14.908Z""","null","+","null","","","","","","",""
"","","","","","image-keyboard-response","385","379460","0.0-19.0-0.2-1.18","1xzkx56z9d","","1xzkx56z9d","""2024-11-12T18:26:14.908Z""","840","materials/imgs/D65.png","arrowright","","[""materials/imgs/D21.png"",""materials/imgs/D16.png""]","false","random","","",""
"","","","","","html-keyboard-response","386","379961","0.0-19.0-0.2-0.19","1xzkx56z9d","","1xzkx56z9d","""2024-11-12T18:26:14.908Z""","null","+","null","","","","","","",""
"","","","","","image-keyboard-response","387","380637","0.0-19.0-0.2-1.19","1xzkx56z9d","","1xzkx56z9d","""2024-11-12T18:26:14.908Z""","675","materials/imgs/D53.png","arrowright","","[""materials/imgs/D111.png"",""materials/imgs/D57.png""]","false","random","","",""
"","","","","","html-keyboard-response","388","381138","0.0-19.0-0.2-0.20","1xzkx56z9d","","1xzkx56z9d","""2024-11-12T18:26:14.908Z""","null","+","null","","","","","","",""
"","","","","","image-keyboard-response","389","382178","0.0-19.0-0.2-1.20","1xzkx56z9d","","1xzkx56z9d","""2024-11-12T18:26:14.908Z""","1038","materials/imgs/D21.png","arrowright","","[""materials/imgs/D105.png"",""materials/imgs/D103.png""]","false","random","","",""
"","","","","","html-keyboard-response","390","382679","0.0-19.0-1.2-0.2","1xzkx56z9d","","1xzkx56z9d","""2024-11-12T18:26:14.908Z""","null","+","null","","","","","","",""
"","","","","","image-keyboard-response","391","383644","0.0-19.0-1.2-1.2","1xzkx56z9d","","1xzkx56z9d","""2024-11-12T18:26:14.908Z""","963","materials/imgs/D101.png","arrowright","","[""materials/imgs/D106.png"",""materials/imgs/D101.png""]","","check","materials/imgs/D101.png","1","true"
"","","","","","html-keyboard-response","392","384146","0.0-19.0-2.2-0.4","1xzkx56z9d","","1xzkx56z9d","""2024-11-12T18:26:14.908Z""","null","+","null","","","","","","",""
"","","","","","image-keyboard-response","393","385133","0.0-19.0-2.2-1.4","1xzkx56z9d","","1xzkx56z9d","""2024-11-12T18:26:14.908Z""","985","materials/imgs/D82.png","arrowright","","[""materials/imgs/D83.png"",""materials/imgs/D22.png""]","false","validation","","",""
"","","","","","html-keyboard-response","394","385634","0.0-19.0-2.2-0.5","1xzkx56z9d","","1xzkx56z9d","""2024-11-12T18:26:14.908Z""","null","+","null","","","","","","",""
"","","","","","image-keyboard-response","395","386498","0.0-19.0-2.2-1.5","1xzkx56z9d","","1xzkx56z9d","""2024-11-12T18:26:14.908Z""","862","materials/imgs/D11.png","arrowleft","","[""materials/imgs/D83.png"",""materials/imgs/D48.png""]","false","validation","","",""
"","","","","","html-keyboard-response","396","387000","0.0-19.0-0.3-0.21","1xzkx56z9d","","1xzkx56z9d","""2024-11-12T18:26:14.908Z""","null","+","null","","","","","","",""
"","","","","","image-keyboard-response","397","388003","0.0-19.0-0.3-1.21","1xzkx56z9d","","1xzkx56z9d","""2024-11-12T18:26:14.908Z""","1000","materials/imgs/D94.png","arrowleft","","[""materials/imgs/D83.png"",""materials/imgs/D77.png""]","false","random","","",""
"","","","","","html-keyboard-response","398","388504","0.0-19.0-0.3-0.22","1xzkx56z9d","","1xzkx56z9d","""2024-11-12T18:26:14.908Z""","null","+","null","","","","","","",""
"","","","","","image-keyboard-response","399","389373","0.0-19.0-0.3-1.22","1xzkx56z9d","","1xzkx56z9d","""2024-11-12T18:26:14.908Z""","866","materials/imgs/D11.png","arrowleft","","[""materials/imgs/D29.png"",""materials/imgs/D48.png""]","false","random","","",""
"","","","","","html-keyboard-response","400","389875","0.0-19.0-0.3-0.23","1xzkx56z9d","","1xzkx56z9d","""2024-11-12T18:26:14.908Z""","null","+","null","","","","","","",""
"","","","","","image-keyboard-response","401","391316","0.0-19.0-0.3-1.23","1xzkx56z9d","","1xzkx56z9d","""2024-11-12T18:26:14.908Z""","1439","materials/imgs/D76.png","arrowleft","","[""materials/imgs/D49.png"",""materials/imgs/D24.png""]","false","random","","",""
"","","","","","html-keyboard-response","402","391817","0.0-19.0-0.3-0.24","1xzkx56z9d","","1xzkx56z9d","""2024-11-12T18:26:14.908Z""","null","+","null","","","","","","",""
"","","","","","image-keyboard-response","403","393137","0.0-19.0-0.3-1.24","1xzkx56z9d","","1xzkx56z9d","""2024-11-12T18:26:14.908Z""","1318","materials/imgs/D11.png","arrowleft","","[""materials/imgs/D102.png"",""materials/imgs/D3.png""]","false","random","","",""
"","","","","","html-keyboard-response","404","393638","0.0-19.0-0.3-0.25","1xzkx56z9d","","1xzkx56z9d","""2024-11-12T18:26:14.908Z""","null","+","null","","","","","","",""
"","","","","","image-keyboard-response","405","394903","0.0-19.0-0.3-1.25","1xzkx56z9d","","1xzkx56z9d","""2024-11-12T18:26:14.908Z""","1261","materials/imgs/D51.png","arrowleft","","[""materials/imgs/D1.png"",""materials/imgs/D49.png""]","false","random","","",""
"","","","","","html-keyboard-response","406","395404","0.0-19.0-0.3-0.26","1xzkx56z9d","","1xzkx56z9d","""2024-11-12T18:26:14.908Z""","null","+","null","","","","","","",""
"","","","","","image-keyboard-response","407","396557","0.0-19.0-0.3-1.26","1xzkx56z9d","","1xzkx56z9d","""2024-11-12T18:26:14.908Z""","1150","materials/imgs/D34.png","arrowleft","","[""materials/imgs/D3.png"",""materials/imgs/D95.png""]","false","random","","",""
"","","","","","html-keyboard-response","408","397058","0.0-19.0-0.3-0.27","1xzkx56z9d","","1xzkx56z9d","""2024-11-12T18:26:14.908Z""","null","+","null","","","","","","",""
"","","","","","image-keyboard-response","409","397838","0.0-19.0-0.3-1.27","1xzkx56z9d","","1xzkx56z9d","""2024-11-12T18:26:14.908Z""","778","materials/imgs/D34.png","arrowleft","","[""materials/imgs/D82.png"",""materials/imgs/D78.png""]","false","random","","",""
"","","","","","html-keyboard-response","410","398339","0.0-19.0-1.3-0.3","1xzkx56z9d","","1xzkx56z9d","""2024-11-12T18:26:14.908Z""","null","+","null","","","","","","",""
"","","","","","image-keyboard-response","411","399249","0.0-19.0-1.3-1.3","1xzkx56z9d","","1xzkx56z9d","""2024-11-12T18:26:14.908Z""","908","materials/imgs/D78.png","arrowright","","[""materials/imgs/D76.png"",""materials/imgs/D78.png""]","","check","materials/imgs/D78.png","1","true"
"","","","","","html-keyboard-response","412","399751","0.0-19.0-2.3-0.6","1xzkx56z9d","","1xzkx56z9d","""2024-11-12T18:26:14.908Z""","null","+","null","","","","","","",""
"","","","","","image-keyboard-response","413","400800","0.0-19.0-2.3-1.6","1xzkx56z9d","","1xzkx56z9d","""2024-11-12T18:26:14.908Z""","1047","materials/imgs/D79.png","arrowleft","","[""materials/imgs/D51.png"",""materials/imgs/D64.png""]","false","validation","","",""
"","","","","","html-keyboard-response","414","401301","0.0-19.0-2.3-0.7","1xzkx56z9d","","1xzkx56z9d","""2024-11-12T18:26:14.908Z""","null","+","null","","","","","","",""
"","","","","","image-keyboard-response","415","401869","0.0-19.0-2.3-1.7","1xzkx56z9d","","1xzkx56z9d","""2024-11-12T18:26:14.908Z""","566","materials/imgs/D57.png","arrowright","","[""materials/imgs/D111.png"",""materials/imgs/D4.png""]","false","validation","","",""
"","","","","","html-keyboard-response","416","402370","0.0-19.0-0.4-0.28","1xzkx56z9d","","1xzkx56z9d","""2024-11-12T18:26:14.908Z""","null","+","null","","","","","","",""
"","","","","","image-keyboard-response","417","403534","0.0-19.0-0.4-1.28","1xzkx56z9d","","1xzkx56z9d","""2024-11-12T18:26:14.908Z""","1161","materials/imgs/D55.png","arrowright","","[""materials/imgs/D47.png"",""materials/imgs/D64.png""]","false","random","","",""
"","","","","","html-keyboard-response","418","404036","0.0-19.0-0.4-0.29","1xzkx56z9d","","1xzkx56z9d","""2024-11-12T18:26:14.908Z""","null","+","null","","","","","","",""
"","","","","","image-keyboard-response","419","404789","0.0-19.0-0.4-1.29","1xzkx56z9d","","1xzkx56z9d","""2024-11-12T18:26:14.908Z""","751","materials/imgs/D80.png","arrowleft","","[""materials/imgs/D9.png"",""materials/imgs/D95.png""]","false","random","","",""
"","","","","","html-keyboard-response","420","405291","0.0-19.0-0.4-0.30","1xzkx56z9d","","1xzkx56z9d","""2024-11-12T18:26:14.908Z""","null","+","null","","","","","","",""
"","","","","","image-keyboard-response","421","406160","0.0-19.0-0.4-1.30","1xzkx56z9d","","1xzkx56z9d","""2024-11-12T18:26:14.908Z""","868","materials/imgs/D68.png","arrowleft","","[""materials/imgs/D21.png"",""materials/imgs/D102.png""]","false","random","","",""
"","","","","","html-keyboard-response","422","406662","0.0-19.0-0.4-0.31","1xzkx56z9d","","1xzkx56z9d","""2024-11-12T18:26:14.908Z""","null","+","null","","","","","","",""
"","","","","","image-keyboard-response","423","407563","0.0-19.0-0.4-1.31","1xzkx56z9d","","1xzkx56z9d","""2024-11-12T18:26:14.908Z""","899","materials/imgs/D20.png","arrowleft","","[""materials/imgs/D68.png"",""materials/imgs/D55.png""]","false","random","","",""
"","","","","","html-keyboard-response","424","408065","0.0-19.0-0.4-0.32","1xzkx56z9d","","1xzkx56z9d","""2024-11-12T18:26:14.908Z""","null","+","null","","","","","","",""
"","","","","","image-keyboard-response","425","408833","0.0-19.0-0.4-1.32","1xzkx56z9d","","1xzkx56z9d","""2024-11-12T18:26:14.908Z""","766","materials/imgs/D21.png","arrowright","","[""materials/imgs/D51.png"",""materials/imgs/D36.png""]","false","random","","",""
"","","","","","html-keyboard-response","426","409334","0.0-19.0-0.4-0.33","1xzkx56z9d","","1xzkx56z9d","""2024-11-12T18:26:14.908Z""","null","+","null","","","","","","",""
"","","","","","image-keyboard-response","427","410364","0.0-19.0-0.4-1.33","1xzkx56z9d","","1xzkx56z9d","""2024-11-12T18:26:14.908Z""","1027","materials/imgs/D96.png","arrowright","","[""materials/imgs/D87.png"",""materials/imgs/D25.png""]","false","random","","",""
"","","","","","html-keyboard-response","428","410866","0.0-19.0-0.4-0.34","1xzkx56z9d","","1xzkx56z9d","""2024-11-12T18:26:14.908Z""","null","+","null","","","","","","",""
"","","","","","image-keyboard-response","429","412379","0.0-19.0-0.4-1.34","1xzkx56z9d","","1xzkx56z9d","""2024-11-12T18:26:14.908Z""","1511","materials/imgs/D47.png","arrowright","","[""materials/imgs/D103.png"",""materials/imgs/D85.png""]","false","random","","",""
"","","","","","html-keyboard-response","430","412881","0.0-19.0-1.4-0.4","1xzkx56z9d","","1xzkx56z9d","""2024-11-12T18:26:14.908Z""","null","+","null","","","","","","",""
"","","","","","image-keyboard-response","431","413651","0.0-19.0-1.4-1.4","1xzkx56z9d","","1xzkx56z9d","""2024-11-12T18:26:14.908Z""","768","materials/imgs/D64.png","arrowleft","","[""materials/imgs/D64.png"",""materials/imgs/D53.png""]","","check","materials/imgs/D64.png","0","true"
"","","","","","html-keyboard-response","432","414152","0.0-19.0-2.4-0.8","1xzkx56z9d","","1xzkx56z9d","""2024-11-12T18:26:14.908Z""","null","+","null","","","","","","",""
"","","","","","image-keyboard-response","433","415086","0.0-19.0-2.4-1.8","1xzkx56z9d","","1xzkx56z9d","""2024-11-12T18:26:14.908Z""","932","materials/imgs/D68.png","arrowleft","","[""materials/imgs/D96.png"",""materials/imgs/D48.png""]","false","validation","","",""
"","","","","","html-keyboard-response","434","415587","0.0-19.0-2.4-0.9","1xzkx56z9d","","1xzkx56z9d","""2024-11-12T18:26:14.908Z""","null","+","null","","","","","","",""
"","","","","","image-keyboard-response","435","416743","0.0-19.0-2.4-1.9","1xzkx56z9d","","1xzkx56z9d","""2024-11-12T18:26:14.908Z""","1153","materials/imgs/D52.png","arrowleft","","[""materials/imgs/D9.png"",""materials/imgs/D19.png""]","false","validation","","",""
