"success","timeout","failed_images","failed_audio","failed_video","trial_type","trial_index","time_elapsed","internal_node_id","subject_id","sona_id","subjectID","dateInfo","rt","stimulus","response","question_order","choices","speedy","sampleAlg","selected_image","selected_index","correct"
"true","false","[]","[]","[]","preload","0","158","0.0-0.0","37zoowefy5","","37zoowefy5","""2024-11-12T20:35:01.544Z""","","","","","","","","","",""
"true","","","","","fullscreen","1","7666","0.0-1.0","37zoowefy5","","37zoowefy5","""2024-11-12T20:35:01.544Z""","","","","","","","","","",""
"","","","","","html-keyboard-response","2","7681","0.0-2.0","37zoowefy5","","37zoowefy5","""2024-11-12T20:35:01.544Z""","null","","null","","","","","","",""
"","","","","","html-button-response","3","8894","0.0-3.0","37zoowefy5","","37zoowefy5","""2024-11-12T20:35:01.544Z""","1210","<div style='text-align:center; font-size:20px; line-height:25px; width: 1200px;'>
                Welcome to our experiment! <br>
                <br>At the bottom of this screen, you will see a button that says 'Begin Experiment.
                <br>Please only click that button when you are ready to complete the 25 minute experiment in one sitting. <br>
                <br> Once you click that button, it will not be possible to restart the experiment. <br><br>","0","","","","","","",""
"true","","","","","fullscreen","4","10880","0.0-4.0","37zoowefy5","","37zoowefy5","""2024-11-12T20:35:01.544Z""","","","","","","","","","",""
"","","","","","survey-multi-select","5","13293","0.0-5.0","37zoowefy5","","37zoowefy5","""2024-11-12T20:35:01.544Z""","2408","","{""Consent"":[""<strong>I consent</strong>""]}","[0]","","","","","",""
"","","","","","html-button-response","6","14540","0.0-6.0","37zoowefy5","","37zoowefy5","""2024-11-12T20:35:01.544Z""","1245","Welcome! <p> This experiment involves two parts: demographic information, followed by the experimental task.<p> It will take about 25 minutes to complete both parts.","0","","","","","","",""
"","","","","","survey-text","7","19927","0.0-7.0","37zoowefy5","","37zoowefy5","""2024-11-12T20:35:01.544Z""","5383","","{""Age"":""18"",""Gender"":""female"",""Race/ethnicity"":""white""}","","","","","","",""
"","","","","","html-button-response","8","32009","0.0-8.0","37zoowefy5","","37zoowefy5","""2024-11-12T20:35:01.544Z""","12078","<div style='text-align: center;'>
      <p>In each trial of this task, you will see three texture images: one target item on top, and two choices beneath the target item.</p>
      <p><strong>Please select the item that is most like the target item.</strong></p>
      <p>To select the option on the <strong>LEFT</strong>, press the <strong>LEFT ARROW</strong> key. 
      To select the option on the <strong>RIGHT</strong>, press the <strong>RIGHT ARROW</strong> key.</p>
                  <!-- Target Image at the Top -->
      <div style='margin: 20px;'>
        <img src='materials/imgs/instruction_images/InstructionImg1D78.png' alt='Target Image' style='width:200px; height:auto;' />
        <p><em>Target Image</em></p>
      </div>

      <!-- Two Choice Images Below -->
      <div style='display: flex; justify-content: center;'>
        <div style='margin-right: 50px;'>
          <img src='materials/imgs/instruction_images/InstructionImg2D34.png' alt='Choice Image 1' style='width:150px; height:auto;' />
          <p><em><strong>LEFT ARROW</strong></em></p>
        </div>
        <div style='margin-left: 50px;'>
          <img src='materials/imgs/instruction_images/InstructionImg3D80.png' alt='Choice Image 2' style='width:150px; height:auto;' />
          <p><em><strong>RIGHT ARROW</strong></em></p>
        </div>
      </div>
    </div>

      <p>When you are ready to proceed, please click 'Continue' to begin practice.</p>","0","","","","","","",""
"","","","","","html-keyboard-response","9","34521","0.0-9.0","37zoowefy5","","37zoowefy5","""2024-11-12T20:35:01.544Z""","null","+","null","","","","","","",""
"","","","","","html-keyboard-response","10","35022","0.0-10.0-0.0-0.0","37zoowefy5","","37zoowefy5","""2024-11-12T20:35:01.544Z""","null","+","null","","","","","","",""
"","","","","","image-keyboard-response","11","38557","0.0-10.0-0.0-1.0","37zoowefy5","","37zoowefy5","""2024-11-12T20:35:01.544Z""","3529","materials/imgs/D57.png","arrowright","","[""materials/imgs/D17.png"",""materials/imgs/D19.png""]","false","random","","",""
"","","","","","html-keyboard-response","12","39059","0.0-10.0-0.0-0.1","37zoowefy5","","37zoowefy5","""2024-11-12T20:35:01.544Z""","null","+","null","","","","","","",""
"","","","","","image-keyboard-response","13","41167","0.0-10.0-0.0-1.1","37zoowefy5","","37zoowefy5","""2024-11-12T20:35:01.544Z""","2106","materials/imgs/D75.png","arrowleft","","[""materials/imgs/D55.png"",""materials/imgs/D78.png""]","false","random","","",""
"","","","","","html-keyboard-response","14","41670","0.0-10.0-0.0-0.2","37zoowefy5","","37zoowefy5","""2024-11-12T20:35:01.544Z""","null","+","null","","","","","","",""
"","","","","","image-keyboard-response","15","43528","0.0-10.0-0.0-1.2","37zoowefy5","","37zoowefy5","""2024-11-12T20:35:01.544Z""","1856","materials/imgs/D16.png","arrowleft","","[""materials/imgs/D20.png"",""materials/imgs/D92.png""]","false","random","","",""
"","","","","","html-keyboard-response","16","44034","0.0-10.0-0.0-0.3","37zoowefy5","","37zoowefy5","""2024-11-12T20:35:01.544Z""","null","+","null","","","","","","",""
"","","","","","image-keyboard-response","17","45889","0.0-10.0-0.0-1.3","37zoowefy5","","37zoowefy5","""2024-11-12T20:35:01.544Z""","1852","materials/imgs/D6.png","arrowright","","[""materials/imgs/D18.png"",""materials/imgs/D87.png""]","false","random","","",""
"","","","","","html-keyboard-response","18","46391","0.0-10.0-0.0-0.4","37zoowefy5","","37zoowefy5","""2024-11-12T20:35:01.544Z""","null","+","null","","","","","","",""
"","","","","","image-keyboard-response","19","47743","0.0-10.0-0.0-1.4","37zoowefy5","","37zoowefy5","""2024-11-12T20:35:01.544Z""","1351","materials/imgs/D48.png","arrowright","","[""materials/imgs/D80.png"",""materials/imgs/D8.png""]","false","random","","",""
"","","","","","html-keyboard-response","20","48246","0.0-10.0-0.0-0.5","37zoowefy5","","37zoowefy5","""2024-11-12T20:35:01.544Z""","null","+","null","","","","","","",""
"","","","","","image-keyboard-response","21","51476","0.0-10.0-0.0-1.5","37zoowefy5","","37zoowefy5","""2024-11-12T20:35:01.544Z""","3227","materials/imgs/D95.png","arrowleft","","[""materials/imgs/D66.png"",""materials/imgs/D106.png""]","false","random","","",""
"","","","","","html-keyboard-response","22","51981","0.0-10.0-0.0-0.6","37zoowefy5","","37zoowefy5","""2024-11-12T20:35:01.544Z""","null","+","null","","","","","","",""
"","","","","","image-keyboard-response","23","53191","0.0-10.0-0.0-1.6","37zoowefy5","","37zoowefy5","""2024-11-12T20:35:01.544Z""","1207","materials/imgs/D20.png","arrowleft","","[""materials/imgs/D1.png"",""materials/imgs/D92.png""]","false","random","","",""
"","","","","","html-keyboard-response","24","53696","0.0-10.0-0.0-0.7","37zoowefy5","","37zoowefy5","""2024-11-12T20:35:01.544Z""","null","+","null","","","","","","",""
"","","","","","image-keyboard-response","25","54849","0.0-10.0-0.0-1.7","37zoowefy5","","37zoowefy5","""2024-11-12T20:35:01.544Z""","1150","materials/imgs/D92.png","arrowleft","","[""materials/imgs/D80.png"",""materials/imgs/D18.png""]","false","random","","",""
"","","","","","html-keyboard-response","26","55353","0.0-10.0-0.0-0.8","37zoowefy5","","37zoowefy5","""2024-11-12T20:35:01.544Z""","null","+","null","","","","","","",""
"","","","","","image-keyboard-response","27","57309","0.0-10.0-0.0-1.8","37zoowefy5","","37zoowefy5","""2024-11-12T20:35:01.544Z""","1954","materials/imgs/D21.png","arrowleft","","[""materials/imgs/D1.png"",""materials/imgs/D56.png""]","false","random","","",""
"","","","","","html-keyboard-response","28","57814","0.0-10.0-0.0-0.9","37zoowefy5","","37zoowefy5","""2024-11-12T20:35:01.544Z""","null","+","null","","","","","","",""
"","","","","","image-keyboard-response","29","59221","0.0-10.0-0.0-1.9","37zoowefy5","","37zoowefy5","""2024-11-12T20:35:01.544Z""","1404","materials/imgs/D85.png","arrowleft","","[""materials/imgs/D82.png"",""materials/imgs/D81.png""]","false","random","","",""
"","","","","","html-button-response","30","63159","0.0-11.0","37zoowefy5","","37zoowefy5","""2024-11-12T20:35:01.544Z""","3936","<p>Great job!</p>
      <p>You are now ready to begin the experiment.</p>
      <p>There will be around 200 trials. You will have opportunities to take breaks at three stages of the trials.</p>
      <p>When you are ready to begin please click 'Continue'.</p>","0","","","","","","",""
"","","","","","html-keyboard-response","31","65668","0.0-12.0","37zoowefy5","","37zoowefy5","""2024-11-12T20:35:01.544Z""","null","+","null","","","","","","",""
"","","","","","html-keyboard-response","32","66173","0.0-13.0-0.0-0.0","37zoowefy5","","37zoowefy5","""2024-11-12T20:35:01.544Z""","null","+","null","","","","","","",""
"","","","","","image-keyboard-response","33","67047","0.0-13.0-0.0-1.0","37zoowefy5","","37zoowefy5","""2024-11-12T20:35:01.544Z""","871","materials/imgs/D32.png","arrowright","","[""materials/imgs/D76.png"",""materials/imgs/D4.png""]","false","random","","",""
"","","","","","html-keyboard-response","34","67551","0.0-13.0-0.0-0.1","37zoowefy5","","37zoowefy5","""2024-11-12T20:35:01.544Z""","null","+","null","","","","","","",""
"","","","","","image-keyboard-response","35","69389","0.0-13.0-0.0-1.1","37zoowefy5","","37zoowefy5","""2024-11-12T20:35:01.544Z""","1837","materials/imgs/D68.png","arrowleft","","[""materials/imgs/D14.png"",""materials/imgs/D57.png""]","false","random","","",""
"","","","","","html-keyboard-response","36","69891","0.0-13.0-0.0-0.2","37zoowefy5","","37zoowefy5","""2024-11-12T20:35:01.544Z""","null","+","null","","","","","","",""
"","","","","","image-keyboard-response","37","70968","0.0-13.0-0.0-1.2","37zoowefy5","","37zoowefy5","""2024-11-12T20:35:01.544Z""","1075","materials/imgs/D6.png","arrowright","","[""materials/imgs/D53.png"",""materials/imgs/D55.png""]","false","random","","",""
"","","","","","html-keyboard-response","38","71470","0.0-13.0-0.0-0.3","37zoowefy5","","37zoowefy5","""2024-11-12T20:35:01.544Z""","null","+","null","","","","","","",""
"","","","","","image-keyboard-response","39","73027","0.0-13.0-0.0-1.3","37zoowefy5","","37zoowefy5","""2024-11-12T20:35:01.544Z""","1554","materials/imgs/D92.png","arrowleft","","[""materials/imgs/D49.png"",""materials/imgs/D78.png""]","false","random","","",""
"","","","","","html-keyboard-response","40","73528","0.0-13.0-0.0-0.4","37zoowefy5","","37zoowefy5","""2024-11-12T20:35:01.544Z""","null","+","null","","","","","","",""
"","","","","","image-keyboard-response","41","74314","0.0-13.0-0.0-1.4","37zoowefy5","","37zoowefy5","""2024-11-12T20:35:01.544Z""","785","materials/imgs/D19.png","arrowleft","","[""materials/imgs/D92.png"",""materials/imgs/D55.png""]","false","random","","",""
"","","","","","html-keyboard-response","42","74818","0.0-13.0-0.0-0.5","37zoowefy5","","37zoowefy5","""2024-11-12T20:35:01.544Z""","null","+","null","","","","","","",""
"","","","","","image-keyboard-response","43","75782","0.0-13.0-0.0-1.5","37zoowefy5","","37zoowefy5","""2024-11-12T20:35:01.544Z""","961","materials/imgs/D92.png","arrowleft","","[""materials/imgs/D102.png"",""materials/imgs/D48.png""]","false","random","","",""
"","","","","","html-keyboard-response","44","76284","0.0-13.0-0.0-0.6","37zoowefy5","","37zoowefy5","""2024-11-12T20:35:01.544Z""","null","+","null","","","","","","",""
"","","","","","image-keyboard-response","45","78067","0.0-13.0-0.0-1.6","37zoowefy5","","37zoowefy5","""2024-11-12T20:35:01.544Z""","1780","materials/imgs/D104.png","arrowright","","[""materials/imgs/D51.png"",""materials/imgs/D56.png""]","false","random","","",""
"","","","","","html-keyboard-response","46","78570","0.0-13.0-1.0-0.0","37zoowefy5","","37zoowefy5","""2024-11-12T20:35:01.544Z""","null","+","null","","","","","","",""
"","","","","","image-keyboard-response","47","79359","0.0-13.0-1.0-1.0","37zoowefy5","","37zoowefy5","""2024-11-12T20:35:01.544Z""","786","materials/imgs/D26.png","arrowleft","","[""materials/imgs/D26.png"",""materials/imgs/D46.png""]","","check","materials/imgs/D26.png","0","true"
"","","","","","html-keyboard-response","48","79863","0.0-13.0-2.0-0.0","37zoowefy5","","37zoowefy5","""2024-11-12T20:35:01.544Z""","null","+","null","","","","","","",""
"","","","","","image-keyboard-response","49","82032","0.0-13.0-2.0-1.0","37zoowefy5","","37zoowefy5","""2024-11-12T20:35:01.544Z""","2166","materials/imgs/D16.png","arrowleft","","[""materials/imgs/D52.png"",""materials/imgs/D25.png""]","false","validation","","",""
"","","","","","html-keyboard-response","50","82537","0.0-13.0-2.0-0.1","37zoowefy5","","37zoowefy5","""2024-11-12T20:35:01.544Z""","null","+","null","","","","","","",""
"","","","","","image-keyboard-response","51","83820","0.0-13.0-2.0-1.1","37zoowefy5","","37zoowefy5","""2024-11-12T20:35:01.544Z""","1282","materials/imgs/D52.png","arrowleft","","[""materials/imgs/D9.png"",""materials/imgs/D19.png""]","false","validation","","",""
"","","","","","html-keyboard-response","52","84324","0.0-13.0-0.1-0.7","37zoowefy5","","37zoowefy5","""2024-11-12T20:35:01.544Z""","null","+","null","","","","","","",""
"","","","","","image-keyboard-response","53","85676","0.0-13.0-0.1-1.7","37zoowefy5","","37zoowefy5","""2024-11-12T20:35:01.544Z""","1349","materials/imgs/D49.png","arrowleft","","[""materials/imgs/D36.png"",""materials/imgs/D51.png""]","false","random","","",""
"","","","","","html-keyboard-response","54","86181","0.0-13.0-0.1-0.8","37zoowefy5","","37zoowefy5","""2024-11-12T20:35:01.544Z""","null","+","null","","","","","","",""
"","","","","","image-keyboard-response","55","87991","0.0-13.0-0.1-1.8","37zoowefy5","","37zoowefy5","""2024-11-12T20:35:01.544Z""","1808","materials/imgs/D96.png","arrowleft","","[""materials/imgs/D9.png"",""materials/imgs/D74.png""]","false","random","","",""
"","","","","","html-keyboard-response","56","88493","0.0-13.0-0.1-0.9","37zoowefy5","","37zoowefy5","""2024-11-12T20:35:01.544Z""","null","+","null","","","","","","",""
"","","","","","image-keyboard-response","57","89445","0.0-13.0-0.1-1.9","37zoowefy5","","37zoowefy5","""2024-11-12T20:35:01.544Z""","951","materials/imgs/D57.png","arrowright","","[""materials/imgs/D111.png"",""materials/imgs/D6.png""]","false","random","","",""
"","","","","","html-keyboard-response","58","89950","0.0-13.0-0.1-0.10","37zoowefy5","","37zoowefy5","""2024-11-12T20:35:01.544Z""","null","+","null","","","","","","",""
"","","","","","image-keyboard-response","59","92973","0.0-13.0-0.1-1.10","37zoowefy5","","37zoowefy5","""2024-11-12T20:35:01.544Z""","3021","materials/imgs/D96.png","arrowleft","","[""materials/imgs/D46.png"",""materials/imgs/D57.png""]","false","random","","",""
"","","","","","html-keyboard-response","60","93477","0.0-13.0-0.1-0.11","37zoowefy5","","37zoowefy5","""2024-11-12T20:35:01.544Z""","null","+","null","","","","","","",""
"","","","","","image-keyboard-response","61","94425","0.0-13.0-0.1-1.11","37zoowefy5","","37zoowefy5","""2024-11-12T20:35:01.544Z""","945","materials/imgs/D53.png","arrowright","","[""materials/imgs/D103.png"",""materials/imgs/D6.png""]","false","random","","",""
"","","","","","html-keyboard-response","62","94929","0.0-13.0-0.1-0.12","37zoowefy5","","37zoowefy5","""2024-11-12T20:35:01.544Z""","null","+","null","","","","","","",""
"","","","","","image-keyboard-response","63","96376","0.0-13.0-0.1-1.12","37zoowefy5","","37zoowefy5","""2024-11-12T20:35:01.544Z""","1445","materials/imgs/D14.png","arrowleft","","[""materials/imgs/D75.png"",""materials/imgs/D18.png""]","false","random","","",""
"","","","","","html-keyboard-response","64","96879","0.0-13.0-0.1-0.13","37zoowefy5","","37zoowefy5","""2024-11-12T20:35:01.544Z""","null","+","null","","","","","","",""
"","","","","","image-keyboard-response","65","98322","0.0-13.0-0.1-1.13","37zoowefy5","","37zoowefy5","""2024-11-12T20:35:01.544Z""","1440","materials/imgs/D4.png","arrowright","","[""materials/imgs/D48.png"",""materials/imgs/D101.png""]","false","random","","",""
"","","","","","html-keyboard-response","66","98827","0.0-13.0-1.1-0.1","37zoowefy5","","37zoowefy5","""2024-11-12T20:35:01.544Z""","null","+","null","","","","","","",""
"","","","","","image-keyboard-response","67","99576","0.0-13.0-1.1-1.1","37zoowefy5","","37zoowefy5","""2024-11-12T20:35:01.544Z""","747","materials/imgs/D53.png","arrowright","","[""materials/imgs/D64.png"",""materials/imgs/D53.png""]","","check","materials/imgs/D53.png","1","true"
"","","","","","html-keyboard-response","68","100077","0.0-13.0-2.1-0.2","37zoowefy5","","37zoowefy5","""2024-11-12T20:35:01.544Z""","null","+","null","","","","","","",""
"","","","","","image-keyboard-response","69","102447","0.0-13.0-2.1-1.2","37zoowefy5","","37zoowefy5","""2024-11-12T20:35:01.544Z""","2368","materials/imgs/D49.png","arrowleft","","[""materials/imgs/D8.png"",""materials/imgs/D101.png""]","false","validation","","",""
"","","","","","html-keyboard-response","70","102949","0.0-13.0-2.1-0.3","37zoowefy5","","37zoowefy5","""2024-11-12T20:35:01.544Z""","null","+","null","","","","","","",""
"","","","","","image-keyboard-response","71","103780","0.0-13.0-2.1-1.3","37zoowefy5","","37zoowefy5","""2024-11-12T20:35:01.544Z""","829","materials/imgs/D111.png","arrowleft","","[""materials/imgs/D82.png"",""materials/imgs/D95.png""]","false","validation","","",""
"","","","","","html-keyboard-response","72","104285","0.0-13.0-0.2-0.14","37zoowefy5","","37zoowefy5","""2024-11-12T20:35:01.544Z""","null","+","null","","","","","","",""
"","","","","","image-keyboard-response","73","105818","0.0-13.0-0.2-1.14","37zoowefy5","","37zoowefy5","""2024-11-12T20:35:01.544Z""","1531","materials/imgs/D103.png","arrowright","","[""materials/imgs/D75.png"",""materials/imgs/D9.png""]","false","random","","",""
"","","","","","html-keyboard-response","74","106322","0.0-13.0-0.2-0.15","37zoowefy5","","37zoowefy5","""2024-11-12T20:35:01.544Z""","null","+","null","","","","","","",""
"","","","","","image-keyboard-response","75","107124","0.0-13.0-0.2-1.15","37zoowefy5","","37zoowefy5","""2024-11-12T20:35:01.544Z""","801","materials/imgs/D3.png","arrowleft","","[""materials/imgs/D103.png"",""materials/imgs/D49.png""]","false","random","","",""
"","","","","","html-keyboard-response","76","107629","0.0-13.0-0.2-0.16","37zoowefy5","","37zoowefy5","""2024-11-12T20:35:01.544Z""","null","+","null","","","","","","",""
"","","","","","image-keyboard-response","77","108392","0.0-13.0-0.2-1.16","37zoowefy5","","37zoowefy5","""2024-11-12T20:35:01.544Z""","760","materials/imgs/D57.png","arrowright","","[""materials/imgs/D81.png"",""materials/imgs/D36.png""]","false","random","","",""
"","","","","","html-keyboard-response","78","108894","0.0-13.0-0.2-0.17","37zoowefy5","","37zoowefy5","""2024-11-12T20:35:01.544Z""","null","+","null","","","","","","",""
"","","","","","image-keyboard-response","79","109609","0.0-13.0-0.2-1.17","37zoowefy5","","37zoowefy5","""2024-11-12T20:35:01.544Z""","713","materials/imgs/D94.png","arrowleft","","[""materials/imgs/D64.png"",""materials/imgs/D29.png""]","false","random","","",""
"","","","","","html-keyboard-response","80","110113","0.0-13.0-0.2-0.18","37zoowefy5","","37zoowefy5","""2024-11-12T20:35:01.544Z""","null","+","null","","","","","","",""
"","","","","","image-keyboard-response","81","111220","0.0-13.0-0.2-1.18","37zoowefy5","","37zoowefy5","""2024-11-12T20:35:01.544Z""","1105","materials/imgs/D65.png","arrowright","","[""materials/imgs/D85.png"",""materials/imgs/D81.png""]","false","random","","",""
"","","","","","html-keyboard-response","82","111724","0.0-13.0-0.2-0.19","37zoowefy5","","37zoowefy5","""2024-11-12T20:35:01.544Z""","null","+","null","","","","","","",""
"","","","","","image-keyboard-response","83","113656","0.0-13.0-0.2-1.19","37zoowefy5","","37zoowefy5","""2024-11-12T20:35:01.544Z""","1930","materials/imgs/D11.png","arrowleft","","[""materials/imgs/D80.png"",""materials/imgs/D75.png""]","false","random","","",""
"","","","","","html-keyboard-response","84","114158","0.0-13.0-0.2-0.20","37zoowefy5","","37zoowefy5","""2024-11-12T20:35:01.544Z""","null","+","null","","","","","","",""
"","","","","","image-keyboard-response","85","114988","0.0-13.0-0.2-1.20","37zoowefy5","","37zoowefy5","""2024-11-12T20:35:01.544Z""","828","materials/imgs/D52.png","arrowleft","","[""materials/imgs/D84.png"",""materials/imgs/D78.png""]","false","random","","",""
"","","","","","html-keyboard-response","86","115491","0.0-13.0-1.2-0.2","37zoowefy5","","37zoowefy5","""2024-11-12T20:35:01.544Z""","null","+","null","","","","","","",""
"","","","","","image-keyboard-response","87","116063","0.0-13.0-1.2-1.2","37zoowefy5","","37zoowefy5","""2024-11-12T20:35:01.544Z""","572","materials/imgs/D8.png","arrowright","","[""materials/imgs/D18.png"",""materials/imgs/D8.png""]","","check","materials/imgs/D8.png","1","true"
"","","","","","html-keyboard-response","88","116565","0.0-13.0-2.2-0.4","37zoowefy5","","37zoowefy5","""2024-11-12T20:35:01.544Z""","null","+","null","","","","","","",""
"","","","","","image-keyboard-response","89","117341","0.0-13.0-2.2-1.4","37zoowefy5","","37zoowefy5","""2024-11-12T20:35:01.544Z""","774","materials/imgs/D103.png","arrowright","","[""materials/imgs/D76.png"",""materials/imgs/D106.png""]","false","validation","","",""
"","","","","","html-keyboard-response","90","117843","0.0-13.0-2.2-0.5","37zoowefy5","","37zoowefy5","""2024-11-12T20:35:01.544Z""","null","+","null","","","","","","",""
"","","","","","image-keyboard-response","91","119053","0.0-13.0-2.2-1.5","37zoowefy5","","37zoowefy5","""2024-11-12T20:35:01.544Z""","1208","materials/imgs/D35.png","arrowleft","","[""materials/imgs/D83.png"",""materials/imgs/D24.png""]","false","validation","","",""
"","","","","","html-keyboard-response","92","119557","0.0-13.0-0.3-0.21","37zoowefy5","","37zoowefy5","""2024-11-12T20:35:01.544Z""","null","+","null","","","","","","",""
"","","","","","image-keyboard-response","93","120984","0.0-13.0-0.3-1.21","37zoowefy5","","37zoowefy5","""2024-11-12T20:35:01.544Z""","1425","materials/imgs/D3.png","arrowleft","","[""materials/imgs/D20.png"",""materials/imgs/D8.png""]","false","random","","",""
"","","","","","html-keyboard-response","94","121486","0.0-13.0-0.3-0.22","37zoowefy5","","37zoowefy5","""2024-11-12T20:35:01.544Z""","null","+","null","","","","","","",""
"","","","","","image-keyboard-response","95","122584","0.0-13.0-0.3-1.22","37zoowefy5","","37zoowefy5","""2024-11-12T20:35:01.544Z""","1097","materials/imgs/D19.png","arrowright","","[""materials/imgs/D82.png"",""materials/imgs/D65.png""]","false","random","","",""
"","","","","","html-keyboard-response","96","123085","0.0-13.0-0.3-0.23","37zoowefy5","","37zoowefy5","""2024-11-12T20:35:01.544Z""","null","+","null","","","","","","",""
"","","","","","image-keyboard-response","97","125127","0.0-13.0-0.3-1.23","37zoowefy5","","37zoowefy5","""2024-11-12T20:35:01.544Z""","2039","materials/imgs/D49.png","arrowright","","[""materials/imgs/D24.png"",""materials/imgs/D32.png""]","false","random","","",""
"","","","","","html-keyboard-response","98","125629","0.0-13.0-0.3-0.24","37zoowefy5","","37zoowefy5","""2024-11-12T20:35:01.544Z""","null","+","null","","","","","","",""
"","","","","","image-keyboard-response","99","126840","0.0-13.0-0.3-1.24","37zoowefy5","","37zoowefy5","""2024-11-12T20:35:01.544Z""","1209","materials/imgs/D49.png","arrowright","","[""materials/imgs/D68.png"",""materials/imgs/D105.png""]","false","random","","",""
"","","","","","html-keyboard-response","100","127342","0.0-13.0-0.3-0.25","37zoowefy5","","37zoowefy5","""2024-11-12T20:35:01.544Z""","null","+","null","","","","","","",""
"","","","","","image-keyboard-response","101","128099","0.0-13.0-0.3-1.25","37zoowefy5","","37zoowefy5","""2024-11-12T20:35:01.544Z""","755","materials/imgs/D16.png","arrowleft","","[""materials/imgs/D22.png"",""materials/imgs/D81.png""]","false","random","","",""
"","","","","","html-keyboard-response","102","128603","0.0-13.0-0.3-0.26","37zoowefy5","","37zoowefy5","""2024-11-12T20:35:01.544Z""","null","+","null","","","","","","",""
"","","","","","image-keyboard-response","103","129664","0.0-13.0-0.3-1.26","37zoowefy5","","37zoowefy5","""2024-11-12T20:35:01.544Z""","1059","materials/imgs/D4.png","arrowleft","","[""materials/imgs/D37.png"",""materials/imgs/D19.png""]","false","random","","",""
"","","","","","html-keyboard-response","104","130167","0.0-13.0-0.3-0.27","37zoowefy5","","37zoowefy5","""2024-11-12T20:35:01.544Z""","null","+","null","","","","","","",""
"","","","","","image-keyboard-response","105","131243","0.0-13.0-0.3-1.27","37zoowefy5","","37zoowefy5","""2024-11-12T20:35:01.544Z""","1074","materials/imgs/D4.png","arrowleft","","[""materials/imgs/D49.png"",""materials/imgs/D11.png""]","false","random","","",""
"","","","","","html-keyboard-response","106","131747","0.0-13.0-1.3-0.3","37zoowefy5","","37zoowefy5","""2024-11-12T20:35:01.544Z""","null","+","null","","","","","","",""
"","","","","","image-keyboard-response","107","132303","0.0-13.0-1.3-1.3","37zoowefy5","","37zoowefy5","""2024-11-12T20:35:01.544Z""","554","materials/imgs/D18.png","arrowright","","[""materials/imgs/D8.png"",""materials/imgs/D18.png""]","","check","materials/imgs/D18.png","1","true"
"","","","","","html-keyboard-response","108","132806","0.0-13.0-2.3-0.6","37zoowefy5","","37zoowefy5","""2024-11-12T20:35:01.544Z""","null","+","null","","","","","","",""
"","","","","","image-keyboard-response","109","133623","0.0-13.0-2.3-1.6","37zoowefy5","","37zoowefy5","""2024-11-12T20:35:01.544Z""","815","materials/imgs/D75.png","arrowleft","","[""materials/imgs/D96.png"",""materials/imgs/D4.png""]","false","validation","","",""
"","","","","","html-keyboard-response","110","134127","0.0-13.0-2.3-0.7","37zoowefy5","","37zoowefy5","""2024-11-12T20:35:01.544Z""","null","+","null","","","","","","",""
"","","","","","image-keyboard-response","111","136310","0.0-13.0-2.3-1.7","37zoowefy5","","37zoowefy5","""2024-11-12T20:35:01.544Z""","2181","materials/imgs/D51.png","arrowleft","","[""materials/imgs/D92.png"",""materials/imgs/D20.png""]","false","validation","","",""
"","","","","","html-keyboard-response","112","136815","0.0-13.0-0.4-0.28","37zoowefy5","","37zoowefy5","""2024-11-12T20:35:01.544Z""","null","+","null","","","","","","",""
"","","","","","image-keyboard-response","113","137440","0.0-13.0-0.4-1.28","37zoowefy5","","37zoowefy5","""2024-11-12T20:35:01.544Z""","623","materials/imgs/D9.png","arrowleft","","[""materials/imgs/D80.png"",""materials/imgs/D14.png""]","false","random","","",""
"","","","","","html-keyboard-response","114","137945","0.0-13.0-0.4-0.29","37zoowefy5","","37zoowefy5","""2024-11-12T20:35:01.544Z""","null","+","null","","","","","","",""
"","","","","","image-keyboard-response","115","138926","0.0-13.0-0.4-1.29","37zoowefy5","","37zoowefy5","""2024-11-12T20:35:01.544Z""","978","materials/imgs/D37.png","arrowright","","[""materials/imgs/D68.png"",""materials/imgs/D103.png""]","false","random","","",""
"","","","","","html-keyboard-response","116","139428","0.0-13.0-0.4-0.30","37zoowefy5","","37zoowefy5","""2024-11-12T20:35:01.544Z""","null","+","null","","","","","","",""
"","","","","","image-keyboard-response","117","141076","0.0-13.0-0.4-1.30","37zoowefy5","","37zoowefy5","""2024-11-12T20:35:01.544Z""","1647","materials/imgs/D80.png","arrowleft","","[""materials/imgs/D103.png"",""materials/imgs/D74.png""]","false","random","","",""
"","","","","","html-keyboard-response","118","141577","0.0-13.0-0.4-0.31","37zoowefy5","","37zoowefy5","""2024-11-12T20:35:01.544Z""","null","+","null","","","","","","",""
"","","","","","image-keyboard-response","119","142678","0.0-13.0-0.4-1.31","37zoowefy5","","37zoowefy5","""2024-11-12T20:35:01.544Z""","1099","materials/imgs/D104.png","arrowleft","","[""materials/imgs/D19.png"",""materials/imgs/D48.png""]","false","random","","",""
"","","","","","html-keyboard-response","120","143180","0.0-13.0-0.4-0.32","37zoowefy5","","37zoowefy5","""2024-11-12T20:35:01.544Z""","null","+","null","","","","","","",""
"","","","","","image-keyboard-response","121","144120","0.0-13.0-0.4-1.32","37zoowefy5","","37zoowefy5","""2024-11-12T20:35:01.544Z""","938","materials/imgs/D78.png","arrowright","","[""materials/imgs/D1.png"",""materials/imgs/D35.png""]","false","random","","",""
"","","","","","html-keyboard-response","122","144622","0.0-13.0-0.4-0.33","37zoowefy5","","37zoowefy5","""2024-11-12T20:35:01.544Z""","null","+","null","","","","","","",""
"","","","","","image-keyboard-response","123","145471","0.0-13.0-0.4-1.33","37zoowefy5","","37zoowefy5","""2024-11-12T20:35:01.544Z""","847","materials/imgs/D75.png","arrowleft","","[""materials/imgs/D46.png"",""materials/imgs/D57.png""]","false","random","","",""
"","","","","","html-keyboard-response","124","145975","0.0-13.0-0.4-0.34","37zoowefy5","","37zoowefy5","""2024-11-12T20:35:01.544Z""","null","+","null","","","","","","",""
"","","","","","image-keyboard-response","125","147236","0.0-13.0-0.4-1.34","37zoowefy5","","37zoowefy5","""2024-11-12T20:35:01.544Z""","1259","materials/imgs/D53.png","arrowleft","","[""materials/imgs/D47.png"",""materials/imgs/D18.png""]","false","random","","",""
"","","","","","html-keyboard-response","126","147740","0.0-13.0-1.4-0.4","37zoowefy5","","37zoowefy5","""2024-11-12T20:35:01.544Z""","null","+","null","","","","","","",""
"","","","","","image-keyboard-response","127","148355","0.0-13.0-1.4-1.4","37zoowefy5","","37zoowefy5","""2024-11-12T20:35:01.544Z""","613","materials/imgs/D26.png","arrowleft","","[""materials/imgs/D26.png"",""materials/imgs/D46.png""]","","check","materials/imgs/D26.png","0","true"
"","","","","","html-keyboard-response","128","148856","0.0-13.0-2.4-0.8","37zoowefy5","","37zoowefy5","""2024-11-12T20:35:01.544Z""","null","+","null","","","","","","",""
"","","","","","image-keyboard-response","129","149604","0.0-13.0-2.4-1.8","37zoowefy5","","37zoowefy5","""2024-11-12T20:35:01.544Z""","746","materials/imgs/D16.png","arrowleft","","[""materials/imgs/D52.png"",""materials/imgs/D25.png""]","false","validation","","",""
"","","","","","html-keyboard-response","130","150106","0.0-13.0-2.4-0.9","37zoowefy5","","37zoowefy5","""2024-11-12T20:35:01.544Z""","null","+","null","","","","","","",""
"","","","","","image-keyboard-response","131","151577","0.0-13.0-2.4-1.9","37zoowefy5","","37zoowefy5","""2024-11-12T20:35:01.544Z""","1469","materials/imgs/D92.png","arrowleft","","[""materials/imgs/D56.png"",""materials/imgs/D77.png""]","false","validation","","",""
"","","","","","html-button-response","132","155976","0.0-14.0","37zoowefy5","","37zoowefy5","""2024-11-12T20:35:01.544Z""","4398","You have completed 25% of the trials. Please click 'Continue' when you are ready proceed.","0","","","","","","",""
"","","","","","html-keyboard-response","133","156480","0.0-15.0-0.0-0.0","37zoowefy5","","37zoowefy5","""2024-11-12T20:35:01.544Z""","null","+","null","","","","","","",""
"","","","","","image-keyboard-response","134","157834","0.0-15.0-0.0-1.0","37zoowefy5","","37zoowefy5","""2024-11-12T20:35:01.544Z""","1352","materials/imgs/D25.png","arrowright","","[""materials/imgs/D35.png"",""materials/imgs/D68.png""]","false","random","","",""
"","","","","","html-keyboard-response","135","158337","0.0-15.0-0.0-0.1","37zoowefy5","","37zoowefy5","""2024-11-12T20:35:01.544Z""","null","+","null","","","","","","",""
"","","","","","image-keyboard-response","136","158921","0.0-15.0-0.0-1.1","37zoowefy5","","37zoowefy5","""2024-11-12T20:35:01.544Z""","582","materials/imgs/D94.png","arrowleft","","[""materials/imgs/D32.png"",""materials/imgs/D20.png""]","false","random","","",""
"","","","","","html-keyboard-response","137","159423","0.0-15.0-0.0-0.2","37zoowefy5","","37zoowefy5","""2024-11-12T20:35:01.544Z""","null","+","null","","","","","","",""
"","","","","","image-keyboard-response","138","159967","0.0-15.0-0.0-1.2","37zoowefy5","","37zoowefy5","""2024-11-12T20:35:01.544Z""","541","materials/imgs/D79.png","arrowleft","","[""materials/imgs/D14.png"",""materials/imgs/D36.png""]","false","random","","",""
"","","","","","html-keyboard-response","139","160470","0.0-15.0-0.0-0.3","37zoowefy5","","37zoowefy5","""2024-11-12T20:35:01.544Z""","null","+","null","","","","","","",""
"","","","","","image-keyboard-response","140","161008","0.0-15.0-0.0-1.3","37zoowefy5","","37zoowefy5","""2024-11-12T20:35:01.544Z""","537","materials/imgs/D75.png","arrowleft","","[""materials/imgs/D96.png"",""materials/imgs/D53.png""]","false","random","","",""
"","","","","","html-keyboard-response","141","161512","0.0-15.0-0.0-0.4","37zoowefy5","","37zoowefy5","""2024-11-12T20:35:01.544Z""","null","+","null","","","","","","",""
"","","","","","image-keyboard-response","142","162013","0.0-15.0-0.0-1.4","37zoowefy5","","37zoowefy5","""2024-11-12T20:35:01.544Z""","498","materials/imgs/D92.png","arrowleft","","[""materials/imgs/D9.png"",""materials/imgs/D6.png""]","true","random","","",""
"","","","","","html-keyboard-response","143","166164","0.0-15.0-0.0-2.4-0.4","37zoowefy5","","37zoowefy5","""2024-11-12T20:35:01.544Z""","4150","<p><strong>You're going too fast.</strong><p>Please slow down and assess each triplet.<p>Press 'y' to continue.</p></p>","y","","","","","","",""
"","","","","","html-keyboard-response","144","166665","0.0-15.0-0.0-0.5","37zoowefy5","","37zoowefy5","""2024-11-12T20:35:01.544Z""","null","+","null","","","","","","",""
"","","","","","image-keyboard-response","145","167870","0.0-15.0-0.0-1.5","37zoowefy5","","37zoowefy5","""2024-11-12T20:35:01.544Z""","1202","materials/imgs/D85.png","arrowleft","","[""materials/imgs/D34.png"",""materials/imgs/D55.png""]","false","random","","",""
"","","","","","html-keyboard-response","146","168374","0.0-15.0-0.0-0.6","37zoowefy5","","37zoowefy5","""2024-11-12T20:35:01.544Z""","null","+","null","","","","","","",""
"","","","","","image-keyboard-response","147","169373","0.0-15.0-0.0-1.6","37zoowefy5","","37zoowefy5","""2024-11-12T20:35:01.544Z""","997","materials/imgs/D48.png","arrowleft","","[""materials/imgs/D32.png"",""materials/imgs/D104.png""]","false","random","","",""
"","","","","","html-keyboard-response","148","169875","0.0-15.0-1.0-0.0","37zoowefy5","","37zoowefy5","""2024-11-12T20:35:01.544Z""","null","+","null","","","","","","",""
"","","","","","image-keyboard-response","149","170490","0.0-15.0-1.0-1.0","37zoowefy5","","37zoowefy5","""2024-11-12T20:35:01.544Z""","613","materials/imgs/D26.png","arrowleft","","[""materials/imgs/D26.png"",""materials/imgs/D46.png""]","","check","materials/imgs/D26.png","0","true"
"","","","","","html-keyboard-response","150","170995","0.0-15.0-2.0-0.0","37zoowefy5","","37zoowefy5","""2024-11-12T20:35:01.544Z""","null","+","null","","","","","","",""
"","","","","","image-keyboard-response","151","171873","0.0-15.0-2.0-1.0","37zoowefy5","","37zoowefy5","""2024-11-12T20:35:01.544Z""","876","materials/imgs/D35.png","arrowleft","","[""materials/imgs/D83.png"",""materials/imgs/D24.png""]","false","validation","","",""
"","","","","","html-keyboard-response","152","172376","0.0-15.0-2.0-0.1","37zoowefy5","","37zoowefy5","""2024-11-12T20:35:01.544Z""","null","+","null","","","","","","",""
"","","","","","image-keyboard-response","153","173129","0.0-15.0-2.0-1.1","37zoowefy5","","37zoowefy5","""2024-11-12T20:35:01.544Z""","750","materials/imgs/D105.png","arrowleft","","[""materials/imgs/D106.png"",""materials/imgs/D52.png""]","false","validation","","",""
"","","","","","html-keyboard-response","154","173632","0.0-15.0-0.1-0.7","37zoowefy5","","37zoowefy5","""2024-11-12T20:35:01.544Z""","null","+","null","","","","","","",""
"","","","","","image-keyboard-response","155","174521","0.0-15.0-0.1-1.7","37zoowefy5","","37zoowefy5","""2024-11-12T20:35:01.544Z""","886","materials/imgs/D56.png","arrowright","","[""materials/imgs/D106.png"",""materials/imgs/D24.png""]","false","random","","",""
"","","","","","html-keyboard-response","156","175022","0.0-15.0-0.1-0.8","37zoowefy5","","37zoowefy5","""2024-11-12T20:35:01.544Z""","null","+","null","","","","","","",""
"","","","","","image-keyboard-response","157","175764","0.0-15.0-0.1-1.8","37zoowefy5","","37zoowefy5","""2024-11-12T20:35:01.544Z""","739","materials/imgs/D51.png","arrowright","","[""materials/imgs/D49.png"",""materials/imgs/D11.png""]","false","random","","",""
"","","","","","html-keyboard-response","158","176267","0.0-15.0-0.1-0.9","37zoowefy5","","37zoowefy5","""2024-11-12T20:35:01.544Z""","null","+","null","","","","","","",""
"","","","","","image-keyboard-response","159","177130","0.0-15.0-0.1-1.9","37zoowefy5","","37zoowefy5","""2024-11-12T20:35:01.544Z""","861","materials/imgs/D105.png","arrowleft","","[""materials/imgs/D22.png"",""materials/imgs/D21.png""]","false","random","","",""
"","","","","","html-keyboard-response","160","177634","0.0-15.0-0.1-0.10","37zoowefy5","","37zoowefy5","""2024-11-12T20:35:01.544Z""","null","+","null","","","","","","",""
"","","","","","image-keyboard-response","161","178755","0.0-15.0-0.1-1.10","37zoowefy5","","37zoowefy5","""2024-11-12T20:35:01.544Z""","1119","materials/imgs/D46.png","arrowleft","","[""materials/imgs/D37.png"",""materials/imgs/D106.png""]","false","random","","",""
"","","","","","html-keyboard-response","162","179257","0.0-15.0-0.1-0.11","37zoowefy5","","37zoowefy5","""2024-11-12T20:35:01.544Z""","null","+","null","","","","","","",""
"","","","","","image-keyboard-response","163","180295","0.0-15.0-0.1-1.11","37zoowefy5","","37zoowefy5","""2024-11-12T20:35:01.544Z""","1036","materials/imgs/D37.png","arrowright","","[""materials/imgs/D9.png"",""materials/imgs/D65.png""]","false","random","","",""
"","","","","","html-keyboard-response","164","180799","0.0-15.0-0.1-0.12","37zoowefy5","","37zoowefy5","""2024-11-12T20:35:01.544Z""","null","+","null","","","","","","",""
"","","","","","image-keyboard-response","165","182005","0.0-15.0-0.1-1.12","37zoowefy5","","37zoowefy5","""2024-11-12T20:35:01.544Z""","1204","materials/imgs/D46.png","arrowright","","[""materials/imgs/D25.png"",""materials/imgs/D81.png""]","false","random","","",""
"","","","","","html-keyboard-response","166","182508","0.0-15.0-0.1-0.13","37zoowefy5","","37zoowefy5","""2024-11-12T20:35:01.544Z""","null","+","null","","","","","","",""
"","","","","","image-keyboard-response","167","183280","0.0-15.0-0.1-1.13","37zoowefy5","","37zoowefy5","""2024-11-12T20:35:01.544Z""","770","materials/imgs/D68.png","arrowleft","","[""materials/imgs/D17.png"",""materials/imgs/D19.png""]","false","random","","",""
"","","","","","html-keyboard-response","168","183781","0.0-15.0-1.1-0.1","37zoowefy5","","37zoowefy5","""2024-11-12T20:35:01.544Z""","null","+","null","","","","","","",""
"","","","","","image-keyboard-response","169","184346","0.0-15.0-1.1-1.1","37zoowefy5","","37zoowefy5","""2024-11-12T20:35:01.544Z""","563","materials/imgs/D53.png","arrowright","","[""materials/imgs/D64.png"",""materials/imgs/D53.png""]","","check","materials/imgs/D53.png","1","true"
"","","","","","html-keyboard-response","170","184849","0.0-15.0-2.1-0.2","37zoowefy5","","37zoowefy5","""2024-11-12T20:35:01.544Z""","null","+","null","","","","","","",""
"","","","","","image-keyboard-response","171","185632","0.0-15.0-2.1-1.2","37zoowefy5","","37zoowefy5","""2024-11-12T20:35:01.544Z""","781","materials/imgs/D81.png","arrowright","","[""materials/imgs/D105.png"",""materials/imgs/D24.png""]","false","validation","","",""
"","","","","","html-keyboard-response","172","186134","0.0-15.0-2.1-0.3","37zoowefy5","","37zoowefy5","""2024-11-12T20:35:01.544Z""","null","+","null","","","","","","",""
"","","","","","image-keyboard-response","173","186809","0.0-15.0-2.1-1.3","37zoowefy5","","37zoowefy5","""2024-11-12T20:35:01.544Z""","673","materials/imgs/D19.png","arrowleft","","[""materials/imgs/D111.png"",""materials/imgs/D56.png""]","false","validation","","",""
"","","","","","html-keyboard-response","174","187312","0.0-15.0-0.2-0.14","37zoowefy5","","37zoowefy5","""2024-11-12T20:35:01.544Z""","null","+","null","","","","","","",""
"","","","","","image-keyboard-response","175","187872","0.0-15.0-0.2-1.14","37zoowefy5","","37zoowefy5","""2024-11-12T20:35:01.544Z""","559","materials/imgs/D52.png","arrowleft","","[""materials/imgs/D36.png"",""materials/imgs/D101.png""]","false","random","","",""
"","","","","","html-keyboard-response","176","188376","0.0-15.0-0.2-0.15","37zoowefy5","","37zoowefy5","""2024-11-12T20:35:01.544Z""","null","+","null","","","","","","",""
"","","","","","image-keyboard-response","177","189119","0.0-15.0-0.2-1.15","37zoowefy5","","37zoowefy5","""2024-11-12T20:35:01.544Z""","741","materials/imgs/D56.png","arrowleft","","[""materials/imgs/D74.png"",""materials/imgs/D87.png""]","false","random","","",""
"","","","","","html-keyboard-response","178","189625","0.0-15.0-0.2-0.16","37zoowefy5","","37zoowefy5","""2024-11-12T20:35:01.544Z""","null","+","null","","","","","","",""
"","","","","","image-keyboard-response","179","190837","0.0-15.0-0.2-1.16","37zoowefy5","","37zoowefy5","""2024-11-12T20:35:01.544Z""","1210","materials/imgs/D66.png","arrowright","","[""materials/imgs/D25.png"",""materials/imgs/D19.png""]","false","random","","",""
"","","","","","html-keyboard-response","180","191342","0.0-15.0-0.2-0.17","37zoowefy5","","37zoowefy5","""2024-11-12T20:35:01.544Z""","null","+","null","","","","","","",""
"","","","","","image-keyboard-response","181","191936","0.0-15.0-0.2-1.17","37zoowefy5","","37zoowefy5","""2024-11-12T20:35:01.544Z""","586","materials/imgs/D56.png","arrowleft","","[""materials/imgs/D1.png"",""materials/imgs/D87.png""]","false","random","","",""
"","","","","","html-keyboard-response","182","192439","0.0-15.0-0.2-0.18","37zoowefy5","","37zoowefy5","""2024-11-12T20:35:01.544Z""","null","+","null","","","","","","",""
"","","","","","image-keyboard-response","183","193187","0.0-15.0-0.2-1.18","37zoowefy5","","37zoowefy5","""2024-11-12T20:35:01.544Z""","746","materials/imgs/D34.png","arrowright","","[""materials/imgs/D66.png"",""materials/imgs/D103.png""]","false","random","","",""
"","","","","","html-keyboard-response","184","193692","0.0-15.0-0.2-0.19","37zoowefy5","","37zoowefy5","""2024-11-12T20:35:01.544Z""","null","+","null","","","","","","",""
"","","","","","image-keyboard-response","185","194391","0.0-15.0-0.2-1.19","37zoowefy5","","37zoowefy5","""2024-11-12T20:35:01.544Z""","697","materials/imgs/D85.png","arrowright","","[""materials/imgs/D46.png"",""materials/imgs/D11.png""]","false","random","","",""
"","","","","","html-keyboard-response","186","194894","0.0-15.0-0.2-0.20","37zoowefy5","","37zoowefy5","""2024-11-12T20:35:01.544Z""","null","+","null","","","","","","",""
"","","","","","image-keyboard-response","187","195525","0.0-15.0-0.2-1.20","37zoowefy5","","37zoowefy5","""2024-11-12T20:35:01.544Z""","630","materials/imgs/D22.png","arrowleft","","[""materials/imgs/D36.png"",""materials/imgs/D51.png""]","false","random","","",""
"","","","","","html-keyboard-response","188","196030","0.0-15.0-1.2-0.2","37zoowefy5","","37zoowefy5","""2024-11-12T20:35:01.544Z""","null","+","null","","","","","","",""
"","","","","","image-keyboard-response","189","196544","0.0-15.0-1.2-1.2","37zoowefy5","","37zoowefy5","""2024-11-12T20:35:01.544Z""","513","materials/imgs/D106.png","arrowleft","","[""materials/imgs/D106.png"",""materials/imgs/D101.png""]","","check","materials/imgs/D106.png","0","true"
"","","","","","html-keyboard-response","190","197049","0.0-15.0-2.2-0.4","37zoowefy5","","37zoowefy5","""2024-11-12T20:35:01.544Z""","null","+","null","","","","","","",""
"","","","","","image-keyboard-response","191","197640","0.0-15.0-2.2-1.4","37zoowefy5","","37zoowefy5","""2024-11-12T20:35:01.544Z""","588","materials/imgs/D11.png","arrowleft","","[""materials/imgs/D83.png"",""materials/imgs/D48.png""]","false","validation","","",""
"","","","","","html-keyboard-response","192","198142","0.0-15.0-2.2-0.5","37zoowefy5","","37zoowefy5","""2024-11-12T20:35:01.544Z""","null","+","null","","","","","","",""
"","","","","","image-keyboard-response","193","198799","0.0-15.0-2.2-1.5","37zoowefy5","","37zoowefy5","""2024-11-12T20:35:01.544Z""","655","materials/imgs/D3.png","arrowleft","","[""materials/imgs/D79.png"",""materials/imgs/D48.png""]","false","validation","","",""
"","","","","","html-keyboard-response","194","199301","0.0-15.0-0.3-0.21","37zoowefy5","","37zoowefy5","""2024-11-12T20:35:01.544Z""","null","+","null","","","","","","",""
"","","","","","image-keyboard-response","195","199993","0.0-15.0-0.3-1.21","37zoowefy5","","37zoowefy5","""2024-11-12T20:35:01.544Z""","689","materials/imgs/D83.png","arrowright","","[""materials/imgs/D64.png"",""materials/imgs/D8.png""]","false","random","","",""
"","","","","","html-keyboard-response","196","200497","0.0-15.0-0.3-0.22","37zoowefy5","","37zoowefy5","""2024-11-12T20:35:01.544Z""","null","+","null","","","","","","",""
"","","","","","image-keyboard-response","197","201943","0.0-15.0-0.3-1.22","37zoowefy5","","37zoowefy5","""2024-11-12T20:35:01.544Z""","1444","materials/imgs/D53.png","arrowright","","[""materials/imgs/D66.png"",""materials/imgs/D92.png""]","false","random","","",""
"","","","","","html-keyboard-response","198","202445","0.0-15.0-0.3-0.23","37zoowefy5","","37zoowefy5","""2024-11-12T20:35:01.544Z""","null","+","null","","","","","","",""
"","","","","","image-keyboard-response","199","203322","0.0-15.0-0.3-1.23","37zoowefy5","","37zoowefy5","""2024-11-12T20:35:01.544Z""","877","materials/imgs/D8.png","arrowright","","[""materials/imgs/D55.png"",""materials/imgs/D65.png""]","false","random","","",""
"","","","","","html-keyboard-response","200","203825","0.0-15.0-0.3-0.24","37zoowefy5","","37zoowefy5","""2024-11-12T20:35:01.544Z""","null","+","null","","","","","","",""
"","","","","","image-keyboard-response","201","205028","0.0-15.0-0.3-1.24","37zoowefy5","","37zoowefy5","""2024-11-12T20:35:01.544Z""","1201","materials/imgs/D65.png","arrowright","","[""materials/imgs/D53.png"",""materials/imgs/D21.png""]","false","random","","",""
"","","","","","html-keyboard-response","202","205534","0.0-15.0-0.3-0.25","37zoowefy5","","37zoowefy5","""2024-11-12T20:35:01.544Z""","null","+","null","","","","","","",""
"","","","","","image-keyboard-response","203","206093","0.0-15.0-0.3-1.25","37zoowefy5","","37zoowefy5","""2024-11-12T20:35:01.544Z""","558","materials/imgs/D68.png","arrowleft","","[""materials/imgs/D79.png"",""materials/imgs/D104.png""]","false","random","","",""
"","","","","","html-keyboard-response","204","206595","0.0-15.0-0.3-0.26","37zoowefy5","","37zoowefy5","""2024-11-12T20:35:01.544Z""","null","+","null","","","","","","",""
"","","","","","image-keyboard-response","205","207615","0.0-15.0-0.3-1.26","37zoowefy5","","37zoowefy5","""2024-11-12T20:35:01.544Z""","1018","materials/imgs/D47.png","arrowright","","[""materials/imgs/D51.png"",""materials/imgs/D102.png""]","false","random","","",""
"","","","","","html-keyboard-response","206","208119","0.0-15.0-0.3-0.27","37zoowefy5","","37zoowefy5","""2024-11-12T20:35:01.544Z""","null","+","null","","","","","","",""
"","","","","","image-keyboard-response","207","208758","0.0-15.0-0.3-1.27","37zoowefy5","","37zoowefy5","""2024-11-12T20:35:01.544Z""","636","materials/imgs/D8.png","arrowleft","","[""materials/imgs/D74.png"",""materials/imgs/D57.png""]","false","random","","",""
"","","","","","html-keyboard-response","208","209261","0.0-15.0-1.3-0.3","37zoowefy5","","37zoowefy5","""2024-11-12T20:35:01.544Z""","null","+","null","","","","","","",""
"","","","","","image-keyboard-response","209","209906","0.0-15.0-1.3-1.3","37zoowefy5","","37zoowefy5","""2024-11-12T20:35:01.544Z""","643","materials/imgs/D18.png","arrowright","","[""materials/imgs/D8.png"",""materials/imgs/D18.png""]","","check","materials/imgs/D18.png","1","true"
"","","","","","html-keyboard-response","210","210408","0.0-15.0-2.3-0.6","37zoowefy5","","37zoowefy5","""2024-11-12T20:35:01.544Z""","null","+","null","","","","","","",""
"","","","","","image-keyboard-response","211","211893","0.0-15.0-2.3-1.6","37zoowefy5","","37zoowefy5","""2024-11-12T20:35:01.544Z""","1483","materials/imgs/D51.png","arrowright","","[""materials/imgs/D92.png"",""materials/imgs/D20.png""]","false","validation","","",""
"","","","","","html-keyboard-response","212","212395","0.0-15.0-2.3-0.7","37zoowefy5","","37zoowefy5","""2024-11-12T20:35:01.544Z""","null","+","null","","","","","","",""
"","","","","","image-keyboard-response","213","213269","0.0-15.0-2.3-1.7","37zoowefy5","","37zoowefy5","""2024-11-12T20:35:01.544Z""","872","materials/imgs/D106.png","arrowright","","[""materials/imgs/D57.png"",""materials/imgs/D18.png""]","false","validation","","",""
"","","","","","html-keyboard-response","214","213773","0.0-15.0-0.4-0.28","37zoowefy5","","37zoowefy5","""2024-11-12T20:35:01.544Z""","null","+","null","","","","","","",""
"","","","","","image-keyboard-response","215","215056","0.0-15.0-0.4-1.28","37zoowefy5","","37zoowefy5","""2024-11-12T20:35:01.544Z""","1282","materials/imgs/D106.png","arrowleft","","[""materials/imgs/D17.png"",""materials/imgs/D77.png""]","false","random","","",""
"","","","","","html-keyboard-response","216","215558","0.0-15.0-0.4-0.29","37zoowefy5","","37zoowefy5","""2024-11-12T20:35:01.544Z""","null","+","null","","","","","","",""
"","","","","","image-keyboard-response","217","216308","0.0-15.0-0.4-1.29","37zoowefy5","","37zoowefy5","""2024-11-12T20:35:01.544Z""","748","materials/imgs/D51.png","arrowright","","[""materials/imgs/D14.png"",""materials/imgs/D68.png""]","false","random","","",""
"","","","","","html-keyboard-response","218","216809","0.0-15.0-0.4-0.30","37zoowefy5","","37zoowefy5","""2024-11-12T20:35:01.544Z""","null","+","null","","","","","","",""
"","","","","","image-keyboard-response","219","217653","0.0-15.0-0.4-1.30","37zoowefy5","","37zoowefy5","""2024-11-12T20:35:01.544Z""","841","materials/imgs/D14.png","arrowleft","","[""materials/imgs/D9.png"",""materials/imgs/D22.png""]","false","random","","",""
"","","","","","html-keyboard-response","220","218157","0.0-15.0-0.4-0.31","37zoowefy5","","37zoowefy5","""2024-11-12T20:35:01.544Z""","null","+","null","","","","","","",""
"","","","","","image-keyboard-response","221","219509","0.0-15.0-0.4-1.31","37zoowefy5","","37zoowefy5","""2024-11-12T20:35:01.544Z""","1350","materials/imgs/D26.png","arrowleft","","[""materials/imgs/D35.png"",""materials/imgs/D21.png""]","false","random","","",""
"","","","","","html-keyboard-response","222","220010","0.0-15.0-0.4-0.32","37zoowefy5","","37zoowefy5","""2024-11-12T20:35:01.544Z""","null","+","null","","","","","","",""
"","","","","","image-keyboard-response","223","220774","0.0-15.0-0.4-1.32","37zoowefy5","","37zoowefy5","""2024-11-12T20:35:01.544Z""","762","materials/imgs/D18.png","arrowright","","[""materials/imgs/D32.png"",""materials/imgs/D11.png""]","false","random","","",""
"","","","","","html-keyboard-response","224","221277","0.0-15.0-0.4-0.33","37zoowefy5","","37zoowefy5","""2024-11-12T20:35:01.544Z""","null","+","null","","","","","","",""
"","","","","","image-keyboard-response","225","222142","0.0-15.0-0.4-1.33","37zoowefy5","","37zoowefy5","""2024-11-12T20:35:01.544Z""","863","materials/imgs/D35.png","arrowright","","[""materials/imgs/D85.png"",""materials/imgs/D1.png""]","false","random","","",""
"","","","","","html-keyboard-response","226","222647","0.0-15.0-0.4-0.34","37zoowefy5","","37zoowefy5","""2024-11-12T20:35:01.544Z""","null","+","null","","","","","","",""
"","","","","","image-keyboard-response","227","223223","0.0-15.0-0.4-1.34","37zoowefy5","","37zoowefy5","""2024-11-12T20:35:01.544Z""","575","materials/imgs/D19.png","arrowright","","[""materials/imgs/D29.png"",""materials/imgs/D84.png""]","false","random","","",""
"","","","","","html-keyboard-response","228","223727","0.0-15.0-1.4-0.4","37zoowefy5","","37zoowefy5","""2024-11-12T20:35:01.544Z""","null","+","null","","","","","","",""
"","","","","","image-keyboard-response","229","224345","0.0-15.0-1.4-1.4","37zoowefy5","","37zoowefy5","""2024-11-12T20:35:01.544Z""","616","materials/imgs/D78.png","arrowright","","[""materials/imgs/D76.png"",""materials/imgs/D78.png""]","","check","materials/imgs/D78.png","1","true"
"","","","","","html-keyboard-response","230","224850","0.0-15.0-2.4-0.8","37zoowefy5","","37zoowefy5","""2024-11-12T20:35:01.544Z""","null","+","null","","","","","","",""
"","","","","","image-keyboard-response","231","225929","0.0-15.0-2.4-1.8","37zoowefy5","","37zoowefy5","""2024-11-12T20:35:01.544Z""","1077","materials/imgs/D79.png","arrowleft","","[""materials/imgs/D51.png"",""materials/imgs/D64.png""]","false","validation","","",""
"","","","","","html-keyboard-response","232","226433","0.0-15.0-2.4-0.9","37zoowefy5","","37zoowefy5","""2024-11-12T20:35:01.544Z""","null","+","null","","","","","","",""
"","","","","","image-keyboard-response","233","227487","0.0-15.0-2.4-1.9","37zoowefy5","","37zoowefy5","""2024-11-12T20:35:01.544Z""","1054","materials/imgs/D46.png","arrowleft","","[""materials/imgs/D92.png"",""materials/imgs/D77.png""]","false","validation","","",""
"","","","","","html-button-response","234","248694","0.0-16.0","37zoowefy5","","37zoowefy5","""2024-11-12T20:35:01.544Z""","21205","You have completed 50% of the trials. Please click 'Continue' when you are ready proceed.","0","","","","","","",""
"","","","","","html-keyboard-response","235","249197","0.0-17.0-0.0-0.0","37zoowefy5","","37zoowefy5","""2024-11-12T20:35:01.544Z""","null","+","null","","","","","","",""
"","","","","","image-keyboard-response","236","250447","0.0-17.0-0.0-1.0","37zoowefy5","","37zoowefy5","""2024-11-12T20:35:01.544Z""","1248","materials/imgs/D26.png","arrowleft","","[""materials/imgs/D87.png"",""materials/imgs/D17.png""]","false","random","","",""
"","","","","","html-keyboard-response","237","250951","0.0-17.0-0.0-0.1","37zoowefy5","","37zoowefy5","""2024-11-12T20:35:01.544Z""","null","+","null","","","","","","",""
"","","","","","image-keyboard-response","238","252215","0.0-17.0-0.0-1.1","37zoowefy5","","37zoowefy5","""2024-11-12T20:35:01.544Z""","1262","materials/imgs/D21.png","arrowleft","","[""materials/imgs/D81.png"",""materials/imgs/D106.png""]","false","random","","",""
"","","","","","html-keyboard-response","239","252717","0.0-17.0-0.0-0.2","37zoowefy5","","37zoowefy5","""2024-11-12T20:35:01.544Z""","null","+","null","","","","","","",""
"","","","","","image-keyboard-response","240","253836","0.0-17.0-0.0-1.2","37zoowefy5","","37zoowefy5","""2024-11-12T20:35:01.544Z""","1116","materials/imgs/D25.png","arrowleft","","[""materials/imgs/D105.png"",""materials/imgs/D20.png""]","false","random","","",""
"","","","","","html-keyboard-response","241","254338","0.0-17.0-0.0-0.3","37zoowefy5","","37zoowefy5","""2024-11-12T20:35:01.544Z""","null","+","null","","","","","","",""
"","","","","","image-keyboard-response","242","255168","0.0-17.0-0.0-1.3","37zoowefy5","","37zoowefy5","""2024-11-12T20:35:01.544Z""","828","materials/imgs/D85.png","arrowright","","[""materials/imgs/D56.png"",""materials/imgs/D68.png""]","false","random","","",""
"","","","","","html-keyboard-response","243","255672","0.0-17.0-0.0-0.4","37zoowefy5","","37zoowefy5","""2024-11-12T20:35:01.544Z""","null","+","null","","","","","","",""
"","","","","","image-keyboard-response","244","256508","0.0-17.0-0.0-1.4","37zoowefy5","","37zoowefy5","""2024-11-12T20:35:01.544Z""","834","materials/imgs/D111.png","arrowleft","","[""materials/imgs/D55.png"",""materials/imgs/D106.png""]","false","random","","",""
"","","","","","html-keyboard-response","245","257011","0.0-17.0-0.0-0.5","37zoowefy5","","37zoowefy5","""2024-11-12T20:35:01.544Z""","null","+","null","","","","","","",""
"","","","","","image-keyboard-response","246","257741","0.0-17.0-0.0-1.5","37zoowefy5","","37zoowefy5","""2024-11-12T20:35:01.544Z""","728","materials/imgs/D22.png","arrowleft","","[""materials/imgs/D57.png"",""materials/imgs/D102.png""]","false","random","","",""
"","","","","","html-keyboard-response","247","258243","0.0-17.0-0.0-0.6","37zoowefy5","","37zoowefy5","""2024-11-12T20:35:01.544Z""","null","+","null","","","","","","",""
"","","","","","image-keyboard-response","248","259071","0.0-17.0-0.0-1.6","37zoowefy5","","37zoowefy5","""2024-11-12T20:35:01.544Z""","826","materials/imgs/D20.png","arrowleft","","[""materials/imgs/D106.png"",""materials/imgs/D34.png""]","false","random","","",""
"","","","","","html-keyboard-response","249","259575","0.0-17.0-1.0-0.0","37zoowefy5","","37zoowefy5","""2024-11-12T20:35:01.544Z""","null","+","null","","","","","","",""
"","","","","","image-keyboard-response","250","260127","0.0-17.0-1.0-1.0","37zoowefy5","","37zoowefy5","""2024-11-12T20:35:01.544Z""","551","materials/imgs/D53.png","arrowright","","[""materials/imgs/D64.png"",""materials/imgs/D53.png""]","","check","materials/imgs/D53.png","1","true"
"","","","","","html-keyboard-response","251","260629","0.0-17.0-2.0-0.0","37zoowefy5","","37zoowefy5","""2024-11-12T20:35:01.544Z""","null","+","null","","","","","","",""
"","","","","","image-keyboard-response","252","261590","0.0-17.0-2.0-1.0","37zoowefy5","","37zoowefy5","""2024-11-12T20:35:01.544Z""","959","materials/imgs/D20.png","arrowleft","","[""materials/imgs/D84.png"",""materials/imgs/D85.png""]","false","validation","","",""
"","","","","","html-keyboard-response","253","262092","0.0-17.0-2.0-0.1","37zoowefy5","","37zoowefy5","""2024-11-12T20:35:01.544Z""","null","+","null","","","","","","",""
"","","","","","image-keyboard-response","254","262881","0.0-17.0-2.0-1.1","37zoowefy5","","37zoowefy5","""2024-11-12T20:35:01.544Z""","787","materials/imgs/D105.png","arrowleft","","[""materials/imgs/D106.png"",""materials/imgs/D52.png""]","false","validation","","",""
"","","","","","html-keyboard-response","255","263385","0.0-17.0-0.1-0.7","37zoowefy5","","37zoowefy5","""2024-11-12T20:35:01.544Z""","null","+","null","","","","","","",""
"","","","","","image-keyboard-response","256","264341","0.0-17.0-0.1-1.7","37zoowefy5","","37zoowefy5","""2024-11-12T20:35:01.544Z""","953","materials/imgs/D106.png","arrowleft","","[""materials/imgs/D8.png"",""materials/imgs/D65.png""]","false","random","","",""
"","","","","","html-keyboard-response","257","264844","0.0-17.0-0.1-0.8","37zoowefy5","","37zoowefy5","""2024-11-12T20:35:01.544Z""","null","+","null","","","","","","",""
"","","","","","image-keyboard-response","258","265510","0.0-17.0-0.1-1.8","37zoowefy5","","37zoowefy5","""2024-11-12T20:35:01.544Z""","664","materials/imgs/D17.png","arrowright","","[""materials/imgs/D81.png"",""materials/imgs/D53.png""]","false","random","","",""
"","","","","","html-keyboard-response","259","266015","0.0-17.0-0.1-0.9","37zoowefy5","","37zoowefy5","""2024-11-12T20:35:01.544Z""","null","+","null","","","","","","",""
"","","","","","image-keyboard-response","260","267386","0.0-17.0-0.1-1.9","37zoowefy5","","37zoowefy5","""2024-11-12T20:35:01.544Z""","1369","materials/imgs/D20.png","arrowright","","[""materials/imgs/D29.png"",""materials/imgs/D52.png""]","false","random","","",""
"","","","","","html-keyboard-response","261","267890","0.0-17.0-0.1-0.10","37zoowefy5","","37zoowefy5","""2024-11-12T20:35:01.544Z""","null","+","null","","","","","","",""
"","","","","","image-keyboard-response","262","268739","0.0-17.0-0.1-1.10","37zoowefy5","","37zoowefy5","""2024-11-12T20:35:01.544Z""","847","materials/imgs/D74.png","arrowleft","","[""materials/imgs/D76.png"",""materials/imgs/D14.png""]","false","random","","",""
"","","","","","html-keyboard-response","263","269242","0.0-17.0-0.1-0.11","37zoowefy5","","37zoowefy5","""2024-11-12T20:35:01.544Z""","null","+","null","","","","","","",""
"","","","","","image-keyboard-response","264","270483","0.0-17.0-0.1-1.11","37zoowefy5","","37zoowefy5","""2024-11-12T20:35:01.544Z""","1239","materials/imgs/D83.png","arrowleft","","[""materials/imgs/D18.png"",""materials/imgs/D8.png""]","false","random","","",""
"","","","","","html-keyboard-response","265","270986","0.0-17.0-0.1-0.12","37zoowefy5","","37zoowefy5","""2024-11-12T20:35:01.544Z""","null","+","null","","","","","","",""
"","","","","","image-keyboard-response","266","271667","0.0-17.0-0.1-1.12","37zoowefy5","","37zoowefy5","""2024-11-12T20:35:01.544Z""","679","materials/imgs/D103.png","arrowleft","","[""materials/imgs/D79.png"",""materials/imgs/D26.png""]","false","random","","",""
"","","","","","html-keyboard-response","267","272168","0.0-17.0-0.1-0.13","37zoowefy5","","37zoowefy5","""2024-11-12T20:35:01.544Z""","null","+","null","","","","","","",""
"","","","","","image-keyboard-response","268","272917","0.0-17.0-0.1-1.13","37zoowefy5","","37zoowefy5","""2024-11-12T20:35:01.544Z""","746","materials/imgs/D111.png","arrowright","","[""materials/imgs/D56.png"",""materials/imgs/D3.png""]","false","random","","",""
"","","","","","html-keyboard-response","269","273418","0.0-17.0-1.1-0.1","37zoowefy5","","37zoowefy5","""2024-11-12T20:35:01.544Z""","null","+","null","","","","","","",""
"","","","","","image-keyboard-response","270","274030","0.0-17.0-1.1-1.1","37zoowefy5","","37zoowefy5","""2024-11-12T20:35:01.544Z""","610","materials/imgs/D101.png","arrowright","","[""materials/imgs/D106.png"",""materials/imgs/D101.png""]","","check","materials/imgs/D101.png","1","true"
"","","","","","html-keyboard-response","271","274534","0.0-17.0-2.1-0.2","37zoowefy5","","37zoowefy5","""2024-11-12T20:35:01.544Z""","null","+","null","","","","","","",""
"","","","","","image-keyboard-response","272","275207","0.0-17.0-2.1-1.2","37zoowefy5","","37zoowefy5","""2024-11-12T20:35:01.544Z""","671","materials/imgs/D95.png","arrowleft","","[""materials/imgs/D36.png"",""materials/imgs/D4.png""]","false","validation","","",""
"","","","","","html-keyboard-response","273","275709","0.0-17.0-2.1-0.3","37zoowefy5","","37zoowefy5","""2024-11-12T20:35:01.544Z""","null","+","null","","","","","","",""
"","","","","","image-keyboard-response","274","276385","0.0-17.0-2.1-1.3","37zoowefy5","","37zoowefy5","""2024-11-12T20:35:01.544Z""","675","materials/imgs/D76.png","arrowleft","","[""materials/imgs/D83.png"",""materials/imgs/D6.png""]","false","validation","","",""
"","","","","","html-keyboard-response","275","276890","0.0-17.0-0.2-0.14","37zoowefy5","","37zoowefy5","""2024-11-12T20:35:01.544Z""","null","+","null","","","","","","",""
"","","","","","image-keyboard-response","276","277781","0.0-17.0-0.2-1.14","37zoowefy5","","37zoowefy5","""2024-11-12T20:35:01.544Z""","889","materials/imgs/D36.png","arrowleft","","[""materials/imgs/D68.png"",""materials/imgs/D56.png""]","false","random","","",""
"","","","","","html-keyboard-response","277","278282","0.0-17.0-0.2-0.15","37zoowefy5","","37zoowefy5","""2024-11-12T20:35:01.544Z""","null","+","null","","","","","","",""
"","","","","","image-keyboard-response","278","279732","0.0-17.0-0.2-1.15","37zoowefy5","","37zoowefy5","""2024-11-12T20:35:01.544Z""","1448","materials/imgs/D79.png","arrowright","","[""materials/imgs/D104.png"",""materials/imgs/D56.png""]","false","random","","",""
"","","","","","html-keyboard-response","279","280234","0.0-17.0-0.2-0.16","37zoowefy5","","37zoowefy5","""2024-11-12T20:35:01.544Z""","null","+","null","","","","","","",""
"","","","","","image-keyboard-response","280","281596","0.0-17.0-0.2-1.16","37zoowefy5","","37zoowefy5","""2024-11-12T20:35:01.544Z""","1361","materials/imgs/D49.png","arrowright","","[""materials/imgs/D52.png"",""materials/imgs/D3.png""]","false","random","","",""
"","","","","","html-keyboard-response","281","282099","0.0-17.0-0.2-0.17","37zoowefy5","","37zoowefy5","""2024-11-12T20:35:01.544Z""","null","+","null","","","","","","",""
"","","","","","image-keyboard-response","282","283029","0.0-17.0-0.2-1.17","37zoowefy5","","37zoowefy5","""2024-11-12T20:35:01.544Z""","929","materials/imgs/D19.png","arrowleft","","[""materials/imgs/D104.png"",""materials/imgs/D14.png""]","false","random","","",""
"","","","","","html-keyboard-response","283","283532","0.0-17.0-0.2-0.18","37zoowefy5","","37zoowefy5","""2024-11-12T20:35:01.544Z""","null","+","null","","","","","","",""
"","","","","","image-keyboard-response","284","284769","0.0-17.0-0.2-1.18","37zoowefy5","","37zoowefy5","""2024-11-12T20:35:01.544Z""","1234","materials/imgs/D76.png","arrowright","","[""materials/imgs/D47.png"",""materials/imgs/D101.png""]","false","random","","",""
"","","","","","html-keyboard-response","285","285273","0.0-17.0-0.2-0.19","37zoowefy5","","37zoowefy5","""2024-11-12T20:35:01.544Z""","null","+","null","","","","","","",""
"","","","","","image-keyboard-response","286","287046","0.0-17.0-0.2-1.19","37zoowefy5","","37zoowefy5","""2024-11-12T20:35:01.544Z""","1770","materials/imgs/D32.png","arrowright","","[""materials/imgs/D1.png"",""materials/imgs/D83.png""]","false","random","","",""
"","","","","","html-keyboard-response","287","287550","0.0-17.0-0.2-0.20","37zoowefy5","","37zoowefy5","""2024-11-12T20:35:01.544Z""","null","+","null","","","","","","",""
"","","","","","image-keyboard-response","288","288159","0.0-17.0-0.2-1.20","37zoowefy5","","37zoowefy5","""2024-11-12T20:35:01.544Z""","608","materials/imgs/D4.png","arrowleft","","[""materials/imgs/D92.png"",""materials/imgs/D77.png""]","false","random","","",""
"","","","","","html-keyboard-response","289","288664","0.0-17.0-1.2-0.2","37zoowefy5","","37zoowefy5","""2024-11-12T20:35:01.544Z""","null","+","null","","","","","","",""
"","","","","","image-keyboard-response","290","289344","0.0-17.0-1.2-1.2","37zoowefy5","","37zoowefy5","""2024-11-12T20:35:01.544Z""","678","materials/imgs/D64.png","arrowleft","","[""materials/imgs/D64.png"",""materials/imgs/D53.png""]","","check","materials/imgs/D64.png","0","true"
"","","","","","html-keyboard-response","291","289849","0.0-17.0-2.2-0.4","37zoowefy5","","37zoowefy5","""2024-11-12T20:35:01.544Z""","null","+","null","","","","","","",""
"","","","","","image-keyboard-response","292","290795","0.0-17.0-2.2-1.4","37zoowefy5","","37zoowefy5","""2024-11-12T20:35:01.544Z""","944","materials/imgs/D26.png","arrowright","","[""materials/imgs/D36.png"",""materials/imgs/D92.png""]","false","validation","","",""
"","","","","","html-keyboard-response","293","291301","0.0-17.0-2.2-0.5","37zoowefy5","","37zoowefy5","""2024-11-12T20:35:01.544Z""","null","+","null","","","","","","",""
"","","","","","image-keyboard-response","294","292162","0.0-17.0-2.2-1.5","37zoowefy5","","37zoowefy5","""2024-11-12T20:35:01.544Z""","860","materials/imgs/D4.png","arrowleft","","[""materials/imgs/D52.png"",""materials/imgs/D83.png""]","false","validation","","",""
"","","","","","html-keyboard-response","295","292664","0.0-17.0-0.3-0.21","37zoowefy5","","37zoowefy5","""2024-11-12T20:35:01.544Z""","null","+","null","","","","","","",""
"","","","","","image-keyboard-response","296","294350","0.0-17.0-0.3-1.21","37zoowefy5","","37zoowefy5","""2024-11-12T20:35:01.544Z""","1683","materials/imgs/D11.png","arrowleft","","[""materials/imgs/D106.png"",""materials/imgs/D53.png""]","false","random","","",""
"","","","","","html-keyboard-response","297","294854","0.0-17.0-0.3-0.22","37zoowefy5","","37zoowefy5","""2024-11-12T20:35:01.544Z""","null","+","null","","","","","","",""
"","","","","","image-keyboard-response","298","295648","0.0-17.0-0.3-1.22","37zoowefy5","","37zoowefy5","""2024-11-12T20:35:01.544Z""","791","materials/imgs/D19.png","arrowleft","","[""materials/imgs/D76.png"",""materials/imgs/D102.png""]","false","random","","",""
"","","","","","html-keyboard-response","299","296151","0.0-17.0-0.3-0.23","37zoowefy5","","37zoowefy5","""2024-11-12T20:35:01.544Z""","null","+","null","","","","","","",""
"","","","","","image-keyboard-response","300","296920","0.0-17.0-0.3-1.23","37zoowefy5","","37zoowefy5","""2024-11-12T20:35:01.544Z""","767","materials/imgs/D80.png","arrowleft","","[""materials/imgs/D87.png"",""materials/imgs/D55.png""]","false","random","","",""
"","","","","","html-keyboard-response","301","297423","0.0-17.0-0.3-0.24","37zoowefy5","","37zoowefy5","""2024-11-12T20:35:01.544Z""","null","+","null","","","","","","",""
"","","","","","image-keyboard-response","302","298601","0.0-17.0-0.3-1.24","37zoowefy5","","37zoowefy5","""2024-11-12T20:35:01.544Z""","1176","materials/imgs/D52.png","arrowleft","","[""materials/imgs/D56.png"",""materials/imgs/D47.png""]","false","random","","",""
"","","","","","html-keyboard-response","303","299102","0.0-17.0-0.3-0.25","37zoowefy5","","37zoowefy5","""2024-11-12T20:35:01.544Z""","null","+","null","","","","","","",""
"","","","","","image-keyboard-response","304","300057","0.0-17.0-0.3-1.25","37zoowefy5","","37zoowefy5","""2024-11-12T20:35:01.544Z""","952","materials/imgs/D74.png","arrowright","","[""materials/imgs/D53.png"",""materials/imgs/D68.png""]","false","random","","",""
"","","","","","html-keyboard-response","305","300562","0.0-17.0-0.3-0.26","37zoowefy5","","37zoowefy5","""2024-11-12T20:35:01.544Z""","null","+","null","","","","","","",""
"","","","","","image-keyboard-response","306","301251","0.0-17.0-0.3-1.26","37zoowefy5","","37zoowefy5","""2024-11-12T20:35:01.544Z""","687","materials/imgs/D21.png","arrowleft","","[""materials/imgs/D53.png"",""materials/imgs/D26.png""]","false","random","","",""
"","","","","","html-keyboard-response","307","301753","0.0-17.0-0.3-0.27","37zoowefy5","","37zoowefy5","""2024-11-12T20:35:01.544Z""","null","+","null","","","","","","",""
"","","","","","image-keyboard-response","308","302564","0.0-17.0-0.3-1.27","37zoowefy5","","37zoowefy5","""2024-11-12T20:35:01.544Z""","806","materials/imgs/D11.png","arrowright","","[""materials/imgs/D29.png"",""materials/imgs/D74.png""]","false","random","","",""
"","","","","","html-keyboard-response","309","303067","0.0-17.0-1.3-0.3","37zoowefy5","","37zoowefy5","""2024-11-12T20:35:01.544Z""","null","+","null","","","","","","",""
"","","","","","image-keyboard-response","310","303681","0.0-17.0-1.3-1.3","37zoowefy5","","37zoowefy5","""2024-11-12T20:35:01.544Z""","612","materials/imgs/D64.png","arrowleft","","[""materials/imgs/D64.png"",""materials/imgs/D53.png""]","","check","materials/imgs/D64.png","0","true"
"","","","","","html-keyboard-response","311","304184","0.0-17.0-2.3-0.6","37zoowefy5","","37zoowefy5","""2024-11-12T20:35:01.544Z""","null","+","null","","","","","","",""
"","","","","","image-keyboard-response","312","305475","0.0-17.0-2.3-1.6","37zoowefy5","","37zoowefy5","""2024-11-12T20:35:01.544Z""","1289","materials/imgs/D66.png","arrowleft","","[""materials/imgs/D85.png"",""materials/imgs/D25.png""]","false","validation","","",""
"","","","","","html-keyboard-response","313","305977","0.0-17.0-2.3-0.7","37zoowefy5","","37zoowefy5","""2024-11-12T20:35:01.544Z""","null","+","null","","","","","","",""
"","","","","","image-keyboard-response","314","306849","0.0-17.0-2.3-1.7","37zoowefy5","","37zoowefy5","""2024-11-12T20:35:01.544Z""","870","materials/imgs/D4.png","arrowright","","[""materials/imgs/D52.png"",""materials/imgs/D83.png""]","false","validation","","",""
"","","","","","html-keyboard-response","315","307353","0.0-17.0-0.4-0.28","37zoowefy5","","37zoowefy5","""2024-11-12T20:35:01.544Z""","null","+","null","","","","","","",""
"","","","","","image-keyboard-response","316","308279","0.0-17.0-0.4-1.28","37zoowefy5","","37zoowefy5","""2024-11-12T20:35:01.544Z""","924","materials/imgs/D11.png","arrowright","","[""materials/imgs/D104.png"",""materials/imgs/D46.png""]","false","random","","",""
"","","","","","html-keyboard-response","317","308782","0.0-17.0-0.4-0.29","37zoowefy5","","37zoowefy5","""2024-11-12T20:35:01.544Z""","null","+","null","","","","","","",""
"","","","","","image-keyboard-response","318","309495","0.0-17.0-0.4-1.29","37zoowefy5","","37zoowefy5","""2024-11-12T20:35:01.544Z""","711","materials/imgs/D48.png","arrowleft","","[""materials/imgs/D94.png"",""materials/imgs/D35.png""]","false","random","","",""
"","","","","","html-keyboard-response","319","309998","0.0-17.0-0.4-0.30","37zoowefy5","","37zoowefy5","""2024-11-12T20:35:01.544Z""","null","+","null","","","","","","",""
"","","","","","image-keyboard-response","320","310730","0.0-17.0-0.4-1.30","37zoowefy5","","37zoowefy5","""2024-11-12T20:35:01.544Z""","730","materials/imgs/D68.png","arrowright","","[""materials/imgs/D82.png"",""materials/imgs/D78.png""]","false","random","","",""
"","","","","","html-keyboard-response","321","311232","0.0-17.0-0.4-0.31","37zoowefy5","","37zoowefy5","""2024-11-12T20:35:01.544Z""","null","+","null","","","","","","",""
"","","","","","image-keyboard-response","322","312017","0.0-17.0-0.4-1.31","37zoowefy5","","37zoowefy5","""2024-11-12T20:35:01.544Z""","783","materials/imgs/D82.png","arrowleft","","[""materials/imgs/D9.png"",""materials/imgs/D92.png""]","false","random","","",""
"","","","","","html-keyboard-response","323","312520","0.0-17.0-0.4-0.32","37zoowefy5","","37zoowefy5","""2024-11-12T20:35:01.544Z""","null","+","null","","","","","","",""
"","","","","","image-keyboard-response","324","313313","0.0-17.0-0.4-1.32","37zoowefy5","","37zoowefy5","""2024-11-12T20:35:01.544Z""","790","materials/imgs/D57.png","arrowleft","","[""materials/imgs/D9.png"",""materials/imgs/D64.png""]","false","random","","",""
"","","","","","html-keyboard-response","325","313816","0.0-17.0-0.4-0.33","37zoowefy5","","37zoowefy5","""2024-11-12T20:35:01.544Z""","null","+","null","","","","","","",""
"","","","","","image-keyboard-response","326","314694","0.0-17.0-0.4-1.33","37zoowefy5","","37zoowefy5","""2024-11-12T20:35:01.544Z""","876","materials/imgs/D111.png","arrowright","","[""materials/imgs/D35.png"",""materials/imgs/D52.png""]","false","random","","",""
"","","","","","html-keyboard-response","327","315197","0.0-17.0-0.4-0.34","37zoowefy5","","37zoowefy5","""2024-11-12T20:35:01.544Z""","null","+","null","","","","","","",""
"","","","","","image-keyboard-response","328","316389","0.0-17.0-0.4-1.34","37zoowefy5","","37zoowefy5","""2024-11-12T20:35:01.544Z""","1190","materials/imgs/D74.png","arrowright","","[""materials/imgs/D79.png"",""materials/imgs/D22.png""]","false","random","","",""
"","","","","","html-keyboard-response","329","316893","0.0-17.0-1.4-0.4","37zoowefy5","","37zoowefy5","""2024-11-12T20:35:01.544Z""","null","+","null","","","","","","",""
"","","","","","image-keyboard-response","330","317529","0.0-17.0-1.4-1.4","37zoowefy5","","37zoowefy5","""2024-11-12T20:35:01.544Z""","633","materials/imgs/D106.png","arrowleft","","[""materials/imgs/D106.png"",""materials/imgs/D101.png""]","","check","materials/imgs/D106.png","0","true"
"","","","","","html-keyboard-response","331","318032","0.0-17.0-2.4-0.8","37zoowefy5","","37zoowefy5","""2024-11-12T20:35:01.544Z""","null","+","null","","","","","","",""
"","","","","","image-keyboard-response","332","318884","0.0-17.0-2.4-1.8","37zoowefy5","","37zoowefy5","""2024-11-12T20:35:01.544Z""","850","materials/imgs/D48.png","arrowright","","[""materials/imgs/D4.png"",""materials/imgs/D37.png""]","false","validation","","",""
"","","","","","html-keyboard-response","333","319389","0.0-17.0-2.4-0.9","37zoowefy5","","37zoowefy5","""2024-11-12T20:35:01.544Z""","null","+","null","","","","","","",""
"","","","","","image-keyboard-response","334","320922","0.0-17.0-2.4-1.9","37zoowefy5","","37zoowefy5","""2024-11-12T20:35:01.544Z""","1531","materials/imgs/D103.png","arrowleft","","[""materials/imgs/D76.png"",""materials/imgs/D106.png""]","false","validation","","",""
"","","","","","html-button-response","335","323345","0.0-18.0","37zoowefy5","","37zoowefy5","""2024-11-12T20:35:01.544Z""","2422","You have completed 75% of the trials. Please click 'Continue' when you are ready proceed.","0","","","","","","",""
"","","","","","html-keyboard-response","336","323847","0.0-19.0-0.0-0.0","37zoowefy5","","37zoowefy5","""2024-11-12T20:35:01.544Z""","null","+","null","","","","","","",""
"","","","","","image-keyboard-response","337","325564","0.0-19.0-0.0-1.0","37zoowefy5","","37zoowefy5","""2024-11-12T20:35:01.544Z""","1715","materials/imgs/D36.png","arrowleft","","[""materials/imgs/D84.png"",""materials/imgs/D26.png""]","false","random","","",""
"","","","","","html-keyboard-response","338","326066","0.0-19.0-0.0-0.1","37zoowefy5","","37zoowefy5","""2024-11-12T20:35:01.544Z""","null","+","null","","","","","","",""
"","","","","","image-keyboard-response","339","326973","0.0-19.0-0.0-1.1","37zoowefy5","","37zoowefy5","""2024-11-12T20:35:01.544Z""","904","materials/imgs/D3.png","arrowleft","","[""materials/imgs/D95.png"",""materials/imgs/D24.png""]","false","random","","",""
"","","","","","html-keyboard-response","340","327476","0.0-19.0-0.0-0.2","37zoowefy5","","37zoowefy5","""2024-11-12T20:35:01.544Z""","null","+","null","","","","","","",""
"","","","","","image-keyboard-response","341","328216","0.0-19.0-0.0-1.2","37zoowefy5","","37zoowefy5","""2024-11-12T20:35:01.544Z""","737","materials/imgs/D32.png","arrowright","","[""materials/imgs/D75.png"",""materials/imgs/D6.png""]","false","random","","",""
"","","","","","html-keyboard-response","342","328720","0.0-19.0-0.0-0.3","37zoowefy5","","37zoowefy5","""2024-11-12T20:35:01.544Z""","null","+","null","","","","","","",""
"","","","","","image-keyboard-response","343","329806","0.0-19.0-0.0-1.3","37zoowefy5","","37zoowefy5","""2024-11-12T20:35:01.544Z""","1083","materials/imgs/D36.png","arrowleft","","[""materials/imgs/D103.png"",""materials/imgs/D102.png""]","false","random","","",""
"","","","","","html-keyboard-response","344","330307","0.0-19.0-0.0-0.4","37zoowefy5","","37zoowefy5","""2024-11-12T20:35:01.544Z""","null","+","null","","","","","","",""
"","","","","","image-keyboard-response","345","331244","0.0-19.0-0.0-1.4","37zoowefy5","","37zoowefy5","""2024-11-12T20:35:01.544Z""","935","materials/imgs/D57.png","arrowright","","[""materials/imgs/D18.png"",""materials/imgs/D102.png""]","false","random","","",""
"","","","","","html-keyboard-response","346","331749","0.0-19.0-0.0-0.5","37zoowefy5","","37zoowefy5","""2024-11-12T20:35:01.544Z""","null","+","null","","","","","","",""
"","","","","","image-keyboard-response","347","333115","0.0-19.0-0.0-1.5","37zoowefy5","","37zoowefy5","""2024-11-12T20:35:01.544Z""","1365","materials/imgs/D81.png","arrowleft","","[""materials/imgs/D9.png"",""materials/imgs/D78.png""]","false","random","","",""
"","","","","","html-keyboard-response","348","333620","0.0-19.0-0.0-0.6","37zoowefy5","","37zoowefy5","""2024-11-12T20:35:01.544Z""","null","+","null","","","","","","",""
"","","","","","image-keyboard-response","349","335490","0.0-19.0-0.0-1.6","37zoowefy5","","37zoowefy5","""2024-11-12T20:35:01.544Z""","1868","materials/imgs/D26.png","arrowleft","","[""materials/imgs/D85.png"",""materials/imgs/D68.png""]","false","random","","",""
"","","","","","html-keyboard-response","350","335992","0.0-19.0-1.0-0.0","37zoowefy5","","37zoowefy5","""2024-11-12T20:35:01.544Z""","null","+","null","","","","","","",""
"","","","","","image-keyboard-response","351","336591","0.0-19.0-1.0-1.0","37zoowefy5","","37zoowefy5","""2024-11-12T20:35:01.544Z""","597","materials/imgs/D46.png","arrowleft","","[""materials/imgs/D46.png"",""materials/imgs/D26.png""]","","check","materials/imgs/D46.png","0","true"
"","","","","","html-keyboard-response","352","337094","0.0-19.0-2.0-0.0","37zoowefy5","","37zoowefy5","""2024-11-12T20:35:01.544Z""","null","+","null","","","","","","",""
"","","","","","image-keyboard-response","353","337740","0.0-19.0-2.0-1.0","37zoowefy5","","37zoowefy5","""2024-11-12T20:35:01.544Z""","645","materials/imgs/D47.png","arrowleft","","[""materials/imgs/D1.png"",""materials/imgs/D52.png""]","false","validation","","",""
"","","","","","html-keyboard-response","354","338243","0.0-19.0-2.0-0.1","37zoowefy5","","37zoowefy5","""2024-11-12T20:35:01.544Z""","null","+","null","","","","","","",""
"","","","","","image-keyboard-response","355","339500","0.0-19.0-2.0-1.1","37zoowefy5","","37zoowefy5","""2024-11-12T20:35:01.544Z""","1255","materials/imgs/D26.png","arrowright","","[""materials/imgs/D36.png"",""materials/imgs/D92.png""]","false","validation","","",""
"","","","","","html-keyboard-response","356","340005","0.0-19.0-0.1-0.7","37zoowefy5","","37zoowefy5","""2024-11-12T20:35:01.544Z""","null","+","null","","","","","","",""
"","","","","","image-keyboard-response","357","340673","0.0-19.0-0.1-1.7","37zoowefy5","","37zoowefy5","""2024-11-12T20:35:01.544Z""","667","materials/imgs/D20.png","arrowleft","","[""materials/imgs/D82.png"",""materials/imgs/D3.png""]","false","random","","",""
"","","","","","html-keyboard-response","358","341175","0.0-19.0-0.1-0.8","37zoowefy5","","37zoowefy5","""2024-11-12T20:35:01.544Z""","null","+","null","","","","","","",""
"","","","","","image-keyboard-response","359","343129","0.0-19.0-0.1-1.8","37zoowefy5","","37zoowefy5","""2024-11-12T20:35:01.544Z""","1952","materials/imgs/D9.png","arrowright","","[""materials/imgs/D8.png"",""materials/imgs/D66.png""]","false","random","","",""
"","","","","","html-keyboard-response","360","343632","0.0-19.0-0.1-0.9","37zoowefy5","","37zoowefy5","""2024-11-12T20:35:01.544Z""","null","+","null","","","","","","",""
"","","","","","image-keyboard-response","361","344321","0.0-19.0-0.1-1.9","37zoowefy5","","37zoowefy5","""2024-11-12T20:35:01.544Z""","688","materials/imgs/D81.png","arrowleft","","[""materials/imgs/D68.png"",""materials/imgs/D52.png""]","false","random","","",""
"","","","","","html-keyboard-response","362","344824","0.0-19.0-0.1-0.10","37zoowefy5","","37zoowefy5","""2024-11-12T20:35:01.544Z""","null","+","null","","","","","","",""
"","","","","","image-keyboard-response","363","345465","0.0-19.0-0.1-1.10","37zoowefy5","","37zoowefy5","""2024-11-12T20:35:01.544Z""","639","materials/imgs/D53.png","arrowright","","[""materials/imgs/D95.png"",""materials/imgs/D17.png""]","false","random","","",""
"","","","","","html-keyboard-response","364","345968","0.0-19.0-0.1-0.11","37zoowefy5","","37zoowefy5","""2024-11-12T20:35:01.544Z""","null","+","null","","","","","","",""
"","","","","","image-keyboard-response","365","346820","0.0-19.0-0.1-1.11","37zoowefy5","","37zoowefy5","""2024-11-12T20:35:01.544Z""","850","materials/imgs/D51.png","arrowright","","[""materials/imgs/D66.png"",""materials/imgs/D106.png""]","false","random","","",""
"","","","","","html-keyboard-response","366","347322","0.0-19.0-0.1-0.12","37zoowefy5","","37zoowefy5","""2024-11-12T20:35:01.544Z""","null","+","null","","","","","","",""
"","","","","","image-keyboard-response","367","347961","0.0-19.0-0.1-1.12","37zoowefy5","","37zoowefy5","""2024-11-12T20:35:01.544Z""","637","materials/imgs/D55.png","arrowleft","","[""materials/imgs/D22.png"",""materials/imgs/D46.png""]","false","random","","",""
"","","","","","html-keyboard-response","368","348463","0.0-19.0-0.1-0.13","37zoowefy5","","37zoowefy5","""2024-11-12T20:35:01.544Z""","null","+","null","","","","","","",""
"","","","","","image-keyboard-response","369","349151","0.0-19.0-0.1-1.13","37zoowefy5","","37zoowefy5","""2024-11-12T20:35:01.544Z""","686","materials/imgs/D77.png","arrowright","","[""materials/imgs/D94.png"",""materials/imgs/D82.png""]","false","random","","",""
"","","","","","html-keyboard-response","370","349655","0.0-19.0-1.1-0.1","37zoowefy5","","37zoowefy5","""2024-11-12T20:35:01.544Z""","null","+","null","","","","","","",""
"","","","","","image-keyboard-response","371","350331","0.0-19.0-1.1-1.1","37zoowefy5","","37zoowefy5","""2024-11-12T20:35:01.544Z""","674","materials/imgs/D18.png","arrowright","","[""materials/imgs/D8.png"",""materials/imgs/D18.png""]","","check","materials/imgs/D18.png","1","true"
"","","","","","html-keyboard-response","372","350835","0.0-19.0-2.1-0.2","37zoowefy5","","37zoowefy5","""2024-11-12T20:35:01.544Z""","null","+","null","","","","","","",""
"","","","","","image-keyboard-response","373","351630","0.0-19.0-2.1-1.2","37zoowefy5","","37zoowefy5","""2024-11-12T20:35:01.544Z""","794","materials/imgs/D36.png","arrowright","","[""materials/imgs/D47.png"",""materials/imgs/D49.png""]","false","validation","","",""
"","","","","","html-keyboard-response","374","352135","0.0-19.0-2.1-0.3","37zoowefy5","","37zoowefy5","""2024-11-12T20:35:01.544Z""","null","+","null","","","","","","",""
"","","","","","image-keyboard-response","375","353819","0.0-19.0-2.1-1.3","37zoowefy5","","37zoowefy5","""2024-11-12T20:35:01.544Z""","1682","materials/imgs/D68.png","arrowright","","[""materials/imgs/D96.png"",""materials/imgs/D48.png""]","false","validation","","",""
"","","","","","html-keyboard-response","376","354322","0.0-19.0-0.2-0.14","37zoowefy5","","37zoowefy5","""2024-11-12T20:35:01.544Z""","null","+","null","","","","","","",""
"","","","","","image-keyboard-response","377","355276","0.0-19.0-0.2-1.14","37zoowefy5","","37zoowefy5","""2024-11-12T20:35:01.544Z""","952","materials/imgs/D22.png","arrowleft","","[""materials/imgs/D82.png"",""materials/imgs/D87.png""]","false","random","","",""
"","","","","","html-keyboard-response","378","355778","0.0-19.0-0.2-0.15","37zoowefy5","","37zoowefy5","""2024-11-12T20:35:01.544Z""","null","+","null","","","","","","",""
"","","","","","image-keyboard-response","379","357951","0.0-19.0-0.2-1.15","37zoowefy5","","37zoowefy5","""2024-11-12T20:35:01.544Z""","2171","materials/imgs/D34.png","arrowleft","","[""materials/imgs/D66.png"",""materials/imgs/D92.png""]","false","random","","",""
"","","","","","html-keyboard-response","380","358453","0.0-19.0-0.2-0.16","37zoowefy5","","37zoowefy5","""2024-11-12T20:35:01.544Z""","null","+","null","","","","","","",""
"","","","","","image-keyboard-response","381","359155","0.0-19.0-0.2-1.16","37zoowefy5","","37zoowefy5","""2024-11-12T20:35:01.544Z""","700","materials/imgs/D56.png","arrowright","","[""materials/imgs/D84.png"",""materials/imgs/D1.png""]","false","random","","",""
"","","","","","html-keyboard-response","382","359660","0.0-19.0-0.2-0.17","37zoowefy5","","37zoowefy5","""2024-11-12T20:35:01.544Z""","null","+","null","","","","","","",""
"","","","","","image-keyboard-response","383","360896","0.0-19.0-0.2-1.17","37zoowefy5","","37zoowefy5","""2024-11-12T20:35:01.544Z""","1234","materials/imgs/D75.png","arrowleft","","[""materials/imgs/D83.png"",""materials/imgs/D80.png""]","false","random","","",""
"","","","","","html-keyboard-response","384","361396","0.0-19.0-0.2-0.18","37zoowefy5","","37zoowefy5","""2024-11-12T20:35:01.544Z""","null","+","null","","","","","","",""
"","","","","","image-keyboard-response","385","362332","0.0-19.0-0.2-1.18","37zoowefy5","","37zoowefy5","""2024-11-12T20:35:01.544Z""","934","materials/imgs/D74.png","arrowright","","[""materials/imgs/D21.png"",""materials/imgs/D24.png""]","false","random","","",""
"","","","","","html-keyboard-response","386","362834","0.0-19.0-0.2-0.19","37zoowefy5","","37zoowefy5","""2024-11-12T20:35:01.544Z""","null","+","null","","","","","","",""
"","","","","","image-keyboard-response","387","363804","0.0-19.0-0.2-1.19","37zoowefy5","","37zoowefy5","""2024-11-12T20:35:01.544Z""","967","materials/imgs/D22.png","arrowright","","[""materials/imgs/D11.png"",""materials/imgs/D3.png""]","false","random","","",""
"","","","","","html-keyboard-response","388","364305","0.0-19.0-0.2-0.20","37zoowefy5","","37zoowefy5","""2024-11-12T20:35:01.544Z""","null","+","null","","","","","","",""
"","","","","","image-keyboard-response","389","366044","0.0-19.0-0.2-1.20","37zoowefy5","","37zoowefy5","""2024-11-12T20:35:01.544Z""","1736","materials/imgs/D4.png","arrowleft","","[""materials/imgs/D76.png"",""materials/imgs/D37.png""]","false","random","","",""
"","","","","","html-keyboard-response","390","366549","0.0-19.0-1.2-0.2","37zoowefy5","","37zoowefy5","""2024-11-12T20:35:01.544Z""","null","+","null","","","","","","",""
"","","","","","image-keyboard-response","391","367344","0.0-19.0-1.2-1.2","37zoowefy5","","37zoowefy5","""2024-11-12T20:35:01.544Z""","793","materials/imgs/D53.png","arrowright","","[""materials/imgs/D64.png"",""materials/imgs/D53.png""]","","check","materials/imgs/D53.png","1","true"
"","","","","","html-keyboard-response","392","367849","0.0-19.0-2.2-0.4","37zoowefy5","","37zoowefy5","""2024-11-12T20:35:01.544Z""","null","+","null","","","","","","",""
"","","","","","image-keyboard-response","393","369177","0.0-19.0-2.2-1.4","37zoowefy5","","37zoowefy5","""2024-11-12T20:35:01.544Z""","1326","materials/imgs/D83.png","arrowleft","","[""materials/imgs/D24.png"",""materials/imgs/D8.png""]","false","validation","","",""
"","","","","","html-keyboard-response","394","369680","0.0-19.0-2.2-0.5","37zoowefy5","","37zoowefy5","""2024-11-12T20:35:01.544Z""","null","+","null","","","","","","",""
"","","","","","image-keyboard-response","395","371080","0.0-19.0-2.2-1.5","37zoowefy5","","37zoowefy5","""2024-11-12T20:35:01.544Z""","1398","materials/imgs/D64.png","arrowright","","[""materials/imgs/D6.png"",""materials/imgs/D81.png""]","false","validation","","",""
"","","","","","html-keyboard-response","396","371581","0.0-19.0-0.3-0.21","37zoowefy5","","37zoowefy5","""2024-11-12T20:35:01.544Z""","null","+","null","","","","","","",""
"","","","","","image-keyboard-response","397","372559","0.0-19.0-0.3-1.21","37zoowefy5","","37zoowefy5","""2024-11-12T20:35:01.544Z""","976","materials/imgs/D20.png","arrowleft","","[""materials/imgs/D111.png"",""materials/imgs/D1.png""]","false","random","","",""
"","","","","","html-keyboard-response","398","373064","0.0-19.0-0.3-0.22","37zoowefy5","","37zoowefy5","""2024-11-12T20:35:01.544Z""","null","+","null","","","","","","",""
"","","","","","image-keyboard-response","399","374026","0.0-19.0-0.3-1.22","37zoowefy5","","37zoowefy5","""2024-11-12T20:35:01.544Z""","960","materials/imgs/D65.png","arrowright","","[""materials/imgs/D24.png"",""materials/imgs/D66.png""]","false","random","","",""
"","","","","","html-keyboard-response","400","374529","0.0-19.0-0.3-0.23","37zoowefy5","","37zoowefy5","""2024-11-12T20:35:01.544Z""","null","+","null","","","","","","",""
"","","","","","image-keyboard-response","401","376358","0.0-19.0-0.3-1.23","37zoowefy5","","37zoowefy5","""2024-11-12T20:35:01.544Z""","1827","materials/imgs/D81.png","arrowleft","","[""materials/imgs/D48.png"",""materials/imgs/D95.png""]","false","random","","",""
"","","","","","html-keyboard-response","402","376862","0.0-19.0-0.3-0.24","37zoowefy5","","37zoowefy5","""2024-11-12T20:35:01.544Z""","null","+","null","","","","","","",""
"","","","","","image-keyboard-response","403","377733","0.0-19.0-0.3-1.24","37zoowefy5","","37zoowefy5","""2024-11-12T20:35:01.544Z""","869","materials/imgs/D20.png","arrowleft","","[""materials/imgs/D1.png"",""materials/imgs/D83.png""]","false","random","","",""
"","","","","","html-keyboard-response","404","378234","0.0-19.0-0.3-0.25","37zoowefy5","","37zoowefy5","""2024-11-12T20:35:01.544Z""","null","+","null","","","","","","",""
"","","","","","image-keyboard-response","405","379006","0.0-19.0-0.3-1.25","37zoowefy5","","37zoowefy5","""2024-11-12T20:35:01.544Z""","769","materials/imgs/D111.png","arrowright","","[""materials/imgs/D1.png"",""materials/imgs/D104.png""]","false","random","","",""
"","","","","","html-keyboard-response","406","379511","0.0-19.0-0.3-0.26","37zoowefy5","","37zoowefy5","""2024-11-12T20:35:01.544Z""","null","+","null","","","","","","",""
"","","","","","image-keyboard-response","407","380181","0.0-19.0-0.3-1.26","37zoowefy5","","37zoowefy5","""2024-11-12T20:35:01.544Z""","667","materials/imgs/D3.png","arrowleft","","[""materials/imgs/D103.png"",""materials/imgs/D83.png""]","false","random","","",""
"","","","","","html-keyboard-response","408","380683","0.0-19.0-0.3-0.27","37zoowefy5","","37zoowefy5","""2024-11-12T20:35:01.544Z""","null","+","null","","","","","","",""
"","","","","","image-keyboard-response","409","382076","0.0-19.0-0.3-1.27","37zoowefy5","","37zoowefy5","""2024-11-12T20:35:01.544Z""","1391","materials/imgs/D75.png","arrowleft","","[""materials/imgs/D57.png"",""materials/imgs/D53.png""]","false","random","","",""
"","","","","","html-keyboard-response","410","382581","0.0-19.0-1.3-0.3","37zoowefy5","","37zoowefy5","""2024-11-12T20:35:01.544Z""","null","+","null","","","","","","",""
"","","","","","image-keyboard-response","411","383221","0.0-19.0-1.3-1.3","37zoowefy5","","37zoowefy5","""2024-11-12T20:35:01.544Z""","639","materials/imgs/D53.png","arrowright","","[""materials/imgs/D64.png"",""materials/imgs/D53.png""]","","check","materials/imgs/D53.png","1","true"
"","","","","","html-keyboard-response","412","383726","0.0-19.0-2.3-0.6","37zoowefy5","","37zoowefy5","""2024-11-12T20:35:01.544Z""","null","+","null","","","","","","",""
"","","","","","image-keyboard-response","413","384519","0.0-19.0-2.3-1.6","37zoowefy5","","37zoowefy5","""2024-11-12T20:35:01.544Z""","792","materials/imgs/D22.png","arrowleft","","[""materials/imgs/D4.png"",""materials/imgs/D25.png""]","false","validation","","",""
"","","","","","html-keyboard-response","414","385023","0.0-19.0-2.3-0.7","37zoowefy5","","37zoowefy5","""2024-11-12T20:35:01.544Z""","null","+","null","","","","","","",""
"","","","","","image-keyboard-response","415","385836","0.0-19.0-2.3-1.7","37zoowefy5","","37zoowefy5","""2024-11-12T20:35:01.544Z""","811","materials/imgs/D37.png","arrowright","","[""materials/imgs/D84.png"",""materials/imgs/D111.png""]","false","validation","","",""
"","","","","","html-keyboard-response","416","386338","0.0-19.0-0.4-0.28","37zoowefy5","","37zoowefy5","""2024-11-12T20:35:01.544Z""","null","+","null","","","","","","",""
"","","","","","image-keyboard-response","417","387201","0.0-19.0-0.4-1.28","37zoowefy5","","37zoowefy5","""2024-11-12T20:35:01.544Z""","862","materials/imgs/D77.png","arrowleft","","[""materials/imgs/D32.png"",""materials/imgs/D51.png""]","false","random","","",""
"","","","","","html-keyboard-response","418","387703","0.0-19.0-0.4-0.29","37zoowefy5","","37zoowefy5","""2024-11-12T20:35:01.544Z""","null","+","null","","","","","","",""
"","","","","","image-keyboard-response","419","388602","0.0-19.0-0.4-1.29","37zoowefy5","","37zoowefy5","""2024-11-12T20:35:01.544Z""","896","materials/imgs/D49.png","arrowright","","[""materials/imgs/D66.png"",""materials/imgs/D18.png""]","false","random","","",""
"","","","","","html-keyboard-response","420","389105","0.0-19.0-0.4-0.30","37zoowefy5","","37zoowefy5","""2024-11-12T20:35:01.544Z""","null","+","null","","","","","","",""
"","","","","","image-keyboard-response","421","389764","0.0-19.0-0.4-1.30","37zoowefy5","","37zoowefy5","""2024-11-12T20:35:01.544Z""","657","materials/imgs/D81.png","arrowright","","[""materials/imgs/D68.png"",""materials/imgs/D32.png""]","false","random","","",""
"","","","","","html-keyboard-response","422","390267","0.0-19.0-0.4-0.31","37zoowefy5","","37zoowefy5","""2024-11-12T20:35:01.544Z""","null","+","null","","","","","","",""
"","","","","","image-keyboard-response","423","391057","0.0-19.0-0.4-1.31","37zoowefy5","","37zoowefy5","""2024-11-12T20:35:01.544Z""","787","materials/imgs/D83.png","arrowright","","[""materials/imgs/D51.png"",""materials/imgs/D14.png""]","false","random","","",""
"","","","","","html-keyboard-response","424","391560","0.0-19.0-0.4-0.32","37zoowefy5","","37zoowefy5","""2024-11-12T20:35:01.544Z""","null","+","null","","","","","","",""
"","","","","","image-keyboard-response","425","392326","0.0-19.0-0.4-1.32","37zoowefy5","","37zoowefy5","""2024-11-12T20:35:01.544Z""","764","materials/imgs/D51.png","arrowright","","[""materials/imgs/D32.png"",""materials/imgs/D104.png""]","false","random","","",""
"","","","","","html-keyboard-response","426","392830","0.0-19.0-0.4-0.33","37zoowefy5","","37zoowefy5","""2024-11-12T20:35:01.544Z""","null","+","null","","","","","","",""
"","","","","","image-keyboard-response","427","394102","0.0-19.0-0.4-1.33","37zoowefy5","","37zoowefy5","""2024-11-12T20:35:01.544Z""","1270","materials/imgs/D4.png","arrowleft","","[""materials/imgs/D65.png"",""materials/imgs/D106.png""]","false","random","","",""
"","","","","","html-keyboard-response","428","394606","0.0-19.0-0.4-0.34","37zoowefy5","","37zoowefy5","""2024-11-12T20:35:01.544Z""","null","+","null","","","","","","",""
"","","","","","image-keyboard-response","429","395507","0.0-19.0-0.4-1.34","37zoowefy5","","37zoowefy5","""2024-11-12T20:35:01.544Z""","900","materials/imgs/D51.png","arrowright","","[""materials/imgs/D52.png"",""materials/imgs/D32.png""]","false","random","","",""
"","","","","","html-keyboard-response","430","396010","0.0-19.0-1.4-0.4","37zoowefy5","","37zoowefy5","""2024-11-12T20:35:01.544Z""","null","+","null","","","","","","",""
"","","","","","image-keyboard-response","431","396579","0.0-19.0-1.4-1.4","37zoowefy5","","37zoowefy5","""2024-11-12T20:35:01.544Z""","567","materials/imgs/D64.png","arrowleft","","[""materials/imgs/D64.png"",""materials/imgs/D53.png""]","","check","materials/imgs/D64.png","0","true"
"","","","","","html-keyboard-response","432","397081","0.0-19.0-2.4-0.8","37zoowefy5","","37zoowefy5","""2024-11-12T20:35:01.544Z""","null","+","null","","","","","","",""
"","","","","","image-keyboard-response","433","398729","0.0-19.0-2.4-1.8","37zoowefy5","","37zoowefy5","""2024-11-12T20:35:01.544Z""","1646","materials/imgs/D46.png","arrowleft","","[""materials/imgs/D92.png"",""materials/imgs/D77.png""]","false","validation","","",""
"","","","","","html-keyboard-response","434","399232","0.0-19.0-2.4-0.9","37zoowefy5","","37zoowefy5","""2024-11-12T20:35:01.544Z""","null","+","null","","","","","","",""
"","","","","","image-keyboard-response","435","400238","0.0-19.0-2.4-1.9","37zoowefy5","","37zoowefy5","""2024-11-12T20:35:01.544Z""","997","materials/imgs/D66.png","arrowright","","[""materials/imgs/D85.png"",""materials/imgs/D25.png""]","false","validation","","",""
