"success","timeout","failed_images","failed_audio","failed_video","trial_type","trial_index","time_elapsed","internal_node_id","subject_id","sona_id","subjectID","dateInfo","rt","stimulus","response","question_order","choices","speedy","sampleAlg","selected_image","selected_index","correct"
"true","false","[]","[]","[]","preload","0","502","0.0-0.0","3m1x5z3qvf","","3m1x5z3qvf","""2024-11-13T20:20:46.551Z""","","","","","","","","","",""
"true","","","","","fullscreen","1","3919","0.0-1.0","3m1x5z3qvf","","3m1x5z3qvf","""2024-11-13T20:20:46.551Z""","","","","","","","","","",""
"","","","","","html-keyboard-response","2","3932","0.0-2.0","3m1x5z3qvf","","3m1x5z3qvf","""2024-11-13T20:20:46.551Z""","null","","null","","","","","","",""
"","","","","","html-button-response","3","9994","0.0-3.0","3m1x5z3qvf","","3m1x5z3qvf","""2024-11-13T20:20:46.551Z""","6060","<div style='text-align:center; font-size:20px; line-height:25px; width: 1200px;'>
                Welcome to our experiment! <br>
                <br>At the bottom of this screen, you will see a button that says 'Begin Experiment.
                <br>Please only click that button when you are ready to complete the 25 minute experiment in one sitting. <br>
                <br> Once you click that button, it will not be possible to restart the experiment. <br><br>","0","","","","","","",""
"true","","","","","fullscreen","4","13261","0.0-4.0","3m1x5z3qvf","","3m1x5z3qvf","""2024-11-13T20:20:46.551Z""","","","","","","","","","",""
"","","","","","survey-multi-select","5","75028","0.0-5.0","3m1x5z3qvf","","3m1x5z3qvf","""2024-11-13T20:20:46.551Z""","61699","","{""Consent"":[""<strong>I consent</strong>""]}","[0]","","","","","",""
"","","","","","html-button-response","6","77455","0.0-6.0","3m1x5z3qvf","","3m1x5z3qvf","""2024-11-13T20:20:46.551Z""","2423","Welcome! <p> This experiment involves two parts: demographic information, followed by the experimental task.<p> It will take about 25 minutes to complete both parts.","0","","","","","","",""
"","","","","","survey-text","7","87661","0.0-7.0","3m1x5z3qvf","","3m1x5z3qvf","""2024-11-13T20:20:46.551Z""","10202","","{""Age"":""18"",""Gender"":""Female"",""Race/ethnicity"":""White""}","","","","","","",""
"","","","","","html-button-response","8","114865","0.0-8.0","3m1x5z3qvf","","3m1x5z3qvf","""2024-11-13T20:20:46.551Z""","27202","<div style='text-align: center;'>
      <p>In each trial of this task, you will see three texture images: one target item on top, and two choices beneath the target item.</p>
      <p><strong>Please select the item that is most like the target item.</strong></p>
      <p>To select the option on the <strong>LEFT</strong>, press the <strong>LEFT ARROW</strong> key. 
      To select the option on the <strong>RIGHT</strong>, press the <strong>RIGHT ARROW</strong> key.</p>
                  <!-- Target Image at the Top -->
      <div style='margin: 20px;'>
        <img src='materials/imgs/instruction_images/InstructionImg1D78.png' alt='Target Image' style='width:200px; height:auto;' />
        <p><em>Target Image</em></p>
      </div>

      <!-- Two Choice Images Below -->
      <div style='display: flex; justify-content: center;'>
        <div style='margin-right: 50px;'>
          <img src='materials/imgs/instruction_images/InstructionImg2D34.png' alt='Choice Image 1' style='width:150px; height:auto;' />
          <p><em><strong>LEFT ARROW</strong></em></p>
        </div>
        <div style='margin-left: 50px;'>
          <img src='materials/imgs/instruction_images/InstructionImg3D80.png' alt='Choice Image 2' style='width:150px; height:auto;' />
          <p><em><strong>RIGHT ARROW</strong></em></p>
        </div>
      </div>
    </div>

      <p>When you are ready to proceed, please click 'Continue' to begin practice.</p>","0","","","","","","",""
"","","","","","html-keyboard-response","9","117369","0.0-9.0","3m1x5z3qvf","","3m1x5z3qvf","""2024-11-13T20:20:46.551Z""","null","+","null","","","","","","",""
"","","","","","html-keyboard-response","10","117871","0.0-10.0-0.0-0.0","3m1x5z3qvf","","3m1x5z3qvf","""2024-11-13T20:20:46.551Z""","null","+","null","","","","","","",""
"","","","","","image-keyboard-response","11","120356","0.0-10.0-0.0-1.0","3m1x5z3qvf","","3m1x5z3qvf","""2024-11-13T20:20:46.551Z""","2482","materials/imgs/D34.png","arrowright","","[""materials/imgs/D87.png"",""materials/imgs/D35.png""]","false","random","","",""
"","","","","","html-keyboard-response","12","120859","0.0-10.0-0.0-0.1","3m1x5z3qvf","","3m1x5z3qvf","""2024-11-13T20:20:46.551Z""","null","+","null","","","","","","",""
"","","","","","image-keyboard-response","13","123751","0.0-10.0-0.0-1.1","3m1x5z3qvf","","3m1x5z3qvf","""2024-11-13T20:20:46.551Z""","2890","materials/imgs/D104.png","arrowright","","[""materials/imgs/D1.png"",""materials/imgs/D95.png""]","false","random","","",""
"","","","","","html-keyboard-response","14","124252","0.0-10.0-0.0-0.2","3m1x5z3qvf","","3m1x5z3qvf","""2024-11-13T20:20:46.551Z""","null","+","null","","","","","","",""
"","","","","","image-keyboard-response","15","126635","0.0-10.0-0.0-1.2","3m1x5z3qvf","","3m1x5z3qvf","""2024-11-13T20:20:46.551Z""","2380","materials/imgs/D4.png","arrowright","","[""materials/imgs/D101.png"",""materials/imgs/D53.png""]","false","random","","",""
"","","","","","html-keyboard-response","16","127136","0.0-10.0-0.0-0.3","3m1x5z3qvf","","3m1x5z3qvf","""2024-11-13T20:20:46.551Z""","null","+","null","","","","","","",""
"","","","","","image-keyboard-response","17","129048","0.0-10.0-0.0-1.3","3m1x5z3qvf","","3m1x5z3qvf","""2024-11-13T20:20:46.551Z""","1909","materials/imgs/D17.png","arrowright","","[""materials/imgs/D8.png"",""materials/imgs/D105.png""]","false","random","","",""
"","","","","","html-keyboard-response","18","129549","0.0-10.0-0.0-0.4","3m1x5z3qvf","","3m1x5z3qvf","""2024-11-13T20:20:46.551Z""","null","+","null","","","","","","",""
"","","","","","image-keyboard-response","19","133947","0.0-10.0-0.0-1.4","3m1x5z3qvf","","3m1x5z3qvf","""2024-11-13T20:20:46.551Z""","4395","materials/imgs/D46.png","arrowright","","[""materials/imgs/D29.png"",""materials/imgs/D96.png""]","false","random","","",""
"","","","","","html-keyboard-response","20","134448","0.0-10.0-0.0-0.5","3m1x5z3qvf","","3m1x5z3qvf","""2024-11-13T20:20:46.551Z""","null","+","null","","","","","","",""
"","","","","","image-keyboard-response","21","136090","0.0-10.0-0.0-1.5","3m1x5z3qvf","","3m1x5z3qvf","""2024-11-13T20:20:46.551Z""","1640","materials/imgs/D17.png","arrowleft","","[""materials/imgs/D80.png"",""materials/imgs/D21.png""]","false","random","","",""
"","","","","","html-keyboard-response","22","136591","0.0-10.0-0.0-0.6","3m1x5z3qvf","","3m1x5z3qvf","""2024-11-13T20:20:46.551Z""","null","+","null","","","","","","",""
"","","","","","image-keyboard-response","23","137880","0.0-10.0-0.0-1.6","3m1x5z3qvf","","3m1x5z3qvf","""2024-11-13T20:20:46.551Z""","1287","materials/imgs/D105.png","arrowleft","","[""materials/imgs/D14.png"",""materials/imgs/D8.png""]","false","random","","",""
"","","","","","html-keyboard-response","24","138382","0.0-10.0-0.0-0.7","3m1x5z3qvf","","3m1x5z3qvf","""2024-11-13T20:20:46.551Z""","null","+","null","","","","","","",""
"","","","","","image-keyboard-response","25","141633","0.0-10.0-0.0-1.7","3m1x5z3qvf","","3m1x5z3qvf","""2024-11-13T20:20:46.551Z""","3250","materials/imgs/D47.png","arrowright","","[""materials/imgs/D51.png"",""materials/imgs/D85.png""]","false","random","","",""
"","","","","","html-keyboard-response","26","142134","0.0-10.0-0.0-0.8","3m1x5z3qvf","","3m1x5z3qvf","""2024-11-13T20:20:46.551Z""","null","+","null","","","","","","",""
"","","","","","image-keyboard-response","27","144246","0.0-10.0-0.0-1.8","3m1x5z3qvf","","3m1x5z3qvf","""2024-11-13T20:20:46.551Z""","2109","materials/imgs/D49.png","arrowright","","[""materials/imgs/D20.png"",""materials/imgs/D68.png""]","false","random","","",""
"","","","","","html-keyboard-response","28","144747","0.0-10.0-0.0-0.9","3m1x5z3qvf","","3m1x5z3qvf","""2024-11-13T20:20:46.551Z""","null","+","null","","","","","","",""
"","","","","","image-keyboard-response","29","146564","0.0-10.0-0.0-1.9","3m1x5z3qvf","","3m1x5z3qvf","""2024-11-13T20:20:46.551Z""","1816","materials/imgs/D103.png","arrowleft","","[""materials/imgs/D101.png"",""materials/imgs/D48.png""]","false","random","","",""
"","","","","","html-button-response","30","151075","0.0-11.0","3m1x5z3qvf","","3m1x5z3qvf","""2024-11-13T20:20:46.551Z""","4509","<p>Great job!</p>
      <p>You are now ready to begin the experiment.</p>
      <p>There will be around 200 trials. You will have opportunities to take breaks at three stages of the trials.</p>
      <p>When you are ready to begin please click 'Continue'.</p>","0","","","","","","",""
"","","","","","html-keyboard-response","31","153579","0.0-12.0","3m1x5z3qvf","","3m1x5z3qvf","""2024-11-13T20:20:46.551Z""","null","+","null","","","","","","",""
"","","","","","html-keyboard-response","32","154081","0.0-13.0-0.0-0.0","3m1x5z3qvf","","3m1x5z3qvf","""2024-11-13T20:20:46.551Z""","null","+","null","","","","","","",""
"","","","","","image-keyboard-response","33","157692","0.0-13.0-0.0-1.0","3m1x5z3qvf","","3m1x5z3qvf","""2024-11-13T20:20:46.551Z""","3609","materials/imgs/D37.png","arrowright","","[""materials/imgs/D84.png"",""materials/imgs/D46.png""]","false","random","","",""
"","","","","","html-keyboard-response","34","158193","0.0-13.0-0.0-0.1","3m1x5z3qvf","","3m1x5z3qvf","""2024-11-13T20:20:46.551Z""","null","+","null","","","","","","",""
"","","","","","image-keyboard-response","35","160061","0.0-13.0-0.0-1.1","3m1x5z3qvf","","3m1x5z3qvf","""2024-11-13T20:20:46.551Z""","1865","materials/imgs/D85.png","arrowleft","","[""materials/imgs/D79.png"",""materials/imgs/D106.png""]","false","random","","",""
"","","","","","html-keyboard-response","36","160562","0.0-13.0-0.0-0.2","3m1x5z3qvf","","3m1x5z3qvf","""2024-11-13T20:20:46.551Z""","null","+","null","","","","","","",""
"","","","","","image-keyboard-response","37","161589","0.0-13.0-0.0-1.2","3m1x5z3qvf","","3m1x5z3qvf","""2024-11-13T20:20:46.551Z""","1025","materials/imgs/D49.png","arrowright","","[""materials/imgs/D101.png"",""materials/imgs/D55.png""]","false","random","","",""
"","","","","","html-keyboard-response","38","162090","0.0-13.0-0.0-0.3","3m1x5z3qvf","","3m1x5z3qvf","""2024-11-13T20:20:46.551Z""","null","+","null","","","","","","",""
"","","","","","image-keyboard-response","39","163442","0.0-13.0-0.0-1.3","3m1x5z3qvf","","3m1x5z3qvf","""2024-11-13T20:20:46.551Z""","1351","materials/imgs/D57.png","arrowleft","","[""materials/imgs/D3.png"",""materials/imgs/D76.png""]","false","random","","",""
"","","","","","html-keyboard-response","40","163944","0.0-13.0-0.0-0.4","3m1x5z3qvf","","3m1x5z3qvf","""2024-11-13T20:20:46.551Z""","null","+","null","","","","","","",""
"","","","","","image-keyboard-response","41","165186","0.0-13.0-0.0-1.4","3m1x5z3qvf","","3m1x5z3qvf","""2024-11-13T20:20:46.551Z""","1240","materials/imgs/D35.png","arrowleft","","[""materials/imgs/D14.png"",""materials/imgs/D79.png""]","false","random","","",""
"","","","","","html-keyboard-response","42","165687","0.0-13.0-0.0-0.5","3m1x5z3qvf","","3m1x5z3qvf","""2024-11-13T20:20:46.551Z""","null","+","null","","","","","","",""
"","","","","","image-keyboard-response","43","166938","0.0-13.0-0.0-1.5","3m1x5z3qvf","","3m1x5z3qvf","""2024-11-13T20:20:46.551Z""","1249","materials/imgs/D11.png","arrowleft","","[""materials/imgs/D17.png"",""materials/imgs/D64.png""]","false","random","","",""
"","","","","","html-keyboard-response","44","167440","0.0-13.0-0.0-0.6","3m1x5z3qvf","","3m1x5z3qvf","""2024-11-13T20:20:46.551Z""","null","+","null","","","","","","",""
"","","","","","image-keyboard-response","45","170340","0.0-13.0-0.0-1.6","3m1x5z3qvf","","3m1x5z3qvf","""2024-11-13T20:20:46.551Z""","2898","materials/imgs/D6.png","arrowright","","[""materials/imgs/D49.png"",""materials/imgs/D104.png""]","false","random","","",""
"","","","","","html-keyboard-response","46","170841","0.0-13.0-1.0-0.0","3m1x5z3qvf","","3m1x5z3qvf","""2024-11-13T20:20:46.551Z""","null","+","null","","","","","","",""
"","","","","","image-keyboard-response","47","171967","0.0-13.0-1.0-1.0","3m1x5z3qvf","","3m1x5z3qvf","""2024-11-13T20:20:46.551Z""","1123","materials/imgs/D53.png","arrowright","","[""materials/imgs/D64.png"",""materials/imgs/D53.png""]","","check","materials/imgs/D53.png","1","true"
"","","","","","html-keyboard-response","48","172468","0.0-13.0-2.0-0.0","3m1x5z3qvf","","3m1x5z3qvf","""2024-11-13T20:20:46.551Z""","null","+","null","","","","","","",""
"","","","","","image-keyboard-response","49","175426","0.0-13.0-2.0-1.0","3m1x5z3qvf","","3m1x5z3qvf","""2024-11-13T20:20:46.551Z""","2957","materials/imgs/D101.png","arrowleft","","[""materials/imgs/D76.png"",""materials/imgs/D47.png""]","false","validation","","",""
"","","","","","html-keyboard-response","50","175928","0.0-13.0-2.0-0.1","3m1x5z3qvf","","3m1x5z3qvf","""2024-11-13T20:20:46.551Z""","null","+","null","","","","","","",""
"","","","","","image-keyboard-response","51","177573","0.0-13.0-2.0-1.1","3m1x5z3qvf","","3m1x5z3qvf","""2024-11-13T20:20:46.551Z""","1644","materials/imgs/D47.png","arrowleft","","[""materials/imgs/D1.png"",""materials/imgs/D52.png""]","false","validation","","",""
"","","","","","html-keyboard-response","52","178075","0.0-13.0-0.1-0.7","3m1x5z3qvf","","3m1x5z3qvf","""2024-11-13T20:20:46.551Z""","null","+","null","","","","","","",""
"","","","","","image-keyboard-response","53","180400","0.0-13.0-0.1-1.7","3m1x5z3qvf","","3m1x5z3qvf","""2024-11-13T20:20:46.551Z""","2324","materials/imgs/D22.png","arrowleft","","[""materials/imgs/D78.png"",""materials/imgs/D106.png""]","false","random","","",""
"","","","","","html-keyboard-response","54","180902","0.0-13.0-0.1-0.8","3m1x5z3qvf","","3m1x5z3qvf","""2024-11-13T20:20:46.551Z""","null","+","null","","","","","","",""
"","","","","","image-keyboard-response","55","182361","0.0-13.0-0.1-1.8","3m1x5z3qvf","","3m1x5z3qvf","""2024-11-13T20:20:46.551Z""","1457","materials/imgs/D81.png","arrowright","","[""materials/imgs/D76.png"",""materials/imgs/D9.png""]","false","random","","",""
"","","","","","html-keyboard-response","56","182863","0.0-13.0-0.1-0.9","3m1x5z3qvf","","3m1x5z3qvf","""2024-11-13T20:20:46.551Z""","null","+","null","","","","","","",""
"","","","","","image-keyboard-response","57","183691","0.0-13.0-0.1-1.9","3m1x5z3qvf","","3m1x5z3qvf","""2024-11-13T20:20:46.551Z""","827","materials/imgs/D66.png","arrowleft","","[""materials/imgs/D35.png"",""materials/imgs/D106.png""]","false","random","","",""
"","","","","","html-keyboard-response","58","184193","0.0-13.0-0.1-0.10","3m1x5z3qvf","","3m1x5z3qvf","""2024-11-13T20:20:46.551Z""","null","+","null","","","","","","",""
"","","","","","image-keyboard-response","59","185401","0.0-13.0-0.1-1.10","3m1x5z3qvf","","3m1x5z3qvf","""2024-11-13T20:20:46.551Z""","1206","materials/imgs/D68.png","arrowright","","[""materials/imgs/D16.png"",""materials/imgs/D82.png""]","false","random","","",""
"","","","","","html-keyboard-response","60","185902","0.0-13.0-0.1-0.11","3m1x5z3qvf","","3m1x5z3qvf","""2024-11-13T20:20:46.551Z""","null","+","null","","","","","","",""
"","","","","","image-keyboard-response","61","186874","0.0-13.0-0.1-1.11","3m1x5z3qvf","","3m1x5z3qvf","""2024-11-13T20:20:46.551Z""","970","materials/imgs/D37.png","arrowright","","[""materials/imgs/D49.png"",""materials/imgs/D65.png""]","false","random","","",""
"","","","","","html-keyboard-response","62","187375","0.0-13.0-0.1-0.12","3m1x5z3qvf","","3m1x5z3qvf","""2024-11-13T20:20:46.551Z""","null","+","null","","","","","","",""
"","","","","","image-keyboard-response","63","188348","0.0-13.0-0.1-1.12","3m1x5z3qvf","","3m1x5z3qvf","""2024-11-13T20:20:46.551Z""","971","materials/imgs/D16.png","arrowright","","[""materials/imgs/D25.png"",""materials/imgs/D78.png""]","false","random","","",""
"","","","","","html-keyboard-response","64","188849","0.0-13.0-0.1-0.13","3m1x5z3qvf","","3m1x5z3qvf","""2024-11-13T20:20:46.551Z""","null","+","null","","","","","","",""
"","","","","","image-keyboard-response","65","190198","0.0-13.0-0.1-1.13","3m1x5z3qvf","","3m1x5z3qvf","""2024-11-13T20:20:46.551Z""","1347","materials/imgs/D14.png","arrowleft","","[""materials/imgs/D106.png"",""materials/imgs/D77.png""]","false","random","","",""
"","","","","","html-keyboard-response","66","190698","0.0-13.0-1.1-0.1","3m1x5z3qvf","","3m1x5z3qvf","""2024-11-13T20:20:46.551Z""","null","+","null","","","","","","",""
"","","","","","image-keyboard-response","67","191392","0.0-13.0-1.1-1.1","3m1x5z3qvf","","3m1x5z3qvf","""2024-11-13T20:20:46.551Z""","692","materials/imgs/D53.png","arrowright","","[""materials/imgs/D64.png"",""materials/imgs/D53.png""]","","check","materials/imgs/D53.png","1","true"
"","","","","","html-keyboard-response","68","191893","0.0-13.0-2.1-0.2","3m1x5z3qvf","","3m1x5z3qvf","""2024-11-13T20:20:46.551Z""","null","+","null","","","","","","",""
"","","","","","image-keyboard-response","69","193519","0.0-13.0-2.1-1.2","3m1x5z3qvf","","3m1x5z3qvf","""2024-11-13T20:20:46.551Z""","1624","materials/imgs/D79.png","arrowleft","","[""materials/imgs/D51.png"",""materials/imgs/D64.png""]","false","validation","","",""
"","","","","","html-keyboard-response","70","194020","0.0-13.0-2.1-0.3","3m1x5z3qvf","","3m1x5z3qvf","""2024-11-13T20:20:46.551Z""","null","+","null","","","","","","",""
"","","","","","image-keyboard-response","71","195223","0.0-13.0-2.1-1.3","3m1x5z3qvf","","3m1x5z3qvf","""2024-11-13T20:20:46.551Z""","1201","materials/imgs/D76.png","arrowleft","","[""materials/imgs/D83.png"",""materials/imgs/D6.png""]","false","validation","","",""
"","","","","","html-keyboard-response","72","195724","0.0-13.0-0.2-0.14","3m1x5z3qvf","","3m1x5z3qvf","""2024-11-13T20:20:46.551Z""","null","+","null","","","","","","",""
"","","","","","image-keyboard-response","73","197490","0.0-13.0-0.2-1.14","3m1x5z3qvf","","3m1x5z3qvf","""2024-11-13T20:20:46.551Z""","1764","materials/imgs/D49.png","arrowleft","","[""materials/imgs/D85.png"",""materials/imgs/D64.png""]","false","random","","",""
"","","","","","html-keyboard-response","74","197992","0.0-13.0-0.2-0.15","3m1x5z3qvf","","3m1x5z3qvf","""2024-11-13T20:20:46.551Z""","null","+","null","","","","","","",""
"","","","","","image-keyboard-response","75","199329","0.0-13.0-0.2-1.15","3m1x5z3qvf","","3m1x5z3qvf","""2024-11-13T20:20:46.551Z""","1335","materials/imgs/D65.png","arrowleft","","[""materials/imgs/D52.png"",""materials/imgs/D105.png""]","false","random","","",""
"","","","","","html-keyboard-response","76","199830","0.0-13.0-0.2-0.16","3m1x5z3qvf","","3m1x5z3qvf","""2024-11-13T20:20:46.551Z""","null","+","null","","","","","","",""
"","","","","","image-keyboard-response","77","200828","0.0-13.0-0.2-1.16","3m1x5z3qvf","","3m1x5z3qvf","""2024-11-13T20:20:46.551Z""","996","materials/imgs/D82.png","arrowright","","[""materials/imgs/D101.png"",""materials/imgs/D92.png""]","false","random","","",""
"","","","","","html-keyboard-response","78","201329","0.0-13.0-0.2-0.17","3m1x5z3qvf","","3m1x5z3qvf","""2024-11-13T20:20:46.551Z""","null","+","null","","","","","","",""
"","","","","","image-keyboard-response","79","202569","0.0-13.0-0.2-1.17","3m1x5z3qvf","","3m1x5z3qvf","""2024-11-13T20:20:46.551Z""","1238","materials/imgs/D17.png","arrowleft","","[""materials/imgs/D53.png"",""materials/imgs/D64.png""]","false","random","","",""
"","","","","","html-keyboard-response","80","203070","0.0-13.0-0.2-0.18","3m1x5z3qvf","","3m1x5z3qvf","""2024-11-13T20:20:46.551Z""","null","+","null","","","","","","",""
"","","","","","image-keyboard-response","81","208064","0.0-13.0-0.2-1.18","3m1x5z3qvf","","3m1x5z3qvf","""2024-11-13T20:20:46.551Z""","4992","materials/imgs/D11.png","arrowleft","","[""materials/imgs/D48.png"",""materials/imgs/D77.png""]","false","random","","",""
"","","","","","html-keyboard-response","82","208566","0.0-13.0-0.2-0.19","3m1x5z3qvf","","3m1x5z3qvf","""2024-11-13T20:20:46.551Z""","null","+","null","","","","","","",""
"","","","","","image-keyboard-response","83","209456","0.0-13.0-0.2-1.19","3m1x5z3qvf","","3m1x5z3qvf","""2024-11-13T20:20:46.551Z""","889","materials/imgs/D105.png","arrowleft","","[""materials/imgs/D78.png"",""materials/imgs/D104.png""]","false","random","","",""
"","","","","","html-keyboard-response","84","209958","0.0-13.0-0.2-0.20","3m1x5z3qvf","","3m1x5z3qvf","""2024-11-13T20:20:46.551Z""","null","+","null","","","","","","",""
"","","","","","image-keyboard-response","85","211931","0.0-13.0-0.2-1.20","3m1x5z3qvf","","3m1x5z3qvf","""2024-11-13T20:20:46.551Z""","1971","materials/imgs/D64.png","arrowright","","[""materials/imgs/D25.png"",""materials/imgs/D26.png""]","false","random","","",""
"","","","","","html-keyboard-response","86","212432","0.0-13.0-1.2-0.2","3m1x5z3qvf","","3m1x5z3qvf","""2024-11-13T20:20:46.551Z""","null","+","null","","","","","","",""
"","","","","","image-keyboard-response","87","213622","0.0-13.0-1.2-1.2","3m1x5z3qvf","","3m1x5z3qvf","""2024-11-13T20:20:46.551Z""","1188","materials/imgs/D78.png","arrowright","","[""materials/imgs/D76.png"",""materials/imgs/D78.png""]","","check","materials/imgs/D78.png","1","true"
"","","","","","html-keyboard-response","88","214123","0.0-13.0-2.2-0.4","3m1x5z3qvf","","3m1x5z3qvf","""2024-11-13T20:20:46.551Z""","null","+","null","","","","","","",""
"","","","","","image-keyboard-response","89","215262","0.0-13.0-2.2-1.4","3m1x5z3qvf","","3m1x5z3qvf","""2024-11-13T20:20:46.551Z""","1137","materials/imgs/D106.png","arrowleft","","[""materials/imgs/D57.png"",""materials/imgs/D18.png""]","false","validation","","",""
"","","","","","html-keyboard-response","90","215764","0.0-13.0-2.2-0.5","3m1x5z3qvf","","3m1x5z3qvf","""2024-11-13T20:20:46.551Z""","null","+","null","","","","","","",""
"","","","","","image-keyboard-response","91","216801","0.0-13.0-2.2-1.5","3m1x5z3qvf","","3m1x5z3qvf","""2024-11-13T20:20:46.551Z""","1035","materials/imgs/D19.png","arrowleft","","[""materials/imgs/D111.png"",""materials/imgs/D56.png""]","false","validation","","",""
"","","","","","html-keyboard-response","92","217301","0.0-13.0-0.3-0.21","3m1x5z3qvf","","3m1x5z3qvf","""2024-11-13T20:20:46.551Z""","null","+","null","","","","","","",""
"","","","","","image-keyboard-response","93","218591","0.0-13.0-0.3-1.21","3m1x5z3qvf","","3m1x5z3qvf","""2024-11-13T20:20:46.551Z""","1288","materials/imgs/D21.png","arrowright","","[""materials/imgs/D84.png"",""materials/imgs/D36.png""]","false","random","","",""
"","","","","","html-keyboard-response","94","219092","0.0-13.0-0.3-0.22","3m1x5z3qvf","","3m1x5z3qvf","""2024-11-13T20:20:46.551Z""","null","+","null","","","","","","",""
"","","","","","image-keyboard-response","95","221004","0.0-13.0-0.3-1.22","3m1x5z3qvf","","3m1x5z3qvf","""2024-11-13T20:20:46.551Z""","1910","materials/imgs/D66.png","arrowright","","[""materials/imgs/D32.png"",""materials/imgs/D4.png""]","false","random","","",""
"","","","","","html-keyboard-response","96","221506","0.0-13.0-0.3-0.23","3m1x5z3qvf","","3m1x5z3qvf","""2024-11-13T20:20:46.551Z""","null","+","null","","","","","","",""
"","","","","","image-keyboard-response","97","224018","0.0-13.0-0.3-1.23","3m1x5z3qvf","","3m1x5z3qvf","""2024-11-13T20:20:46.551Z""","2510","materials/imgs/D79.png","arrowright","","[""materials/imgs/D18.png"",""materials/imgs/D32.png""]","false","random","","",""
"","","","","","html-keyboard-response","98","224519","0.0-13.0-0.3-0.24","3m1x5z3qvf","","3m1x5z3qvf","""2024-11-13T20:20:46.551Z""","null","+","null","","","","","","",""
"","","","","","image-keyboard-response","99","225854","0.0-13.0-0.3-1.24","3m1x5z3qvf","","3m1x5z3qvf","""2024-11-13T20:20:46.551Z""","1333","materials/imgs/D4.png","arrowleft","","[""materials/imgs/D21.png"",""materials/imgs/D34.png""]","false","random","","",""
"","","","","","html-keyboard-response","100","226355","0.0-13.0-0.3-0.25","3m1x5z3qvf","","3m1x5z3qvf","""2024-11-13T20:20:46.551Z""","null","+","null","","","","","","",""
"","","","","","image-keyboard-response","101","228280","0.0-13.0-0.3-1.25","3m1x5z3qvf","","3m1x5z3qvf","""2024-11-13T20:20:46.551Z""","1923","materials/imgs/D105.png","arrowleft","","[""materials/imgs/D37.png"",""materials/imgs/D94.png""]","false","random","","",""
"","","","","","html-keyboard-response","102","228782","0.0-13.0-0.3-0.26","3m1x5z3qvf","","3m1x5z3qvf","""2024-11-13T20:20:46.551Z""","null","+","null","","","","","","",""
"","","","","","image-keyboard-response","103","229804","0.0-13.0-0.3-1.26","3m1x5z3qvf","","3m1x5z3qvf","""2024-11-13T20:20:46.551Z""","1021","materials/imgs/D3.png","arrowleft","","[""materials/imgs/D81.png"",""materials/imgs/D49.png""]","false","random","","",""
"","","","","","html-keyboard-response","104","230306","0.0-13.0-0.3-0.27","3m1x5z3qvf","","3m1x5z3qvf","""2024-11-13T20:20:46.551Z""","null","+","null","","","","","","",""
"","","","","","image-keyboard-response","105","231646","0.0-13.0-0.3-1.27","3m1x5z3qvf","","3m1x5z3qvf","""2024-11-13T20:20:46.551Z""","1338","materials/imgs/D101.png","arrowright","","[""materials/imgs/D17.png"",""materials/imgs/D66.png""]","false","random","","",""
"","","","","","html-keyboard-response","106","232147","0.0-13.0-1.3-0.3","3m1x5z3qvf","","3m1x5z3qvf","""2024-11-13T20:20:46.551Z""","null","+","null","","","","","","",""
"","","","","","image-keyboard-response","107","233098","0.0-13.0-1.3-1.3","3m1x5z3qvf","","3m1x5z3qvf","""2024-11-13T20:20:46.551Z""","949","materials/imgs/D76.png","arrowleft","","[""materials/imgs/D76.png"",""materials/imgs/D78.png""]","","check","materials/imgs/D76.png","0","true"
"","","","","","html-keyboard-response","108","233602","0.0-13.0-2.3-0.6","3m1x5z3qvf","","3m1x5z3qvf","""2024-11-13T20:20:46.551Z""","null","+","null","","","","","","",""
"","","","","","image-keyboard-response","109","236580","0.0-13.0-2.3-1.6","3m1x5z3qvf","","3m1x5z3qvf","""2024-11-13T20:20:46.551Z""","2976","materials/imgs/D77.png","arrowleft","","[""materials/imgs/D102.png"",""materials/imgs/D65.png""]","false","validation","","",""
"","","","","","html-keyboard-response","110","237082","0.0-13.0-2.3-0.7","3m1x5z3qvf","","3m1x5z3qvf","""2024-11-13T20:20:46.551Z""","null","+","null","","","","","","",""
"","","","","","image-keyboard-response","111","238642","0.0-13.0-2.3-1.7","3m1x5z3qvf","","3m1x5z3qvf","""2024-11-13T20:20:46.551Z""","1559","materials/imgs/D76.png","arrowleft","","[""materials/imgs/D83.png"",""materials/imgs/D6.png""]","false","validation","","",""
"","","","","","html-keyboard-response","112","239144","0.0-13.0-0.4-0.28","3m1x5z3qvf","","3m1x5z3qvf","""2024-11-13T20:20:46.551Z""","null","+","null","","","","","","",""
"","","","","","image-keyboard-response","113","240510","0.0-13.0-0.4-1.28","3m1x5z3qvf","","3m1x5z3qvf","""2024-11-13T20:20:46.551Z""","1365","materials/imgs/D29.png","arrowright","","[""materials/imgs/D57.png"",""materials/imgs/D66.png""]","false","random","","",""
"","","","","","html-keyboard-response","114","241011","0.0-13.0-0.4-0.29","3m1x5z3qvf","","3m1x5z3qvf","""2024-11-13T20:20:46.551Z""","null","+","null","","","","","","",""
"","","","","","image-keyboard-response","115","242241","0.0-13.0-0.4-1.29","3m1x5z3qvf","","3m1x5z3qvf","""2024-11-13T20:20:46.551Z""","1228","materials/imgs/D9.png","arrowright","","[""materials/imgs/D20.png"",""materials/imgs/D32.png""]","false","random","","",""
"","","","","","html-keyboard-response","116","242742","0.0-13.0-0.4-0.30","3m1x5z3qvf","","3m1x5z3qvf","""2024-11-13T20:20:46.551Z""","null","+","null","","","","","","",""
"","","","","","image-keyboard-response","117","244453","0.0-13.0-0.4-1.30","3m1x5z3qvf","","3m1x5z3qvf","""2024-11-13T20:20:46.551Z""","1709","materials/imgs/D85.png","arrowleft","","[""materials/imgs/D6.png"",""materials/imgs/D48.png""]","false","random","","",""
"","","","","","html-keyboard-response","118","244954","0.0-13.0-0.4-0.31","3m1x5z3qvf","","3m1x5z3qvf","""2024-11-13T20:20:46.551Z""","null","+","null","","","","","","",""
"","","","","","image-keyboard-response","119","246498","0.0-13.0-0.4-1.31","3m1x5z3qvf","","3m1x5z3qvf","""2024-11-13T20:20:46.551Z""","1542","materials/imgs/D74.png","arrowright","","[""materials/imgs/D57.png"",""materials/imgs/D32.png""]","false","random","","",""
"","","","","","html-keyboard-response","120","246999","0.0-13.0-0.4-0.32","3m1x5z3qvf","","3m1x5z3qvf","""2024-11-13T20:20:46.551Z""","null","+","null","","","","","","",""
"","","","","","image-keyboard-response","121","248115","0.0-13.0-0.4-1.32","3m1x5z3qvf","","3m1x5z3qvf","""2024-11-13T20:20:46.551Z""","1114","materials/imgs/D16.png","arrowleft","","[""materials/imgs/D14.png"",""materials/imgs/D76.png""]","false","random","","",""
"","","","","","html-keyboard-response","122","248616","0.0-13.0-0.4-0.33","3m1x5z3qvf","","3m1x5z3qvf","""2024-11-13T20:20:46.551Z""","null","+","null","","","","","","",""
"","","","","","image-keyboard-response","123","252526","0.0-13.0-0.4-1.33","3m1x5z3qvf","","3m1x5z3qvf","""2024-11-13T20:20:46.551Z""","3908","materials/imgs/D74.png","arrowleft","","[""materials/imgs/D94.png"",""materials/imgs/D47.png""]","false","random","","",""
"","","","","","html-keyboard-response","124","253027","0.0-13.0-0.4-0.34","3m1x5z3qvf","","3m1x5z3qvf","""2024-11-13T20:20:46.551Z""","null","+","null","","","","","","",""
"","","","","","image-keyboard-response","125","253877","0.0-13.0-0.4-1.34","3m1x5z3qvf","","3m1x5z3qvf","""2024-11-13T20:20:46.551Z""","848","materials/imgs/D55.png","arrowright","","[""materials/imgs/D68.png"",""materials/imgs/D6.png""]","false","random","","",""
"","","","","","html-keyboard-response","126","254378","0.0-13.0-1.4-0.4","3m1x5z3qvf","","3m1x5z3qvf","""2024-11-13T20:20:46.551Z""","null","+","null","","","","","","",""
"","","","","","image-keyboard-response","127","255231","0.0-13.0-1.4-1.4","3m1x5z3qvf","","3m1x5z3qvf","""2024-11-13T20:20:46.551Z""","851","materials/imgs/D64.png","arrowleft","","[""materials/imgs/D64.png"",""materials/imgs/D53.png""]","","check","materials/imgs/D64.png","0","true"
"","","","","","html-keyboard-response","128","255733","0.0-13.0-2.4-0.8","3m1x5z3qvf","","3m1x5z3qvf","""2024-11-13T20:20:46.551Z""","null","+","null","","","","","","",""
"","","","","","image-keyboard-response","129","259043","0.0-13.0-2.4-1.8","3m1x5z3qvf","","3m1x5z3qvf","""2024-11-13T20:20:46.551Z""","3309","materials/imgs/D52.png","arrowright","","[""materials/imgs/D9.png"",""materials/imgs/D19.png""]","false","validation","","",""
"","","","","","html-keyboard-response","130","259545","0.0-13.0-2.4-0.9","3m1x5z3qvf","","3m1x5z3qvf","""2024-11-13T20:20:46.551Z""","null","+","null","","","","","","",""
"","","","","","image-keyboard-response","131","261433","0.0-13.0-2.4-1.9","3m1x5z3qvf","","3m1x5z3qvf","""2024-11-13T20:20:46.551Z""","1886","materials/imgs/D82.png","arrowright","","[""materials/imgs/D83.png"",""materials/imgs/D22.png""]","false","validation","","",""
"","","","","","html-button-response","132","264106","0.0-14.0","3m1x5z3qvf","","3m1x5z3qvf","""2024-11-13T20:20:46.551Z""","2672","You have completed 25% of the trials. Please click 'Continue' when you are ready proceed.","0","","","","","","",""
"","","","","","html-keyboard-response","133","264608","0.0-15.0-0.0-0.0","3m1x5z3qvf","","3m1x5z3qvf","""2024-11-13T20:20:46.551Z""","null","+","null","","","","","","",""
"","","","","","image-keyboard-response","134","266540","0.0-15.0-0.0-1.0","3m1x5z3qvf","","3m1x5z3qvf","""2024-11-13T20:20:46.551Z""","1931","materials/imgs/D17.png","arrowright","","[""materials/imgs/D64.png"",""materials/imgs/D77.png""]","false","random","","",""
"","","","","","html-keyboard-response","135","267041","0.0-15.0-0.0-0.1","3m1x5z3qvf","","3m1x5z3qvf","""2024-11-13T20:20:46.551Z""","null","+","null","","","","","","",""
"","","","","","image-keyboard-response","136","269423","0.0-15.0-0.0-1.1","3m1x5z3qvf","","3m1x5z3qvf","""2024-11-13T20:20:46.551Z""","2381","materials/imgs/D106.png","arrowright","","[""materials/imgs/D64.png"",""materials/imgs/D37.png""]","false","random","","",""
"","","","","","html-keyboard-response","137","269924","0.0-15.0-0.0-0.2","3m1x5z3qvf","","3m1x5z3qvf","""2024-11-13T20:20:46.551Z""","null","+","null","","","","","","",""
"","","","","","image-keyboard-response","138","270981","0.0-15.0-0.0-1.2","3m1x5z3qvf","","3m1x5z3qvf","""2024-11-13T20:20:46.551Z""","1055","materials/imgs/D103.png","arrowleft","","[""materials/imgs/D87.png"",""materials/imgs/D56.png""]","false","random","","",""
"","","","","","html-keyboard-response","139","271482","0.0-15.0-0.0-0.3","3m1x5z3qvf","","3m1x5z3qvf","""2024-11-13T20:20:46.551Z""","null","+","null","","","","","","",""
"","","","","","image-keyboard-response","140","274406","0.0-15.0-0.0-1.3","3m1x5z3qvf","","3m1x5z3qvf","""2024-11-13T20:20:46.551Z""","2922","materials/imgs/D85.png","arrowleft","","[""materials/imgs/D34.png"",""materials/imgs/D66.png""]","false","random","","",""
"","","","","","html-keyboard-response","141","274908","0.0-15.0-0.0-0.4","3m1x5z3qvf","","3m1x5z3qvf","""2024-11-13T20:20:46.551Z""","null","+","null","","","","","","",""
"","","","","","image-keyboard-response","142","275999","0.0-15.0-0.0-1.4","3m1x5z3qvf","","3m1x5z3qvf","""2024-11-13T20:20:46.551Z""","1089","materials/imgs/D22.png","arrowleft","","[""materials/imgs/D82.png"",""materials/imgs/D46.png""]","false","random","","",""
"","","","","","html-keyboard-response","143","276501","0.0-15.0-0.0-0.5","3m1x5z3qvf","","3m1x5z3qvf","""2024-11-13T20:20:46.551Z""","null","+","null","","","","","","",""
"","","","","","image-keyboard-response","144","278108","0.0-15.0-0.0-1.5","3m1x5z3qvf","","3m1x5z3qvf","""2024-11-13T20:20:46.551Z""","1605","materials/imgs/D17.png","arrowright","","[""materials/imgs/D9.png"",""materials/imgs/D46.png""]","false","random","","",""
"","","","","","html-keyboard-response","145","278609","0.0-15.0-0.0-0.6","3m1x5z3qvf","","3m1x5z3qvf","""2024-11-13T20:20:46.551Z""","null","+","null","","","","","","",""
"","","","","","image-keyboard-response","146","279783","0.0-15.0-0.0-1.6","3m1x5z3qvf","","3m1x5z3qvf","""2024-11-13T20:20:46.551Z""","1172","materials/imgs/D94.png","arrowright","","[""materials/imgs/D53.png"",""materials/imgs/D52.png""]","false","random","","",""
"","","","","","html-keyboard-response","147","280284","0.0-15.0-1.0-0.0","3m1x5z3qvf","","3m1x5z3qvf","""2024-11-13T20:20:46.551Z""","null","+","null","","","","","","",""
"","","","","","image-keyboard-response","148","281424","0.0-15.0-1.0-1.0","3m1x5z3qvf","","3m1x5z3qvf","""2024-11-13T20:20:46.551Z""","1138","materials/imgs/D26.png","arrowleft","","[""materials/imgs/D26.png"",""materials/imgs/D46.png""]","","check","materials/imgs/D26.png","0","true"
"","","","","","html-keyboard-response","149","281925","0.0-15.0-2.0-0.0","3m1x5z3qvf","","3m1x5z3qvf","""2024-11-13T20:20:46.551Z""","null","+","null","","","","","","",""
"","","","","","image-keyboard-response","150","283069","0.0-15.0-2.0-1.0","3m1x5z3qvf","","3m1x5z3qvf","""2024-11-13T20:20:46.551Z""","1142","materials/imgs/D102.png","arrowright","","[""materials/imgs/D32.png"",""materials/imgs/D111.png""]","false","validation","","",""
"","","","","","html-keyboard-response","151","283571","0.0-15.0-2.0-0.1","3m1x5z3qvf","","3m1x5z3qvf","""2024-11-13T20:20:46.551Z""","null","+","null","","","","","","",""
"","","","","","image-keyboard-response","152","284821","0.0-15.0-2.0-1.1","3m1x5z3qvf","","3m1x5z3qvf","""2024-11-13T20:20:46.551Z""","1249","materials/imgs/D19.png","arrowleft","","[""materials/imgs/D111.png"",""materials/imgs/D56.png""]","false","validation","","",""
"","","","","","html-keyboard-response","153","285322","0.0-15.0-0.1-0.7","3m1x5z3qvf","","3m1x5z3qvf","""2024-11-13T20:20:46.551Z""","null","+","null","","","","","","",""
"","","","","","image-keyboard-response","154","288118","0.0-15.0-0.1-1.7","3m1x5z3qvf","","3m1x5z3qvf","""2024-11-13T20:20:46.551Z""","2795","materials/imgs/D14.png","arrowleft","","[""materials/imgs/D52.png"",""materials/imgs/D36.png""]","false","random","","",""
"","","","","","html-keyboard-response","155","288620","0.0-15.0-0.1-0.8","3m1x5z3qvf","","3m1x5z3qvf","""2024-11-13T20:20:46.551Z""","null","+","null","","","","","","",""
"","","","","","image-keyboard-response","156","289666","0.0-15.0-0.1-1.8","3m1x5z3qvf","","3m1x5z3qvf","""2024-11-13T20:20:46.551Z""","1044","materials/imgs/D37.png","arrowleft","","[""materials/imgs/D68.png"",""materials/imgs/D81.png""]","false","random","","",""
"","","","","","html-keyboard-response","157","290167","0.0-15.0-0.1-0.9","3m1x5z3qvf","","3m1x5z3qvf","""2024-11-13T20:20:46.551Z""","null","+","null","","","","","","",""
"","","","","","image-keyboard-response","158","293662","0.0-15.0-0.1-1.9","3m1x5z3qvf","","3m1x5z3qvf","""2024-11-13T20:20:46.551Z""","3493","materials/imgs/D37.png","arrowleft","","[""materials/imgs/D26.png"",""materials/imgs/D46.png""]","false","random","","",""
"","","","","","html-keyboard-response","159","294163","0.0-15.0-0.1-0.10","3m1x5z3qvf","","3m1x5z3qvf","""2024-11-13T20:20:46.551Z""","null","+","null","","","","","","",""
"","","","","","image-keyboard-response","160","296742","0.0-15.0-0.1-1.10","3m1x5z3qvf","","3m1x5z3qvf","""2024-11-13T20:20:46.551Z""","2578","materials/imgs/D29.png","arrowleft","","[""materials/imgs/D68.png"",""materials/imgs/D79.png""]","false","random","","",""
"","","","","","html-keyboard-response","161","297244","0.0-15.0-0.1-0.11","3m1x5z3qvf","","3m1x5z3qvf","""2024-11-13T20:20:46.551Z""","null","+","null","","","","","","",""
"","","","","","image-keyboard-response","162","298404","0.0-15.0-0.1-1.11","3m1x5z3qvf","","3m1x5z3qvf","""2024-11-13T20:20:46.551Z""","1158","materials/imgs/D81.png","arrowright","","[""materials/imgs/D51.png"",""materials/imgs/D19.png""]","false","random","","",""
"","","","","","html-keyboard-response","163","298905","0.0-15.0-0.1-0.12","3m1x5z3qvf","","3m1x5z3qvf","""2024-11-13T20:20:46.551Z""","null","+","null","","","","","","",""
"","","","","","image-keyboard-response","164","300033","0.0-15.0-0.1-1.12","3m1x5z3qvf","","3m1x5z3qvf","""2024-11-13T20:20:46.551Z""","1126","materials/imgs/D22.png","arrowright","","[""materials/imgs/D49.png"",""materials/imgs/D20.png""]","false","random","","",""
"","","","","","html-keyboard-response","165","300535","0.0-15.0-0.1-0.13","3m1x5z3qvf","","3m1x5z3qvf","""2024-11-13T20:20:46.551Z""","null","+","null","","","","","","",""
"","","","","","image-keyboard-response","166","301861","0.0-15.0-0.1-1.13","3m1x5z3qvf","","3m1x5z3qvf","""2024-11-13T20:20:46.551Z""","1324","materials/imgs/D11.png","arrowleft","","[""materials/imgs/D55.png"",""materials/imgs/D78.png""]","false","random","","",""
"","","","","","html-keyboard-response","167","302363","0.0-15.0-1.1-0.1","3m1x5z3qvf","","3m1x5z3qvf","""2024-11-13T20:20:46.551Z""","null","+","null","","","","","","",""
"","","","","","image-keyboard-response","168","303382","0.0-15.0-1.1-1.1","3m1x5z3qvf","","3m1x5z3qvf","""2024-11-13T20:20:46.551Z""","1018","materials/imgs/D78.png","arrowright","","[""materials/imgs/D76.png"",""materials/imgs/D78.png""]","","check","materials/imgs/D78.png","1","true"
"","","","","","html-keyboard-response","169","303883","0.0-15.0-2.1-0.2","3m1x5z3qvf","","3m1x5z3qvf","""2024-11-13T20:20:46.551Z""","null","+","null","","","","","","",""
"","","","","","image-keyboard-response","170","305738","0.0-15.0-2.1-1.2","3m1x5z3qvf","","3m1x5z3qvf","""2024-11-13T20:20:46.551Z""","1853","materials/imgs/D66.png","arrowleft","","[""materials/imgs/D85.png"",""materials/imgs/D25.png""]","false","validation","","",""
"","","","","","html-keyboard-response","171","306239","0.0-15.0-2.1-0.3","3m1x5z3qvf","","3m1x5z3qvf","""2024-11-13T20:20:46.551Z""","null","+","null","","","","","","",""
"","","","","","image-keyboard-response","172","307393","0.0-15.0-2.1-1.3","3m1x5z3qvf","","3m1x5z3qvf","""2024-11-13T20:20:46.551Z""","1153","materials/imgs/D3.png","arrowleft","","[""materials/imgs/D79.png"",""materials/imgs/D48.png""]","false","validation","","",""
"","","","","","html-keyboard-response","173","307894","0.0-15.0-0.2-0.14","3m1x5z3qvf","","3m1x5z3qvf","""2024-11-13T20:20:46.551Z""","null","+","null","","","","","","",""
"","","","","","image-keyboard-response","174","310805","0.0-15.0-0.2-1.14","3m1x5z3qvf","","3m1x5z3qvf","""2024-11-13T20:20:46.551Z""","2909","materials/imgs/D95.png","arrowright","","[""materials/imgs/D49.png"",""materials/imgs/D48.png""]","false","random","","",""
"","","","","","html-keyboard-response","175","311306","0.0-15.0-0.2-0.15","3m1x5z3qvf","","3m1x5z3qvf","""2024-11-13T20:20:46.551Z""","null","+","null","","","","","","",""
"","","","","","image-keyboard-response","176","313466","0.0-15.0-0.2-1.15","3m1x5z3qvf","","3m1x5z3qvf","""2024-11-13T20:20:46.551Z""","2158","materials/imgs/D4.png","arrowright","","[""materials/imgs/D104.png"",""materials/imgs/D106.png""]","false","random","","",""
"","","","","","html-keyboard-response","177","313968","0.0-15.0-0.2-0.16","3m1x5z3qvf","","3m1x5z3qvf","""2024-11-13T20:20:46.551Z""","null","+","null","","","","","","",""
"","","","","","image-keyboard-response","178","316275","0.0-15.0-0.2-1.16","3m1x5z3qvf","","3m1x5z3qvf","""2024-11-13T20:20:46.551Z""","2305","materials/imgs/D11.png","arrowleft","","[""materials/imgs/D87.png"",""materials/imgs/D46.png""]","false","random","","",""
"","","","","","html-keyboard-response","179","316776","0.0-15.0-0.2-0.17","3m1x5z3qvf","","3m1x5z3qvf","""2024-11-13T20:20:46.551Z""","null","+","null","","","","","","",""
"","","","","","image-keyboard-response","180","320406","0.0-15.0-0.2-1.17","3m1x5z3qvf","","3m1x5z3qvf","""2024-11-13T20:20:46.551Z""","3628","materials/imgs/D52.png","arrowleft","","[""materials/imgs/D19.png"",""materials/imgs/D25.png""]","false","random","","",""
"","","","","","html-keyboard-response","181","320908","0.0-15.0-0.2-0.18","3m1x5z3qvf","","3m1x5z3qvf","""2024-11-13T20:20:46.551Z""","null","+","null","","","","","","",""
"","","","","","image-keyboard-response","182","322852","0.0-15.0-0.2-1.18","3m1x5z3qvf","","3m1x5z3qvf","""2024-11-13T20:20:46.551Z""","1942","materials/imgs/D3.png","arrowleft","","[""materials/imgs/D74.png"",""materials/imgs/D76.png""]","false","random","","",""
"","","","","","html-keyboard-response","183","323352","0.0-15.0-0.2-0.19","3m1x5z3qvf","","3m1x5z3qvf","""2024-11-13T20:20:46.551Z""","null","+","null","","","","","","",""
"","","","","","image-keyboard-response","184","324761","0.0-15.0-0.2-1.19","3m1x5z3qvf","","3m1x5z3qvf","""2024-11-13T20:20:46.551Z""","1407","materials/imgs/D26.png","arrowright","","[""materials/imgs/D19.png"",""materials/imgs/D96.png""]","false","random","","",""
"","","","","","html-keyboard-response","185","325263","0.0-15.0-0.2-0.20","3m1x5z3qvf","","3m1x5z3qvf","""2024-11-13T20:20:46.551Z""","null","+","null","","","","","","",""
"","","","","","image-keyboard-response","186","326738","0.0-15.0-0.2-1.20","3m1x5z3qvf","","3m1x5z3qvf","""2024-11-13T20:20:46.551Z""","1474","materials/imgs/D24.png","arrowright","","[""materials/imgs/D37.png"",""materials/imgs/D66.png""]","false","random","","",""
"","","","","","html-keyboard-response","187","327239","0.0-15.0-1.2-0.2","3m1x5z3qvf","","3m1x5z3qvf","""2024-11-13T20:20:46.551Z""","null","+","null","","","","","","",""
"","","","","","image-keyboard-response","188","327929","0.0-15.0-1.2-1.2","3m1x5z3qvf","","3m1x5z3qvf","""2024-11-13T20:20:46.551Z""","688","materials/imgs/D106.png","arrowleft","","[""materials/imgs/D106.png"",""materials/imgs/D101.png""]","","check","materials/imgs/D106.png","0","true"
"","","","","","html-keyboard-response","189","328430","0.0-15.0-2.2-0.4","3m1x5z3qvf","","3m1x5z3qvf","""2024-11-13T20:20:46.551Z""","null","+","null","","","","","","",""
"","","","","","image-keyboard-response","190","331674","0.0-15.0-2.2-1.4","3m1x5z3qvf","","3m1x5z3qvf","""2024-11-13T20:20:46.551Z""","3243","materials/imgs/D46.png","arrowleft","","[""materials/imgs/D92.png"",""materials/imgs/D77.png""]","false","validation","","",""
"","","","","","html-keyboard-response","191","332175","0.0-15.0-2.2-0.5","3m1x5z3qvf","","3m1x5z3qvf","""2024-11-13T20:20:46.551Z""","null","+","null","","","","","","",""
"","","","","","image-keyboard-response","192","334127","0.0-15.0-2.2-1.5","3m1x5z3qvf","","3m1x5z3qvf","""2024-11-13T20:20:46.551Z""","1950","materials/imgs/D84.png","arrowright","","[""materials/imgs/D106.png"",""materials/imgs/D37.png""]","false","validation","","",""
"","","","","","html-keyboard-response","193","334628","0.0-15.0-0.3-0.21","3m1x5z3qvf","","3m1x5z3qvf","""2024-11-13T20:20:46.551Z""","null","+","null","","","","","","",""
"","","","","","image-keyboard-response","194","335814","0.0-15.0-0.3-1.21","3m1x5z3qvf","","3m1x5z3qvf","""2024-11-13T20:20:46.551Z""","1184","materials/imgs/D76.png","arrowleft","","[""materials/imgs/D18.png"",""materials/imgs/D94.png""]","false","random","","",""
"","","","","","html-keyboard-response","195","336315","0.0-15.0-0.3-0.22","3m1x5z3qvf","","3m1x5z3qvf","""2024-11-13T20:20:46.551Z""","null","+","null","","","","","","",""
"","","","","","image-keyboard-response","196","337258","0.0-15.0-0.3-1.22","3m1x5z3qvf","","3m1x5z3qvf","""2024-11-13T20:20:46.551Z""","941","materials/imgs/D84.png","arrowleft","","[""materials/imgs/D3.png"",""materials/imgs/D26.png""]","false","random","","",""
"","","","","","html-keyboard-response","197","337760","0.0-15.0-0.3-0.23","3m1x5z3qvf","","3m1x5z3qvf","""2024-11-13T20:20:46.551Z""","null","+","null","","","","","","",""
"","","","","","image-keyboard-response","198","339765","0.0-15.0-0.3-1.23","3m1x5z3qvf","","3m1x5z3qvf","""2024-11-13T20:20:46.551Z""","2003","materials/imgs/D82.png","arrowleft","","[""materials/imgs/D35.png"",""materials/imgs/D47.png""]","false","random","","",""
"","","","","","html-keyboard-response","199","340266","0.0-15.0-0.3-0.24","3m1x5z3qvf","","3m1x5z3qvf","""2024-11-13T20:20:46.551Z""","null","+","null","","","","","","",""
"","","","","","image-keyboard-response","200","341042","0.0-15.0-0.3-1.24","3m1x5z3qvf","","3m1x5z3qvf","""2024-11-13T20:20:46.551Z""","774","materials/imgs/D65.png","arrowleft","","[""materials/imgs/D52.png"",""materials/imgs/D77.png""]","false","random","","",""
"","","","","","html-keyboard-response","201","341544","0.0-15.0-0.3-0.25","3m1x5z3qvf","","3m1x5z3qvf","""2024-11-13T20:20:46.551Z""","null","+","null","","","","","","",""
"","","","","","image-keyboard-response","202","343627","0.0-15.0-0.3-1.25","3m1x5z3qvf","","3m1x5z3qvf","""2024-11-13T20:20:46.551Z""","2081","materials/imgs/D87.png","arrowright","","[""materials/imgs/D49.png"",""materials/imgs/D104.png""]","false","random","","",""
"","","","","","html-keyboard-response","203","344128","0.0-15.0-0.3-0.26","3m1x5z3qvf","","3m1x5z3qvf","""2024-11-13T20:20:46.551Z""","null","+","null","","","","","","",""
"","","","","","image-keyboard-response","204","346247","0.0-15.0-0.3-1.26","3m1x5z3qvf","","3m1x5z3qvf","""2024-11-13T20:20:46.551Z""","2117","materials/imgs/D16.png","arrowright","","[""materials/imgs/D66.png"",""materials/imgs/D3.png""]","false","random","","",""
"","","","","","html-keyboard-response","205","346748","0.0-15.0-0.3-0.27","3m1x5z3qvf","","3m1x5z3qvf","""2024-11-13T20:20:46.551Z""","null","+","null","","","","","","",""
"","","","","","image-keyboard-response","206","349707","0.0-15.0-0.3-1.27","3m1x5z3qvf","","3m1x5z3qvf","""2024-11-13T20:20:46.551Z""","2957","materials/imgs/D24.png","arrowleft","","[""materials/imgs/D84.png"",""materials/imgs/D57.png""]","false","random","","",""
"","","","","","html-keyboard-response","207","350208","0.0-15.0-1.3-0.3","3m1x5z3qvf","","3m1x5z3qvf","""2024-11-13T20:20:46.551Z""","null","+","null","","","","","","",""
"","","","","","image-keyboard-response","208","351365","0.0-15.0-1.3-1.3","3m1x5z3qvf","","3m1x5z3qvf","""2024-11-13T20:20:46.551Z""","1155","materials/imgs/D26.png","arrowleft","","[""materials/imgs/D26.png"",""materials/imgs/D46.png""]","","check","materials/imgs/D26.png","0","true"
"","","","","","html-keyboard-response","209","351867","0.0-15.0-2.3-0.6","3m1x5z3qvf","","3m1x5z3qvf","""2024-11-13T20:20:46.551Z""","null","+","null","","","","","","",""
"","","","","","image-keyboard-response","210","353263","0.0-15.0-2.3-1.6","3m1x5z3qvf","","3m1x5z3qvf","""2024-11-13T20:20:46.551Z""","1394","materials/imgs/D83.png","arrowright","","[""materials/imgs/D24.png"",""materials/imgs/D8.png""]","false","validation","","",""
"","","","","","html-keyboard-response","211","353764","0.0-15.0-2.3-0.7","3m1x5z3qvf","","3m1x5z3qvf","""2024-11-13T20:20:46.551Z""","null","+","null","","","","","","",""
"","","","","","image-keyboard-response","212","355077","0.0-15.0-2.3-1.7","3m1x5z3qvf","","3m1x5z3qvf","""2024-11-13T20:20:46.551Z""","1311","materials/imgs/D48.png","arrowleft","","[""materials/imgs/D4.png"",""materials/imgs/D37.png""]","false","validation","","",""
"","","","","","html-keyboard-response","213","355578","0.0-15.0-0.4-0.28","3m1x5z3qvf","","3m1x5z3qvf","""2024-11-13T20:20:46.551Z""","null","+","null","","","","","","",""
"","","","","","image-keyboard-response","214","356853","0.0-15.0-0.4-1.28","3m1x5z3qvf","","3m1x5z3qvf","""2024-11-13T20:20:46.551Z""","1273","materials/imgs/D48.png","arrowleft","","[""materials/imgs/D104.png"",""materials/imgs/D80.png""]","false","random","","",""
"","","","","","html-keyboard-response","215","357353","0.0-15.0-0.4-0.29","3m1x5z3qvf","","3m1x5z3qvf","""2024-11-13T20:20:46.551Z""","null","+","null","","","","","","",""
"","","","","","image-keyboard-response","216","359994","0.0-15.0-0.4-1.29","3m1x5z3qvf","","3m1x5z3qvf","""2024-11-13T20:20:46.551Z""","2639","materials/imgs/D95.png","arrowleft","","[""materials/imgs/D92.png"",""materials/imgs/D21.png""]","false","random","","",""
"","","","","","html-keyboard-response","217","360496","0.0-15.0-0.4-0.30","3m1x5z3qvf","","3m1x5z3qvf","""2024-11-13T20:20:46.551Z""","null","+","null","","","","","","",""
"","","","","","image-keyboard-response","218","362103","0.0-15.0-0.4-1.30","3m1x5z3qvf","","3m1x5z3qvf","""2024-11-13T20:20:46.551Z""","1605","materials/imgs/D55.png","arrowleft","","[""materials/imgs/D21.png"",""materials/imgs/D82.png""]","false","random","","",""
"","","","","","html-keyboard-response","219","362604","0.0-15.0-0.4-0.31","3m1x5z3qvf","","3m1x5z3qvf","""2024-11-13T20:20:46.551Z""","null","+","null","","","","","","",""
"","","","","","image-keyboard-response","220","365444","0.0-15.0-0.4-1.31","3m1x5z3qvf","","3m1x5z3qvf","""2024-11-13T20:20:46.551Z""","2837","materials/imgs/D83.png","arrowright","","[""materials/imgs/D105.png"",""materials/imgs/D56.png""]","false","random","","",""
"","","","","","html-keyboard-response","221","365945","0.0-15.0-0.4-0.32","3m1x5z3qvf","","3m1x5z3qvf","""2024-11-13T20:20:46.551Z""","null","+","null","","","","","","",""
"","","","","","image-keyboard-response","222","368187","0.0-15.0-0.4-1.32","3m1x5z3qvf","","3m1x5z3qvf","""2024-11-13T20:20:46.551Z""","2240","materials/imgs/D9.png","arrowright","","[""materials/imgs/D17.png"",""materials/imgs/D92.png""]","false","random","","",""
"","","","","","html-keyboard-response","223","368688","0.0-15.0-0.4-0.33","3m1x5z3qvf","","3m1x5z3qvf","""2024-11-13T20:20:46.551Z""","null","+","null","","","","","","",""
"","","","","","image-keyboard-response","224","370353","0.0-15.0-0.4-1.33","3m1x5z3qvf","","3m1x5z3qvf","""2024-11-13T20:20:46.551Z""","1663","materials/imgs/D53.png","arrowleft","","[""materials/imgs/D24.png"",""materials/imgs/D19.png""]","false","random","","",""
"","","","","","html-keyboard-response","225","370854","0.0-15.0-0.4-0.34","3m1x5z3qvf","","3m1x5z3qvf","""2024-11-13T20:20:46.551Z""","null","+","null","","","","","","",""
"","","","","","image-keyboard-response","226","372488","0.0-15.0-0.4-1.34","3m1x5z3qvf","","3m1x5z3qvf","""2024-11-13T20:20:46.551Z""","1632","materials/imgs/D51.png","arrowleft","","[""materials/imgs/D55.png"",""materials/imgs/D103.png""]","false","random","","",""
"","","","","","html-keyboard-response","227","372989","0.0-15.0-1.4-0.4","3m1x5z3qvf","","3m1x5z3qvf","""2024-11-13T20:20:46.551Z""","null","+","null","","","","","","",""
"","","","","","image-keyboard-response","228","373769","0.0-15.0-1.4-1.4","3m1x5z3qvf","","3m1x5z3qvf","""2024-11-13T20:20:46.551Z""","778","materials/imgs/D53.png","arrowright","","[""materials/imgs/D64.png"",""materials/imgs/D53.png""]","","check","materials/imgs/D53.png","1","true"
"","","","","","html-keyboard-response","229","374270","0.0-15.0-2.4-0.8","3m1x5z3qvf","","3m1x5z3qvf","""2024-11-13T20:20:46.551Z""","null","+","null","","","","","","",""
"","","","","","image-keyboard-response","230","376049","0.0-15.0-2.4-1.8","3m1x5z3qvf","","3m1x5z3qvf","""2024-11-13T20:20:46.551Z""","1778","materials/imgs/D35.png","arrowleft","","[""materials/imgs/D83.png"",""materials/imgs/D24.png""]","false","validation","","",""
"","","","","","html-keyboard-response","231","376550","0.0-15.0-2.4-0.9","3m1x5z3qvf","","3m1x5z3qvf","""2024-11-13T20:20:46.551Z""","null","+","null","","","","","","",""
"","","","","","image-keyboard-response","232","377497","0.0-15.0-2.4-1.9","3m1x5z3qvf","","3m1x5z3qvf","""2024-11-13T20:20:46.551Z""","945","materials/imgs/D53.png","arrowleft","","[""materials/imgs/D77.png"",""materials/imgs/D75.png""]","false","validation","","",""
"","","","","","html-button-response","233","397063","0.0-16.0","3m1x5z3qvf","","3m1x5z3qvf","""2024-11-13T20:20:46.551Z""","19565","You have completed 50% of the trials. Please click 'Continue' when you are ready proceed.","0","","","","","","",""
"","","","","","html-keyboard-response","234","397564","0.0-17.0-0.0-0.0","3m1x5z3qvf","","3m1x5z3qvf","""2024-11-13T20:20:46.551Z""","null","+","null","","","","","","",""
"","","","","","image-keyboard-response","235","399595","0.0-17.0-0.0-1.0","3m1x5z3qvf","","3m1x5z3qvf","""2024-11-13T20:20:46.551Z""","2024","materials/imgs/D34.png","arrowleft","","[""materials/imgs/D83.png"",""materials/imgs/D64.png""]","false","random","","",""
"","","","","","html-keyboard-response","236","400096","0.0-17.0-0.0-0.1","3m1x5z3qvf","","3m1x5z3qvf","""2024-11-13T20:20:46.551Z""","null","+","null","","","","","","",""
"","","","","","image-keyboard-response","237","402125","0.0-17.0-0.0-1.1","3m1x5z3qvf","","3m1x5z3qvf","""2024-11-13T20:20:46.551Z""","2027","materials/imgs/D36.png","arrowright","","[""materials/imgs/D51.png"",""materials/imgs/D75.png""]","false","random","","",""
"","","","","","html-keyboard-response","238","402626","0.0-17.0-0.0-0.2","3m1x5z3qvf","","3m1x5z3qvf","""2024-11-13T20:20:46.551Z""","null","+","null","","","","","","",""
"","","","","","image-keyboard-response","239","403916","0.0-17.0-0.0-1.2","3m1x5z3qvf","","3m1x5z3qvf","""2024-11-13T20:20:46.551Z""","1287","materials/imgs/D65.png","arrowright","","[""materials/imgs/D84.png"",""materials/imgs/D80.png""]","false","random","","",""
"","","","","","html-keyboard-response","240","404417","0.0-17.0-0.0-0.3","3m1x5z3qvf","","3m1x5z3qvf","""2024-11-13T20:20:46.551Z""","null","+","null","","","","","","",""
"","","","","","image-keyboard-response","241","405116","0.0-17.0-0.0-1.3","3m1x5z3qvf","","3m1x5z3qvf","""2024-11-13T20:20:46.551Z""","698","materials/imgs/D17.png","arrowright","","[""materials/imgs/D75.png"",""materials/imgs/D49.png""]","false","random","","",""
"","","","","","html-keyboard-response","242","405618","0.0-17.0-0.0-0.4","3m1x5z3qvf","","3m1x5z3qvf","""2024-11-13T20:20:46.551Z""","null","+","null","","","","","","",""
"","","","","","image-keyboard-response","243","406362","0.0-17.0-0.0-1.4","3m1x5z3qvf","","3m1x5z3qvf","""2024-11-13T20:20:46.551Z""","742","materials/imgs/D85.png","arrowright","","[""materials/imgs/D82.png"",""materials/imgs/D11.png""]","false","random","","",""
"","","","","","html-keyboard-response","244","406863","0.0-17.0-0.0-0.5","3m1x5z3qvf","","3m1x5z3qvf","""2024-11-13T20:20:46.551Z""","null","+","null","","","","","","",""
"","","","","","image-keyboard-response","245","408741","0.0-17.0-0.0-1.5","3m1x5z3qvf","","3m1x5z3qvf","""2024-11-13T20:20:46.551Z""","1876","materials/imgs/D49.png","arrowleft","","[""materials/imgs/D96.png"",""materials/imgs/D65.png""]","false","random","","",""
"","","","","","html-keyboard-response","246","409242","0.0-17.0-0.0-0.6","3m1x5z3qvf","","3m1x5z3qvf","""2024-11-13T20:20:46.551Z""","null","+","null","","","","","","",""
"","","","","","image-keyboard-response","247","411447","0.0-17.0-0.0-1.6","3m1x5z3qvf","","3m1x5z3qvf","""2024-11-13T20:20:46.551Z""","2204","materials/imgs/D94.png","arrowleft","","[""materials/imgs/D51.png"",""materials/imgs/D48.png""]","false","random","","",""
"","","","","","html-keyboard-response","248","411949","0.0-17.0-1.0-0.0","3m1x5z3qvf","","3m1x5z3qvf","""2024-11-13T20:20:46.551Z""","null","+","null","","","","","","",""
"","","","","","image-keyboard-response","249","412876","0.0-17.0-1.0-1.0","3m1x5z3qvf","","3m1x5z3qvf","""2024-11-13T20:20:46.551Z""","926","materials/imgs/D8.png","arrowright","","[""materials/imgs/D18.png"",""materials/imgs/D8.png""]","","check","materials/imgs/D8.png","1","true"
"","","","","","html-keyboard-response","250","413377","0.0-17.0-2.0-0.0","3m1x5z3qvf","","3m1x5z3qvf","""2024-11-13T20:20:46.551Z""","null","+","null","","","","","","",""
"","","","","","image-keyboard-response","251","414631","0.0-17.0-2.0-1.0","3m1x5z3qvf","","3m1x5z3qvf","""2024-11-13T20:20:46.551Z""","1252","materials/imgs/D64.png","arrowleft","","[""materials/imgs/D6.png"",""materials/imgs/D81.png""]","false","validation","","",""
"","","","","","html-keyboard-response","252","415131","0.0-17.0-2.0-0.1","3m1x5z3qvf","","3m1x5z3qvf","""2024-11-13T20:20:46.551Z""","null","+","null","","","","","","",""
"","","","","","image-keyboard-response","253","416933","0.0-17.0-2.0-1.1","3m1x5z3qvf","","3m1x5z3qvf","""2024-11-13T20:20:46.551Z""","1800","materials/imgs/D85.png","arrowleft","","[""materials/imgs/D6.png"",""materials/imgs/D111.png""]","false","validation","","",""
"","","","","","html-keyboard-response","254","417435","0.0-17.0-0.1-0.7","3m1x5z3qvf","","3m1x5z3qvf","""2024-11-13T20:20:46.551Z""","null","+","null","","","","","","",""
"","","","","","image-keyboard-response","255","419350","0.0-17.0-0.1-1.7","3m1x5z3qvf","","3m1x5z3qvf","""2024-11-13T20:20:46.551Z""","1913","materials/imgs/D9.png","arrowright","","[""materials/imgs/D76.png"",""materials/imgs/D104.png""]","false","random","","",""
"","","","","","html-keyboard-response","256","419851","0.0-17.0-0.1-0.8","3m1x5z3qvf","","3m1x5z3qvf","""2024-11-13T20:20:46.551Z""","null","+","null","","","","","","",""
"","","","","","image-keyboard-response","257","421265","0.0-17.0-0.1-1.8","3m1x5z3qvf","","3m1x5z3qvf","""2024-11-13T20:20:46.551Z""","1412","materials/imgs/D53.png","arrowright","","[""materials/imgs/D34.png"",""materials/imgs/D57.png""]","false","random","","",""
"","","","","","html-keyboard-response","258","421767","0.0-17.0-0.1-0.9","3m1x5z3qvf","","3m1x5z3qvf","""2024-11-13T20:20:46.551Z""","null","+","null","","","","","","",""
"","","","","","image-keyboard-response","259","423785","0.0-17.0-0.1-1.9","3m1x5z3qvf","","3m1x5z3qvf","""2024-11-13T20:20:46.551Z""","2016","materials/imgs/D22.png","arrowleft","","[""materials/imgs/D66.png"",""materials/imgs/D106.png""]","false","random","","",""
"","","","","","html-keyboard-response","260","424286","0.0-17.0-0.1-0.10","3m1x5z3qvf","","3m1x5z3qvf","""2024-11-13T20:20:46.551Z""","null","+","null","","","","","","",""
"","","","","","image-keyboard-response","261","425408","0.0-17.0-0.1-1.10","3m1x5z3qvf","","3m1x5z3qvf","""2024-11-13T20:20:46.551Z""","1120","materials/imgs/D36.png","arrowright","","[""materials/imgs/D29.png"",""materials/imgs/D79.png""]","false","random","","",""
"","","","","","html-keyboard-response","262","425910","0.0-17.0-0.1-0.11","3m1x5z3qvf","","3m1x5z3qvf","""2024-11-13T20:20:46.551Z""","null","+","null","","","","","","",""
"","","","","","image-keyboard-response","263","427487","0.0-17.0-0.1-1.11","3m1x5z3qvf","","3m1x5z3qvf","""2024-11-13T20:20:46.551Z""","1575","materials/imgs/D11.png","arrowleft","","[""materials/imgs/D76.png"",""materials/imgs/D65.png""]","false","random","","",""
"","","","","","html-keyboard-response","264","427988","0.0-17.0-0.1-0.12","3m1x5z3qvf","","3m1x5z3qvf","""2024-11-13T20:20:46.551Z""","null","+","null","","","","","","",""
"","","","","","image-keyboard-response","265","430640","0.0-17.0-0.1-1.12","3m1x5z3qvf","","3m1x5z3qvf","""2024-11-13T20:20:46.551Z""","2650","materials/imgs/D83.png","arrowright","","[""materials/imgs/D24.png"",""materials/imgs/D103.png""]","false","random","","",""
"","","","","","html-keyboard-response","266","431141","0.0-17.0-0.1-0.13","3m1x5z3qvf","","3m1x5z3qvf","""2024-11-13T20:20:46.551Z""","null","+","null","","","","","","",""
"","","","","","image-keyboard-response","267","432674","0.0-17.0-0.1-1.13","3m1x5z3qvf","","3m1x5z3qvf","""2024-11-13T20:20:46.551Z""","1531","materials/imgs/D25.png","arrowright","","[""materials/imgs/D51.png"",""materials/imgs/D35.png""]","false","random","","",""
"","","","","","html-keyboard-response","268","433176","0.0-17.0-1.1-0.1","3m1x5z3qvf","","3m1x5z3qvf","""2024-11-13T20:20:46.551Z""","null","+","null","","","","","","",""
"","","","","","image-keyboard-response","269","435629","0.0-17.0-1.1-1.1","3m1x5z3qvf","","3m1x5z3qvf","""2024-11-13T20:20:46.551Z""","2451","materials/imgs/D106.png","arrowleft","","[""materials/imgs/D106.png"",""materials/imgs/D101.png""]","","check","materials/imgs/D106.png","0","true"
"","","","","","html-keyboard-response","270","436131","0.0-17.0-2.1-0.2","3m1x5z3qvf","","3m1x5z3qvf","""2024-11-13T20:20:46.551Z""","null","+","null","","","","","","",""
"","","","","","image-keyboard-response","271","437618","0.0-17.0-2.1-1.2","3m1x5z3qvf","","3m1x5z3qvf","""2024-11-13T20:20:46.551Z""","1487","materials/imgs/D106.png","arrowleft","","[""materials/imgs/D57.png"",""materials/imgs/D18.png""]","false","validation","","",""
"","","","","","html-keyboard-response","272","438120","0.0-17.0-2.1-0.3","3m1x5z3qvf","","3m1x5z3qvf","""2024-11-13T20:20:46.551Z""","null","+","null","","","","","","",""
"","","","","","image-keyboard-response","273","440901","0.0-17.0-2.1-1.3","3m1x5z3qvf","","3m1x5z3qvf","""2024-11-13T20:20:46.551Z""","2780","materials/imgs/D103.png","arrowleft","","[""materials/imgs/D76.png"",""materials/imgs/D106.png""]","false","validation","","",""
"","","","","","html-keyboard-response","274","441403","0.0-17.0-0.2-0.14","3m1x5z3qvf","","3m1x5z3qvf","""2024-11-13T20:20:46.551Z""","null","+","null","","","","","","",""
"","","","","","image-keyboard-response","275","442711","0.0-17.0-0.2-1.14","3m1x5z3qvf","","3m1x5z3qvf","""2024-11-13T20:20:46.551Z""","1306","materials/imgs/D6.png","arrowleft","","[""materials/imgs/D103.png"",""materials/imgs/D56.png""]","false","random","","",""
"","","","","","html-keyboard-response","276","443212","0.0-17.0-0.2-0.15","3m1x5z3qvf","","3m1x5z3qvf","""2024-11-13T20:20:46.551Z""","null","+","null","","","","","","",""
"","","","","","image-keyboard-response","277","444460","0.0-17.0-0.2-1.15","3m1x5z3qvf","","3m1x5z3qvf","""2024-11-13T20:20:46.551Z""","1246","materials/imgs/D49.png","arrowleft","","[""materials/imgs/D84.png"",""materials/imgs/D32.png""]","false","random","","",""
"","","","","","html-keyboard-response","278","444962","0.0-17.0-0.2-0.16","3m1x5z3qvf","","3m1x5z3qvf","""2024-11-13T20:20:46.551Z""","null","+","null","","","","","","",""
"","","","","","image-keyboard-response","279","445892","0.0-17.0-0.2-1.16","3m1x5z3qvf","","3m1x5z3qvf","""2024-11-13T20:20:46.551Z""","928","materials/imgs/D35.png","arrowright","","[""materials/imgs/D48.png"",""materials/imgs/D22.png""]","false","random","","",""
"","","","","","html-keyboard-response","280","446393","0.0-17.0-0.2-0.17","3m1x5z3qvf","","3m1x5z3qvf","""2024-11-13T20:20:46.551Z""","null","+","null","","","","","","",""
"","","","","","image-keyboard-response","281","449000","0.0-17.0-0.2-1.17","3m1x5z3qvf","","3m1x5z3qvf","""2024-11-13T20:20:46.551Z""","2604","materials/imgs/D81.png","arrowright","","[""materials/imgs/D20.png"",""materials/imgs/D52.png""]","false","random","","",""
"","","","","","html-keyboard-response","282","449501","0.0-17.0-0.2-0.18","3m1x5z3qvf","","3m1x5z3qvf","""2024-11-13T20:20:46.551Z""","null","+","null","","","","","","",""
"","","","","","image-keyboard-response","283","451791","0.0-17.0-0.2-1.18","3m1x5z3qvf","","3m1x5z3qvf","""2024-11-13T20:20:46.551Z""","2289","materials/imgs/D47.png","arrowleft","","[""materials/imgs/D81.png"",""materials/imgs/D85.png""]","false","random","","",""
"","","","","","html-keyboard-response","284","452293","0.0-17.0-0.2-0.19","3m1x5z3qvf","","3m1x5z3qvf","""2024-11-13T20:20:46.551Z""","null","+","null","","","","","","",""
"","","","","","image-keyboard-response","285","453808","0.0-17.0-0.2-1.19","3m1x5z3qvf","","3m1x5z3qvf","""2024-11-13T20:20:46.551Z""","1513","materials/imgs/D18.png","arrowleft","","[""materials/imgs/D56.png"",""materials/imgs/D11.png""]","false","random","","",""
"","","","","","html-keyboard-response","286","454309","0.0-17.0-0.2-0.20","3m1x5z3qvf","","3m1x5z3qvf","""2024-11-13T20:20:46.551Z""","null","+","null","","","","","","",""
"","","","","","image-keyboard-response","287","455610","0.0-17.0-0.2-1.20","3m1x5z3qvf","","3m1x5z3qvf","""2024-11-13T20:20:46.551Z""","1299","materials/imgs/D74.png","arrowright","","[""materials/imgs/D76.png"",""materials/imgs/D92.png""]","false","random","","",""
"","","","","","html-keyboard-response","288","456111","0.0-17.0-1.2-0.2","3m1x5z3qvf","","3m1x5z3qvf","""2024-11-13T20:20:46.551Z""","null","+","null","","","","","","",""
"","","","","","image-keyboard-response","289","456753","0.0-17.0-1.2-1.2","3m1x5z3qvf","","3m1x5z3qvf","""2024-11-13T20:20:46.551Z""","640","materials/imgs/D26.png","arrowleft","","[""materials/imgs/D26.png"",""materials/imgs/D46.png""]","","check","materials/imgs/D26.png","0","true"
"","","","","","html-keyboard-response","290","457254","0.0-17.0-2.2-0.4","3m1x5z3qvf","","3m1x5z3qvf","""2024-11-13T20:20:46.551Z""","null","+","null","","","","","","",""
"","","","","","image-keyboard-response","291","459950","0.0-17.0-2.2-1.4","3m1x5z3qvf","","3m1x5z3qvf","""2024-11-13T20:20:46.551Z""","2695","materials/imgs/D1.png","arrowleft","","[""materials/imgs/D57.png"",""materials/imgs/D76.png""]","false","validation","","",""
"","","","","","html-keyboard-response","292","460451","0.0-17.0-2.2-0.5","3m1x5z3qvf","","3m1x5z3qvf","""2024-11-13T20:20:46.551Z""","null","+","null","","","","","","",""
"","","","","","image-keyboard-response","293","461269","0.0-17.0-2.2-1.5","3m1x5z3qvf","","3m1x5z3qvf","""2024-11-13T20:20:46.551Z""","816","materials/imgs/D11.png","arrowleft","","[""materials/imgs/D83.png"",""materials/imgs/D48.png""]","false","validation","","",""
"","","","","","html-keyboard-response","294","461770","0.0-17.0-0.3-0.21","3m1x5z3qvf","","3m1x5z3qvf","""2024-11-13T20:20:46.551Z""","null","+","null","","","","","","",""
"","","","","","image-keyboard-response","295","463829","0.0-17.0-0.3-1.21","3m1x5z3qvf","","3m1x5z3qvf","""2024-11-13T20:20:46.551Z""","2057","materials/imgs/D104.png","arrowright","","[""materials/imgs/D111.png"",""materials/imgs/D94.png""]","false","random","","",""
"","","","","","html-keyboard-response","296","464330","0.0-17.0-0.3-0.22","3m1x5z3qvf","","3m1x5z3qvf","""2024-11-13T20:20:46.551Z""","null","+","null","","","","","","",""
"","","","","","image-keyboard-response","297","465813","0.0-17.0-0.3-1.22","3m1x5z3qvf","","3m1x5z3qvf","""2024-11-13T20:20:46.551Z""","1482","materials/imgs/D106.png","arrowleft","","[""materials/imgs/D17.png"",""materials/imgs/D20.png""]","false","random","","",""
"","","","","","html-keyboard-response","298","466315","0.0-17.0-0.3-0.23","3m1x5z3qvf","","3m1x5z3qvf","""2024-11-13T20:20:46.551Z""","null","+","null","","","","","","",""
"","","","","","image-keyboard-response","299","468503","0.0-17.0-0.3-1.23","3m1x5z3qvf","","3m1x5z3qvf","""2024-11-13T20:20:46.551Z""","2186","materials/imgs/D8.png","arrowleft","","[""materials/imgs/D64.png"",""materials/imgs/D52.png""]","false","random","","",""
"","","","","","html-keyboard-response","300","469004","0.0-17.0-0.3-0.24","3m1x5z3qvf","","3m1x5z3qvf","""2024-11-13T20:20:46.551Z""","null","+","null","","","","","","",""
"","","","","","image-keyboard-response","301","471000","0.0-17.0-0.3-1.24","3m1x5z3qvf","","3m1x5z3qvf","""2024-11-13T20:20:46.551Z""","1994","materials/imgs/D101.png","arrowleft","","[""materials/imgs/D87.png"",""materials/imgs/D111.png""]","false","random","","",""
"","","","","","html-keyboard-response","302","471502","0.0-17.0-0.3-0.25","3m1x5z3qvf","","3m1x5z3qvf","""2024-11-13T20:20:46.551Z""","null","+","null","","","","","","",""
"","","","","","image-keyboard-response","303","472645","0.0-17.0-0.3-1.25","3m1x5z3qvf","","3m1x5z3qvf","""2024-11-13T20:20:46.551Z""","1142","materials/imgs/D81.png","arrowleft","","[""materials/imgs/D4.png"",""materials/imgs/D56.png""]","false","random","","",""
"","","","","","html-keyboard-response","304","473147","0.0-17.0-0.3-0.26","3m1x5z3qvf","","3m1x5z3qvf","""2024-11-13T20:20:46.551Z""","null","+","null","","","","","","",""
"","","","","","image-keyboard-response","305","474287","0.0-17.0-0.3-1.26","3m1x5z3qvf","","3m1x5z3qvf","""2024-11-13T20:20:46.551Z""","1139","materials/imgs/D53.png","arrowleft","","[""materials/imgs/D24.png"",""materials/imgs/D82.png""]","false","random","","",""
"","","","","","html-keyboard-response","306","474789","0.0-17.0-0.3-0.27","3m1x5z3qvf","","3m1x5z3qvf","""2024-11-13T20:20:46.551Z""","null","+","null","","","","","","",""
"","","","","","image-keyboard-response","307","477228","0.0-17.0-0.3-1.27","3m1x5z3qvf","","3m1x5z3qvf","""2024-11-13T20:20:46.551Z""","2437","materials/imgs/D66.png","arrowright","","[""materials/imgs/D64.png"",""materials/imgs/D9.png""]","false","random","","",""
"","","","","","html-keyboard-response","308","477728","0.0-17.0-1.3-0.3","3m1x5z3qvf","","3m1x5z3qvf","""2024-11-13T20:20:46.551Z""","null","+","null","","","","","","",""
"","","","","","image-keyboard-response","309","478579","0.0-17.0-1.3-1.3","3m1x5z3qvf","","3m1x5z3qvf","""2024-11-13T20:20:46.551Z""","849","materials/imgs/D106.png","arrowleft","","[""materials/imgs/D106.png"",""materials/imgs/D101.png""]","","check","materials/imgs/D106.png","0","true"
"","","","","","html-keyboard-response","310","479080","0.0-17.0-2.3-0.6","3m1x5z3qvf","","3m1x5z3qvf","""2024-11-13T20:20:46.551Z""","null","+","null","","","","","","",""
"","","","","","image-keyboard-response","311","482633","0.0-17.0-2.3-1.6","3m1x5z3qvf","","3m1x5z3qvf","""2024-11-13T20:20:46.551Z""","3551","materials/imgs/D68.png","arrowright","","[""materials/imgs/D96.png"",""materials/imgs/D48.png""]","false","validation","","",""
"","","","","","html-keyboard-response","312","483134","0.0-17.0-2.3-0.7","3m1x5z3qvf","","3m1x5z3qvf","""2024-11-13T20:20:46.551Z""","null","+","null","","","","","","",""
"","","","","","image-keyboard-response","313","486086","0.0-17.0-2.3-1.7","3m1x5z3qvf","","3m1x5z3qvf","""2024-11-13T20:20:46.551Z""","2950","materials/imgs/D16.png","arrowleft","","[""materials/imgs/D52.png"",""materials/imgs/D25.png""]","false","validation","","",""
"","","","","","html-keyboard-response","314","486587","0.0-17.0-0.4-0.28","3m1x5z3qvf","","3m1x5z3qvf","""2024-11-13T20:20:46.551Z""","null","+","null","","","","","","",""
"","","","","","image-keyboard-response","315","488291","0.0-17.0-0.4-1.28","3m1x5z3qvf","","3m1x5z3qvf","""2024-11-13T20:20:46.551Z""","1702","materials/imgs/D96.png","arrowright","","[""materials/imgs/D81.png"",""materials/imgs/D95.png""]","false","random","","",""
"","","","","","html-keyboard-response","316","488792","0.0-17.0-0.4-0.29","3m1x5z3qvf","","3m1x5z3qvf","""2024-11-13T20:20:46.551Z""","null","+","null","","","","","","",""
"","","","","","image-keyboard-response","317","491185","0.0-17.0-0.4-1.29","3m1x5z3qvf","","3m1x5z3qvf","""2024-11-13T20:20:46.551Z""","2391","materials/imgs/D24.png","arrowleft","","[""materials/imgs/D56.png"",""materials/imgs/D26.png""]","false","random","","",""
"","","","","","html-keyboard-response","318","491686","0.0-17.0-0.4-0.30","3m1x5z3qvf","","3m1x5z3qvf","""2024-11-13T20:20:46.551Z""","null","+","null","","","","","","",""
"","","","","","image-keyboard-response","319","492935","0.0-17.0-0.4-1.30","3m1x5z3qvf","","3m1x5z3qvf","""2024-11-13T20:20:46.551Z""","1247","materials/imgs/D3.png","arrowright","","[""materials/imgs/D57.png"",""materials/imgs/D53.png""]","false","random","","",""
"","","","","","html-keyboard-response","320","493437","0.0-17.0-0.4-0.31","3m1x5z3qvf","","3m1x5z3qvf","""2024-11-13T20:20:46.551Z""","null","+","null","","","","","","",""
"","","","","","image-keyboard-response","321","496149","0.0-17.0-0.4-1.31","3m1x5z3qvf","","3m1x5z3qvf","""2024-11-13T20:20:46.551Z""","2710","materials/imgs/D18.png","arrowleft","","[""materials/imgs/D65.png"",""materials/imgs/D64.png""]","false","random","","",""
"","","","","","html-keyboard-response","322","496650","0.0-17.0-0.4-0.32","3m1x5z3qvf","","3m1x5z3qvf","""2024-11-13T20:20:46.551Z""","null","+","null","","","","","","",""
"","","","","","image-keyboard-response","323","499511","0.0-17.0-0.4-1.32","3m1x5z3qvf","","3m1x5z3qvf","""2024-11-13T20:20:46.551Z""","2859","materials/imgs/D49.png","arrowright","","[""materials/imgs/D75.png"",""materials/imgs/D35.png""]","false","random","","",""
"","","","","","html-keyboard-response","324","500012","0.0-17.0-0.4-0.33","3m1x5z3qvf","","3m1x5z3qvf","""2024-11-13T20:20:46.551Z""","null","+","null","","","","","","",""
"","","","","","image-keyboard-response","325","501210","0.0-17.0-0.4-1.33","3m1x5z3qvf","","3m1x5z3qvf","""2024-11-13T20:20:46.551Z""","1197","materials/imgs/D18.png","arrowleft","","[""materials/imgs/D66.png"",""materials/imgs/D55.png""]","false","random","","",""
"","","","","","html-keyboard-response","326","501711","0.0-17.0-0.4-0.34","3m1x5z3qvf","","3m1x5z3qvf","""2024-11-13T20:20:46.551Z""","null","+","null","","","","","","",""
"","","","","","image-keyboard-response","327","504840","0.0-17.0-0.4-1.34","3m1x5z3qvf","","3m1x5z3qvf","""2024-11-13T20:20:46.551Z""","3127","materials/imgs/D4.png","arrowright","","[""materials/imgs/D104.png"",""materials/imgs/D66.png""]","false","random","","",""
"","","","","","html-keyboard-response","328","505341","0.0-17.0-1.4-0.4","3m1x5z3qvf","","3m1x5z3qvf","""2024-11-13T20:20:46.551Z""","null","+","null","","","","","","",""
"","","","","","image-keyboard-response","329","506252","0.0-17.0-1.4-1.4","3m1x5z3qvf","","3m1x5z3qvf","""2024-11-13T20:20:46.551Z""","909","materials/imgs/D106.png","arrowleft","","[""materials/imgs/D106.png"",""materials/imgs/D101.png""]","","check","materials/imgs/D106.png","0","true"
"","","","","","html-keyboard-response","330","506753","0.0-17.0-2.4-0.8","3m1x5z3qvf","","3m1x5z3qvf","""2024-11-13T20:20:46.551Z""","null","+","null","","","","","","",""
"","","","","","image-keyboard-response","331","508975","0.0-17.0-2.4-1.8","3m1x5z3qvf","","3m1x5z3qvf","""2024-11-13T20:20:46.551Z""","2220","materials/imgs/D32.png","arrowleft","","[""materials/imgs/D68.png"",""materials/imgs/D96.png""]","false","validation","","",""
"","","","","","html-keyboard-response","332","509477","0.0-17.0-2.4-0.9","3m1x5z3qvf","","3m1x5z3qvf","""2024-11-13T20:20:46.551Z""","null","+","null","","","","","","",""
"","","","","","image-keyboard-response","333","511868","0.0-17.0-2.4-1.9","3m1x5z3qvf","","3m1x5z3qvf","""2024-11-13T20:20:46.551Z""","2389","materials/imgs/D24.png","arrowright","","[""materials/imgs/D36.png"",""materials/imgs/D8.png""]","false","validation","","",""
"","","","","","html-button-response","334","513736","0.0-18.0","3m1x5z3qvf","","3m1x5z3qvf","""2024-11-13T20:20:46.551Z""","1867","You have completed 75% of the trials. Please click 'Continue' when you are ready proceed.","0","","","","","","",""
"","","","","","html-keyboard-response","335","514238","0.0-19.0-0.0-0.0","3m1x5z3qvf","","3m1x5z3qvf","""2024-11-13T20:20:46.551Z""","null","+","null","","","","","","",""
"","","","","","image-keyboard-response","336","515904","0.0-19.0-0.0-1.0","3m1x5z3qvf","","3m1x5z3qvf","""2024-11-13T20:20:46.551Z""","1664","materials/imgs/D49.png","arrowright","","[""materials/imgs/D29.png"",""materials/imgs/D55.png""]","false","random","","",""
"","","","","","html-keyboard-response","337","516405","0.0-19.0-0.0-0.1","3m1x5z3qvf","","3m1x5z3qvf","""2024-11-13T20:20:46.551Z""","null","+","null","","","","","","",""
"","","","","","image-keyboard-response","338","518695","0.0-19.0-0.0-1.1","3m1x5z3qvf","","3m1x5z3qvf","""2024-11-13T20:20:46.551Z""","2288","materials/imgs/D4.png","arrowleft","","[""materials/imgs/D77.png"",""materials/imgs/D76.png""]","false","random","","",""
"","","","","","html-keyboard-response","339","519196","0.0-19.0-0.0-0.2","3m1x5z3qvf","","3m1x5z3qvf","""2024-11-13T20:20:46.551Z""","null","+","null","","","","","","",""
"","","","","","image-keyboard-response","340","520814","0.0-19.0-0.0-1.2","3m1x5z3qvf","","3m1x5z3qvf","""2024-11-13T20:20:46.551Z""","1616","materials/imgs/D26.png","arrowleft","","[""materials/imgs/D103.png"",""materials/imgs/D21.png""]","false","random","","",""
"","","","","","html-keyboard-response","341","521315","0.0-19.0-0.0-0.3","3m1x5z3qvf","","3m1x5z3qvf","""2024-11-13T20:20:46.551Z""","null","+","null","","","","","","",""
"","","","","","image-keyboard-response","342","522387","0.0-19.0-0.0-1.3","3m1x5z3qvf","","3m1x5z3qvf","""2024-11-13T20:20:46.551Z""","1070","materials/imgs/D75.png","arrowright","","[""materials/imgs/D85.png"",""materials/imgs/D8.png""]","false","random","","",""
"","","","","","html-keyboard-response","343","522889","0.0-19.0-0.0-0.4","3m1x5z3qvf","","3m1x5z3qvf","""2024-11-13T20:20:46.551Z""","null","+","null","","","","","","",""
"","","","","","image-keyboard-response","344","523881","0.0-19.0-0.0-1.4","3m1x5z3qvf","","3m1x5z3qvf","""2024-11-13T20:20:46.551Z""","990","materials/imgs/D77.png","arrowleft","","[""materials/imgs/D24.png"",""materials/imgs/D94.png""]","false","random","","",""
"","","","","","html-keyboard-response","345","524382","0.0-19.0-0.0-0.5","3m1x5z3qvf","","3m1x5z3qvf","""2024-11-13T20:20:46.551Z""","null","+","null","","","","","","",""
"","","","","","image-keyboard-response","346","527297","0.0-19.0-0.0-1.5","3m1x5z3qvf","","3m1x5z3qvf","""2024-11-13T20:20:46.551Z""","2913","materials/imgs/D18.png","arrowleft","","[""materials/imgs/D84.png"",""materials/imgs/D51.png""]","false","random","","",""
"","","","","","html-keyboard-response","347","527799","0.0-19.0-0.0-0.6","3m1x5z3qvf","","3m1x5z3qvf","""2024-11-13T20:20:46.551Z""","null","+","null","","","","","","",""
"","","","","","image-keyboard-response","348","530473","0.0-19.0-0.0-1.6","3m1x5z3qvf","","3m1x5z3qvf","""2024-11-13T20:20:46.551Z""","2673","materials/imgs/D34.png","arrowright","","[""materials/imgs/D96.png"",""materials/imgs/D106.png""]","false","random","","",""
"","","","","","html-keyboard-response","349","530974","0.0-19.0-1.0-0.0","3m1x5z3qvf","","3m1x5z3qvf","""2024-11-13T20:20:46.551Z""","null","+","null","","","","","","",""
"","","","","","image-keyboard-response","350","532521","0.0-19.0-1.0-1.0","3m1x5z3qvf","","3m1x5z3qvf","""2024-11-13T20:20:46.551Z""","1544","materials/imgs/D8.png","arrowright","","[""materials/imgs/D18.png"",""materials/imgs/D8.png""]","","check","materials/imgs/D8.png","1","true"
"","","","","","html-keyboard-response","351","533022","0.0-19.0-2.0-0.0","3m1x5z3qvf","","3m1x5z3qvf","""2024-11-13T20:20:46.551Z""","null","+","null","","","","","","",""
"","","","","","image-keyboard-response","352","534040","0.0-19.0-2.0-1.0","3m1x5z3qvf","","3m1x5z3qvf","""2024-11-13T20:20:46.551Z""","1016","materials/imgs/D92.png","arrowright","","[""materials/imgs/D56.png"",""materials/imgs/D77.png""]","false","validation","","",""
"","","","","","html-keyboard-response","353","534542","0.0-19.0-2.0-0.1","3m1x5z3qvf","","3m1x5z3qvf","""2024-11-13T20:20:46.551Z""","null","+","null","","","","","","",""
"","","","","","image-keyboard-response","354","536539","0.0-19.0-2.0-1.1","3m1x5z3qvf","","3m1x5z3qvf","""2024-11-13T20:20:46.551Z""","1996","materials/imgs/D103.png","arrowright","","[""materials/imgs/D76.png"",""materials/imgs/D106.png""]","false","validation","","",""
"","","","","","html-keyboard-response","355","537040","0.0-19.0-0.1-0.7","3m1x5z3qvf","","3m1x5z3qvf","""2024-11-13T20:20:46.551Z""","null","+","null","","","","","","",""
"","","","","","image-keyboard-response","356","538604","0.0-19.0-0.1-1.7","3m1x5z3qvf","","3m1x5z3qvf","""2024-11-13T20:20:46.551Z""","1561","materials/imgs/D106.png","arrowleft","","[""materials/imgs/D16.png"",""materials/imgs/D11.png""]","false","random","","",""
"","","","","","html-keyboard-response","357","539105","0.0-19.0-0.1-0.8","3m1x5z3qvf","","3m1x5z3qvf","""2024-11-13T20:20:46.551Z""","null","+","null","","","","","","",""
"","","","","","image-keyboard-response","358","539991","0.0-19.0-0.1-1.8","3m1x5z3qvf","","3m1x5z3qvf","""2024-11-13T20:20:46.551Z""","884","materials/imgs/D37.png","arrowleft","","[""materials/imgs/D18.png"",""materials/imgs/D6.png""]","false","random","","",""
"","","","","","html-keyboard-response","359","540492","0.0-19.0-0.1-0.9","3m1x5z3qvf","","3m1x5z3qvf","""2024-11-13T20:20:46.551Z""","null","+","null","","","","","","",""
"","","","","","image-keyboard-response","360","541534","0.0-19.0-0.1-1.9","3m1x5z3qvf","","3m1x5z3qvf","""2024-11-13T20:20:46.551Z""","1040","materials/imgs/D92.png","arrowleft","","[""materials/imgs/D65.png"",""materials/imgs/D56.png""]","false","random","","",""
"","","","","","html-keyboard-response","361","542035","0.0-19.0-0.1-0.10","3m1x5z3qvf","","3m1x5z3qvf","""2024-11-13T20:20:46.551Z""","null","+","null","","","","","","",""
"","","","","","image-keyboard-response","362","543363","0.0-19.0-0.1-1.10","3m1x5z3qvf","","3m1x5z3qvf","""2024-11-13T20:20:46.551Z""","1321","materials/imgs/D103.png","arrowright","","[""materials/imgs/D68.png"",""materials/imgs/D95.png""]","false","random","","",""
"","","","","","html-keyboard-response","363","543864","0.0-19.0-0.1-0.11","3m1x5z3qvf","","3m1x5z3qvf","""2024-11-13T20:20:46.551Z""","null","+","null","","","","","","",""
"","","","","","image-keyboard-response","364","545666","0.0-19.0-0.1-1.11","3m1x5z3qvf","","3m1x5z3qvf","""2024-11-13T20:20:46.551Z""","1800","materials/imgs/D52.png","arrowleft","","[""materials/imgs/D79.png"",""materials/imgs/D76.png""]","false","random","","",""
"","","","","","html-keyboard-response","365","546167","0.0-19.0-0.1-0.12","3m1x5z3qvf","","3m1x5z3qvf","""2024-11-13T20:20:46.551Z""","null","+","null","","","","","","",""
"","","","","","image-keyboard-response","366","548043","0.0-19.0-0.1-1.12","3m1x5z3qvf","","3m1x5z3qvf","""2024-11-13T20:20:46.551Z""","1874","materials/imgs/D25.png","arrowleft","","[""materials/imgs/D1.png"",""materials/imgs/D29.png""]","false","random","","",""
"","","","","","html-keyboard-response","367","548544","0.0-19.0-0.1-0.13","3m1x5z3qvf","","3m1x5z3qvf","""2024-11-13T20:20:46.551Z""","null","+","null","","","","","","",""
"","","","","","image-keyboard-response","368","550414","0.0-19.0-0.1-1.13","3m1x5z3qvf","","3m1x5z3qvf","""2024-11-13T20:20:46.551Z""","1868","materials/imgs/D18.png","arrowleft","","[""materials/imgs/D35.png"",""materials/imgs/D96.png""]","false","random","","",""
"","","","","","html-keyboard-response","369","550916","0.0-19.0-1.1-0.1","3m1x5z3qvf","","3m1x5z3qvf","""2024-11-13T20:20:46.551Z""","null","+","null","","","","","","",""
"","","","","","image-keyboard-response","370","551699","0.0-19.0-1.1-1.1","3m1x5z3qvf","","3m1x5z3qvf","""2024-11-13T20:20:46.551Z""","782","materials/imgs/D101.png","arrowright","","[""materials/imgs/D106.png"",""materials/imgs/D101.png""]","","check","materials/imgs/D101.png","1","true"
"","","","","","html-keyboard-response","371","552201","0.0-19.0-2.1-0.2","3m1x5z3qvf","","3m1x5z3qvf","""2024-11-13T20:20:46.551Z""","null","+","null","","","","","","",""
"","","","","","image-keyboard-response","372","554370","0.0-19.0-2.1-1.2","3m1x5z3qvf","","3m1x5z3qvf","""2024-11-13T20:20:46.551Z""","2167","materials/imgs/D96.png","arrowright","","[""materials/imgs/D46.png"",""materials/imgs/D18.png""]","false","validation","","",""
"","","","","","html-keyboard-response","373","554871","0.0-19.0-2.1-0.3","3m1x5z3qvf","","3m1x5z3qvf","""2024-11-13T20:20:46.551Z""","null","+","null","","","","","","",""
"","","","","","image-keyboard-response","374","556635","0.0-19.0-2.1-1.3","3m1x5z3qvf","","3m1x5z3qvf","""2024-11-13T20:20:46.551Z""","1762","materials/imgs/D8.png","arrowleft","","[""materials/imgs/D101.png"",""materials/imgs/D52.png""]","false","validation","","",""
"","","","","","html-keyboard-response","375","557136","0.0-19.0-0.2-0.14","3m1x5z3qvf","","3m1x5z3qvf","""2024-11-13T20:20:46.551Z""","null","+","null","","","","","","",""
"","","","","","image-keyboard-response","376","558275","0.0-19.0-0.2-1.14","3m1x5z3qvf","","3m1x5z3qvf","""2024-11-13T20:20:46.551Z""","1136","materials/imgs/D8.png","arrowleft","","[""materials/imgs/D104.png"",""materials/imgs/D49.png""]","false","random","","",""
"","","","","","html-keyboard-response","377","558776","0.0-19.0-0.2-0.15","3m1x5z3qvf","","3m1x5z3qvf","""2024-11-13T20:20:46.551Z""","null","+","null","","","","","","",""
"","","","","","image-keyboard-response","378","559694","0.0-19.0-0.2-1.15","3m1x5z3qvf","","3m1x5z3qvf","""2024-11-13T20:20:46.551Z""","916","materials/imgs/D81.png","arrowright","","[""materials/imgs/D65.png"",""materials/imgs/D80.png""]","false","random","","",""
"","","","","","html-keyboard-response","379","560196","0.0-19.0-0.2-0.16","3m1x5z3qvf","","3m1x5z3qvf","""2024-11-13T20:20:46.551Z""","null","+","null","","","","","","",""
"","","","","","image-keyboard-response","380","562539","0.0-19.0-0.2-1.16","3m1x5z3qvf","","3m1x5z3qvf","""2024-11-13T20:20:46.551Z""","2341","materials/imgs/D18.png","arrowright","","[""materials/imgs/D1.png"",""materials/imgs/D64.png""]","false","random","","",""
"","","","","","html-keyboard-response","381","563040","0.0-19.0-0.2-0.17","3m1x5z3qvf","","3m1x5z3qvf","""2024-11-13T20:20:46.551Z""","null","+","null","","","","","","",""
"","","","","","image-keyboard-response","382","564653","0.0-19.0-0.2-1.17","3m1x5z3qvf","","3m1x5z3qvf","""2024-11-13T20:20:46.551Z""","1611","materials/imgs/D55.png","arrowright","","[""materials/imgs/D111.png"",""materials/imgs/D19.png""]","false","random","","",""
"","","","","","html-keyboard-response","383","565155","0.0-19.0-0.2-0.18","3m1x5z3qvf","","3m1x5z3qvf","""2024-11-13T20:20:46.551Z""","null","+","null","","","","","","",""
"","","","","","image-keyboard-response","384","568367","0.0-19.0-0.2-1.18","3m1x5z3qvf","","3m1x5z3qvf","""2024-11-13T20:20:46.551Z""","3211","materials/imgs/D20.png","arrowleft","","[""materials/imgs/D76.png"",""materials/imgs/D84.png""]","false","random","","",""
"","","","","","html-keyboard-response","385","568868","0.0-19.0-0.2-0.19","3m1x5z3qvf","","3m1x5z3qvf","""2024-11-13T20:20:46.551Z""","null","+","null","","","","","","",""
"","","","","","image-keyboard-response","386","570883","0.0-19.0-0.2-1.19","3m1x5z3qvf","","3m1x5z3qvf","""2024-11-13T20:20:46.551Z""","2013","materials/imgs/D14.png","arrowright","","[""materials/imgs/D21.png"",""materials/imgs/D52.png""]","false","random","","",""
"","","","","","html-keyboard-response","387","571384","0.0-19.0-0.2-0.20","3m1x5z3qvf","","3m1x5z3qvf","""2024-11-13T20:20:46.551Z""","null","+","null","","","","","","",""
"","","","","","image-keyboard-response","388","573051","0.0-19.0-0.2-1.20","3m1x5z3qvf","","3m1x5z3qvf","""2024-11-13T20:20:46.551Z""","1665","materials/imgs/D80.png","arrowleft","","[""materials/imgs/D4.png"",""materials/imgs/D55.png""]","false","random","","",""
"","","","","","html-keyboard-response","389","573553","0.0-19.0-1.2-0.2","3m1x5z3qvf","","3m1x5z3qvf","""2024-11-13T20:20:46.551Z""","null","+","null","","","","","","",""
"","","","","","image-keyboard-response","390","574239","0.0-19.0-1.2-1.2","3m1x5z3qvf","","3m1x5z3qvf","""2024-11-13T20:20:46.551Z""","685","materials/imgs/D64.png","arrowleft","","[""materials/imgs/D64.png"",""materials/imgs/D53.png""]","","check","materials/imgs/D64.png","0","true"
"","","","","","html-keyboard-response","391","574740","0.0-19.0-2.2-0.4","3m1x5z3qvf","","3m1x5z3qvf","""2024-11-13T20:20:46.551Z""","null","+","null","","","","","","",""
"","","","","","image-keyboard-response","392","576424","0.0-19.0-2.2-1.4","3m1x5z3qvf","","3m1x5z3qvf","""2024-11-13T20:20:46.551Z""","1682","materials/imgs/D1.png","arrowright","","[""materials/imgs/D57.png"",""materials/imgs/D76.png""]","false","validation","","",""
"","","","","","html-keyboard-response","393","576926","0.0-19.0-2.2-0.5","3m1x5z3qvf","","3m1x5z3qvf","""2024-11-13T20:20:46.551Z""","null","+","null","","","","","","",""
"","","","","","image-keyboard-response","394","578153","0.0-19.0-2.2-1.5","3m1x5z3qvf","","3m1x5z3qvf","""2024-11-13T20:20:46.551Z""","1226","materials/imgs/D37.png","arrowright","","[""materials/imgs/D84.png"",""materials/imgs/D111.png""]","false","validation","","",""
"","","","","","html-keyboard-response","395","578654","0.0-19.0-0.3-0.21","3m1x5z3qvf","","3m1x5z3qvf","""2024-11-13T20:20:46.551Z""","null","+","null","","","","","","",""
"","","","","","image-keyboard-response","396","579732","0.0-19.0-0.3-1.21","3m1x5z3qvf","","3m1x5z3qvf","""2024-11-13T20:20:46.551Z""","1076","materials/imgs/D49.png","arrowleft","","[""materials/imgs/D76.png"",""materials/imgs/D96.png""]","false","random","","",""
"","","","","","html-keyboard-response","397","580234","0.0-19.0-0.3-0.22","3m1x5z3qvf","","3m1x5z3qvf","""2024-11-13T20:20:46.551Z""","null","+","null","","","","","","",""
"","","","","","image-keyboard-response","398","581377","0.0-19.0-0.3-1.22","3m1x5z3qvf","","3m1x5z3qvf","""2024-11-13T20:20:46.551Z""","1142","materials/imgs/D111.png","arrowright","","[""materials/imgs/D81.png"",""materials/imgs/D57.png""]","false","random","","",""
"","","","","","html-keyboard-response","399","581879","0.0-19.0-0.3-0.23","3m1x5z3qvf","","3m1x5z3qvf","""2024-11-13T20:20:46.551Z""","null","+","null","","","","","","",""
"","","","","","image-keyboard-response","400","583042","0.0-19.0-0.3-1.23","3m1x5z3qvf","","3m1x5z3qvf","""2024-11-13T20:20:46.551Z""","1162","materials/imgs/D25.png","arrowright","","[""materials/imgs/D17.png"",""materials/imgs/D16.png""]","false","random","","",""
"","","","","","html-keyboard-response","401","583543","0.0-19.0-0.3-0.24","3m1x5z3qvf","","3m1x5z3qvf","""2024-11-13T20:20:46.551Z""","null","+","null","","","","","","",""
"","","","","","image-keyboard-response","402","584815","0.0-19.0-0.3-1.24","3m1x5z3qvf","","3m1x5z3qvf","""2024-11-13T20:20:46.551Z""","1270","materials/imgs/D74.png","arrowright","","[""materials/imgs/D21.png"",""materials/imgs/D81.png""]","false","random","","",""
"","","","","","html-keyboard-response","403","585317","0.0-19.0-0.3-0.25","3m1x5z3qvf","","3m1x5z3qvf","""2024-11-13T20:20:46.551Z""","null","+","null","","","","","","",""
"","","","","","image-keyboard-response","404","586966","0.0-19.0-0.3-1.25","3m1x5z3qvf","","3m1x5z3qvf","""2024-11-13T20:20:46.551Z""","1647","materials/imgs/D80.png","arrowright","","[""materials/imgs/D79.png"",""materials/imgs/D19.png""]","false","random","","",""
"","","","","","html-keyboard-response","405","587467","0.0-19.0-0.3-0.26","3m1x5z3qvf","","3m1x5z3qvf","""2024-11-13T20:20:46.551Z""","null","+","null","","","","","","",""
"","","","","","image-keyboard-response","406","588980","0.0-19.0-0.3-1.26","3m1x5z3qvf","","3m1x5z3qvf","""2024-11-13T20:20:46.551Z""","1511","materials/imgs/D74.png","arrowright","","[""materials/imgs/D20.png"",""materials/imgs/D102.png""]","false","random","","",""
"","","","","","html-keyboard-response","407","589481","0.0-19.0-0.3-0.27","3m1x5z3qvf","","3m1x5z3qvf","""2024-11-13T20:20:46.551Z""","null","+","null","","","","","","",""
"","","","","","image-keyboard-response","408","591880","0.0-19.0-0.3-1.27","3m1x5z3qvf","","3m1x5z3qvf","""2024-11-13T20:20:46.551Z""","2397","materials/imgs/D26.png","arrowright","","[""materials/imgs/D47.png"",""materials/imgs/D83.png""]","false","random","","",""
"","","","","","html-keyboard-response","409","592381","0.0-19.0-1.3-0.3","3m1x5z3qvf","","3m1x5z3qvf","""2024-11-13T20:20:46.551Z""","null","+","null","","","","","","",""
"","","","","","image-keyboard-response","410","593053","0.0-19.0-1.3-1.3","3m1x5z3qvf","","3m1x5z3qvf","""2024-11-13T20:20:46.551Z""","670","materials/imgs/D106.png","arrowleft","","[""materials/imgs/D106.png"",""materials/imgs/D101.png""]","","check","materials/imgs/D106.png","0","true"
"","","","","","html-keyboard-response","411","593554","0.0-19.0-2.3-0.6","3m1x5z3qvf","","3m1x5z3qvf","""2024-11-13T20:20:46.551Z""","null","+","null","","","","","","",""
"","","","","","image-keyboard-response","412","600291","0.0-19.0-2.3-1.6","3m1x5z3qvf","","3m1x5z3qvf","""2024-11-13T20:20:46.551Z""","6736","materials/imgs/D65.png","arrowright","","[""materials/imgs/D4.png"",""materials/imgs/D16.png""]","false","validation","","",""
"","","","","","html-keyboard-response","413","600793","0.0-19.0-2.3-0.7","3m1x5z3qvf","","3m1x5z3qvf","""2024-11-13T20:20:46.551Z""","null","+","null","","","","","","",""
"","","","","","image-keyboard-response","414","601793","0.0-19.0-2.3-1.7","3m1x5z3qvf","","3m1x5z3qvf","""2024-11-13T20:20:46.551Z""","999","materials/imgs/D3.png","arrowleft","","[""materials/imgs/D79.png"",""materials/imgs/D48.png""]","false","validation","","",""
"","","","","","html-keyboard-response","415","602294","0.0-19.0-0.4-0.28","3m1x5z3qvf","","3m1x5z3qvf","""2024-11-13T20:20:46.551Z""","null","+","null","","","","","","",""
"","","","","","image-keyboard-response","416","603765","0.0-19.0-0.4-1.28","3m1x5z3qvf","","3m1x5z3qvf","""2024-11-13T20:20:46.551Z""","1470","materials/imgs/D77.png","arrowright","","[""materials/imgs/D76.png"",""materials/imgs/D21.png""]","false","random","","",""
"","","","","","html-keyboard-response","417","604266","0.0-19.0-0.4-0.29","3m1x5z3qvf","","3m1x5z3qvf","""2024-11-13T20:20:46.551Z""","null","+","null","","","","","","",""
"","","","","","image-keyboard-response","418","605535","0.0-19.0-0.4-1.29","3m1x5z3qvf","","3m1x5z3qvf","""2024-11-13T20:20:46.551Z""","1267","materials/imgs/D16.png","arrowright","","[""materials/imgs/D36.png"",""materials/imgs/D32.png""]","false","random","","",""
"","","","","","html-keyboard-response","419","606036","0.0-19.0-0.4-0.30","3m1x5z3qvf","","3m1x5z3qvf","""2024-11-13T20:20:46.551Z""","null","+","null","","","","","","",""
"","","","","","image-keyboard-response","420","607163","0.0-19.0-0.4-1.30","3m1x5z3qvf","","3m1x5z3qvf","""2024-11-13T20:20:46.551Z""","1125","materials/imgs/D106.png","arrowright","","[""materials/imgs/D20.png"",""materials/imgs/D78.png""]","false","random","","",""
"","","","","","html-keyboard-response","421","607664","0.0-19.0-0.4-0.31","3m1x5z3qvf","","3m1x5z3qvf","""2024-11-13T20:20:46.551Z""","null","+","null","","","","","","",""
"","","","","","image-keyboard-response","422","610233","0.0-19.0-0.4-1.31","3m1x5z3qvf","","3m1x5z3qvf","""2024-11-13T20:20:46.551Z""","2567","materials/imgs/D19.png","arrowleft","","[""materials/imgs/D56.png"",""materials/imgs/D106.png""]","false","random","","",""
"","","","","","html-keyboard-response","423","610735","0.0-19.0-0.4-0.32","3m1x5z3qvf","","3m1x5z3qvf","""2024-11-13T20:20:46.551Z""","null","+","null","","","","","","",""
"","","","","","image-keyboard-response","424","612257","0.0-19.0-0.4-1.32","3m1x5z3qvf","","3m1x5z3qvf","""2024-11-13T20:20:46.551Z""","1521","materials/imgs/D36.png","arrowright","","[""materials/imgs/D51.png"",""materials/imgs/D68.png""]","false","random","","",""
"","","","","","html-keyboard-response","425","612758","0.0-19.0-0.4-0.33","3m1x5z3qvf","","3m1x5z3qvf","""2024-11-13T20:20:46.551Z""","null","+","null","","","","","","",""
"","","","","","image-keyboard-response","426","614177","0.0-19.0-0.4-1.33","3m1x5z3qvf","","3m1x5z3qvf","""2024-11-13T20:20:46.551Z""","1416","materials/imgs/D92.png","arrowleft","","[""materials/imgs/D4.png"",""materials/imgs/D65.png""]","false","random","","",""
"","","","","","html-keyboard-response","427","614678","0.0-19.0-0.4-0.34","3m1x5z3qvf","","3m1x5z3qvf","""2024-11-13T20:20:46.551Z""","null","+","null","","","","","","",""
"","","","","","image-keyboard-response","428","616508","0.0-19.0-0.4-1.34","3m1x5z3qvf","","3m1x5z3qvf","""2024-11-13T20:20:46.551Z""","1828","materials/imgs/D46.png","arrowleft","","[""materials/imgs/D19.png"",""materials/imgs/D77.png""]","false","random","","",""
"","","","","","html-keyboard-response","429","617009","0.0-19.0-1.4-0.4","3m1x5z3qvf","","3m1x5z3qvf","""2024-11-13T20:20:46.551Z""","null","+","null","","","","","","",""
"","","","","","image-keyboard-response","430","617758","0.0-19.0-1.4-1.4","3m1x5z3qvf","","3m1x5z3qvf","""2024-11-13T20:20:46.551Z""","747","materials/imgs/D76.png","arrowleft","","[""materials/imgs/D76.png"",""materials/imgs/D78.png""]","","check","materials/imgs/D76.png","0","true"
"","","","","","html-keyboard-response","431","618259","0.0-19.0-2.4-0.8","3m1x5z3qvf","","3m1x5z3qvf","""2024-11-13T20:20:46.551Z""","null","+","null","","","","","","",""
"","","","","","image-keyboard-response","432","619137","0.0-19.0-2.4-1.8","3m1x5z3qvf","","3m1x5z3qvf","""2024-11-13T20:20:46.551Z""","878","materials/imgs/D9.png","arrowright","","[""materials/imgs/D103.png"",""materials/imgs/D4.png""]","false","validation","","",""
"","","","","","html-keyboard-response","433","619638","0.0-19.0-2.4-0.9","3m1x5z3qvf","","3m1x5z3qvf","""2024-11-13T20:20:46.551Z""","null","+","null","","","","","","",""
"","","","","","image-keyboard-response","434","621328","0.0-19.0-2.4-1.9","3m1x5z3qvf","","3m1x5z3qvf","""2024-11-13T20:20:46.551Z""","1688","materials/imgs/D20.png","arrowleft","","[""materials/imgs/D84.png"",""materials/imgs/D85.png""]","false","validation","","",""
