"success","timeout","failed_images","failed_audio","failed_video","trial_type","trial_index","time_elapsed","internal_node_id","subject_id","sona_id","subjectID","dateInfo","rt","stimulus","response","question_order","choices","speedy","sampleAlg","selected_image","selected_index","correct"
"true","false","[]","[]","[]","preload","0","984","0.0-0.0","3r101742kj","","3r101742kj","""2024-11-14T00:28:34.807Z""","","","","","","","","","",""
"true","","","","","fullscreen","1","2956","0.0-1.0","3r101742kj","","3r101742kj","""2024-11-14T00:28:34.807Z""","","","","","","","","","",""
"","","","","","html-keyboard-response","2","2970","0.0-2.0","3r101742kj","","3r101742kj","""2024-11-14T00:28:34.807Z""","null","","null","","","","","","",""
"","","","","","html-button-response","3","5838","0.0-3.0","3r101742kj","","3r101742kj","""2024-11-14T00:28:34.807Z""","2866","<div style='text-align:center; font-size:20px; line-height:25px; width: 1200px;'>
                Welcome to our experiment! <br>
                <br>At the bottom of this screen, you will see a button that says 'Begin Experiment.
                <br>Please only click that button when you are ready to complete the 25 minute experiment in one sitting. <br>
                <br> Once you click that button, it will not be possible to restart the experiment. <br><br>","0","","","","","","",""
"true","","","","","fullscreen","4","7982","0.0-4.0","3r101742kj","","3r101742kj","""2024-11-14T00:28:34.807Z""","","","","","","","","","",""
"","","","","","survey-multi-select","5","12724","0.0-5.0","3r101742kj","","3r101742kj","""2024-11-14T00:28:34.807Z""","4736","","{""Consent"":[""<strong>I consent</strong>""]}","[0]","","","","","",""
"","","","","","html-button-response","6","13871","0.0-6.0","3r101742kj","","3r101742kj","""2024-11-14T00:28:34.807Z""","1145","Welcome! <p> This experiment involves two parts: demographic information, followed by the experimental task.<p> It will take about 25 minutes to complete both parts.","0","","","","","","",""
"","","","","","survey-text","7","22347","0.0-7.0","3r101742kj","","3r101742kj","""2024-11-14T00:28:34.807Z""","8472","","{""Age"":""19"",""Gender"":""Female"",""Race/ethnicity"":""White""}","","","","","","",""
"","","","","","html-button-response","8","32822","0.0-8.0","3r101742kj","","3r101742kj","""2024-11-14T00:28:34.807Z""","10472","<div style='text-align: center;'>
      <p>In each trial of this task, you will see three texture images: one target item on top, and two choices beneath the target item.</p>
      <p><strong>Please select the item that is most like the target item.</strong></p>
      <p>To select the option on the <strong>LEFT</strong>, press the <strong>LEFT ARROW</strong> key. 
      To select the option on the <strong>RIGHT</strong>, press the <strong>RIGHT ARROW</strong> key.</p>
                  <!-- Target Image at the Top -->
      <div style='margin: 20px;'>
        <img src='materials/imgs/instruction_images/InstructionImg1D78.png' alt='Target Image' style='width:200px; height:auto;' />
        <p><em>Target Image</em></p>
      </div>

      <!-- Two Choice Images Below -->
      <div style='display: flex; justify-content: center;'>
        <div style='margin-right: 50px;'>
          <img src='materials/imgs/instruction_images/InstructionImg2D34.png' alt='Choice Image 1' style='width:150px; height:auto;' />
          <p><em><strong>LEFT ARROW</strong></em></p>
        </div>
        <div style='margin-left: 50px;'>
          <img src='materials/imgs/instruction_images/InstructionImg3D80.png' alt='Choice Image 2' style='width:150px; height:auto;' />
          <p><em><strong>RIGHT ARROW</strong></em></p>
        </div>
      </div>
    </div>

      <p>When you are ready to proceed, please click 'Continue' to begin practice.</p>","0","","","","","","",""
"","","","","","html-keyboard-response","9","35331","0.0-9.0","3r101742kj","","3r101742kj","""2024-11-14T00:28:34.807Z""","null","+","null","","","","","","",""
"","","","","","html-keyboard-response","10","35833","0.0-10.0-0.0-0.0","3r101742kj","","3r101742kj","""2024-11-14T00:28:34.807Z""","null","+","null","","","","","","",""
"","","","","","image-keyboard-response","11","37166","0.0-10.0-0.0-1.0","3r101742kj","","3r101742kj","""2024-11-14T00:28:34.807Z""","1327","materials/imgs/D57.png","arrowright","","[""materials/imgs/D32.png"",""materials/imgs/D24.png""]","false","random","","",""
"","","","","","html-keyboard-response","12","37667","0.0-10.0-0.0-0.1","3r101742kj","","3r101742kj","""2024-11-14T00:28:34.807Z""","null","+","null","","","","","","",""
"","","","","","image-keyboard-response","13","39712","0.0-10.0-0.0-1.1","3r101742kj","","3r101742kj","""2024-11-14T00:28:34.807Z""","2042","materials/imgs/D47.png","arrowright","","[""materials/imgs/D75.png"",""materials/imgs/D29.png""]","false","random","","",""
"","","","","","html-keyboard-response","14","40213","0.0-10.0-0.0-0.2","3r101742kj","","3r101742kj","""2024-11-14T00:28:34.807Z""","null","+","null","","","","","","",""
"","","","","","image-keyboard-response","15","41087","0.0-10.0-0.0-1.2","3r101742kj","","3r101742kj","""2024-11-14T00:28:34.807Z""","871","materials/imgs/D26.png","arrowleft","","[""materials/imgs/D94.png"",""materials/imgs/D78.png""]","false","random","","",""
"","","","","","html-keyboard-response","16","41590","0.0-10.0-0.0-0.3","3r101742kj","","3r101742kj","""2024-11-14T00:28:34.807Z""","null","+","null","","","","","","",""
"","","","","","image-keyboard-response","17","43304","0.0-10.0-0.0-1.3","3r101742kj","","3r101742kj","""2024-11-14T00:28:34.807Z""","1711","materials/imgs/D57.png","arrowleft","","[""materials/imgs/D77.png"",""materials/imgs/D19.png""]","false","random","","",""
"","","","","","html-keyboard-response","18","43805","0.0-10.0-0.0-0.4","3r101742kj","","3r101742kj","""2024-11-14T00:28:34.807Z""","null","+","null","","","","","","",""
"","","","","","image-keyboard-response","19","47590","0.0-10.0-0.0-1.4","3r101742kj","","3r101742kj","""2024-11-14T00:28:34.807Z""","3782","materials/imgs/D48.png","arrowright","","[""materials/imgs/D68.png"",""materials/imgs/D26.png""]","false","random","","",""
"","","","","","html-keyboard-response","20","48095","0.0-10.0-0.0-0.5","3r101742kj","","3r101742kj","""2024-11-14T00:28:34.807Z""","null","+","null","","","","","","",""
"","","","","","image-keyboard-response","21","49481","0.0-10.0-0.0-1.5","3r101742kj","","3r101742kj","""2024-11-14T00:28:34.807Z""","1384","materials/imgs/D26.png","arrowleft","","[""materials/imgs/D11.png"",""materials/imgs/D46.png""]","false","random","","",""
"","","","","","html-keyboard-response","22","49985","0.0-10.0-0.0-0.6","3r101742kj","","3r101742kj","""2024-11-14T00:28:34.807Z""","null","+","null","","","","","","",""
"","","","","","image-keyboard-response","23","51400","0.0-10.0-0.0-1.6","3r101742kj","","3r101742kj","""2024-11-14T00:28:34.807Z""","1412","materials/imgs/D18.png","arrowleft","","[""materials/imgs/D48.png"",""materials/imgs/D25.png""]","false","random","","",""
"","","","","","html-keyboard-response","24","51903","0.0-10.0-0.0-0.7","3r101742kj","","3r101742kj","""2024-11-14T00:28:34.807Z""","null","+","null","","","","","","",""
"","","","","","image-keyboard-response","25","52996","0.0-10.0-0.0-1.7","3r101742kj","","3r101742kj","""2024-11-14T00:28:34.807Z""","1090","materials/imgs/D83.png","arrowright","","[""materials/imgs/D75.png"",""materials/imgs/D103.png""]","false","random","","",""
"","","","","","html-keyboard-response","26","53498","0.0-10.0-0.0-0.8","3r101742kj","","3r101742kj","""2024-11-14T00:28:34.807Z""","null","+","null","","","","","","",""
"","","","","","image-keyboard-response","27","54821","0.0-10.0-0.0-1.8","3r101742kj","","3r101742kj","""2024-11-14T00:28:34.807Z""","1320","materials/imgs/D11.png","arrowleft","","[""materials/imgs/D17.png"",""materials/imgs/D77.png""]","false","random","","",""
"","","","","","html-keyboard-response","28","55323","0.0-10.0-0.0-0.9","3r101742kj","","3r101742kj","""2024-11-14T00:28:34.807Z""","null","+","null","","","","","","",""
"","","","","","image-keyboard-response","29","56418","0.0-10.0-0.0-1.9","3r101742kj","","3r101742kj","""2024-11-14T00:28:34.807Z""","1092","materials/imgs/D56.png","arrowright","","[""materials/imgs/D77.png"",""materials/imgs/D17.png""]","false","random","","",""
"","","","","","html-button-response","30","60601","0.0-11.0","3r101742kj","","3r101742kj","""2024-11-14T00:28:34.807Z""","4180","<p>Great job!</p>
      <p>You are now ready to begin the experiment.</p>
      <p>There will be around 200 trials. You will have opportunities to take breaks at three stages of the trials.</p>
      <p>When you are ready to begin please click 'Continue'.</p>","0","","","","","","",""
"","","","","","html-keyboard-response","31","63111","0.0-12.0","3r101742kj","","3r101742kj","""2024-11-14T00:28:34.807Z""","null","+","null","","","","","","",""
"","","","","","html-keyboard-response","32","63614","0.0-13.0-0.0-0.0","3r101742kj","","3r101742kj","""2024-11-14T00:28:34.807Z""","null","+","null","","","","","","",""
"","","","","","image-keyboard-response","33","64738","0.0-13.0-0.0-1.0","3r101742kj","","3r101742kj","""2024-11-14T00:28:34.807Z""","1121","materials/imgs/D83.png","arrowleft","","[""materials/imgs/D36.png"",""materials/imgs/D29.png""]","false","random","","",""
"","","","","","html-keyboard-response","34","65243","0.0-13.0-0.0-0.1","3r101742kj","","3r101742kj","""2024-11-14T00:28:34.807Z""","null","+","null","","","","","","",""
"","","","","","image-keyboard-response","35","67001","0.0-13.0-0.0-1.1","3r101742kj","","3r101742kj","""2024-11-14T00:28:34.807Z""","1756","materials/imgs/D78.png","arrowleft","","[""materials/imgs/D46.png"",""materials/imgs/D96.png""]","false","random","","",""
"","","","","","html-keyboard-response","36","67505","0.0-13.0-0.0-0.2","3r101742kj","","3r101742kj","""2024-11-14T00:28:34.807Z""","null","+","null","","","","","","",""
"","","","","","image-keyboard-response","37","68992","0.0-13.0-0.0-1.2","3r101742kj","","3r101742kj","""2024-11-14T00:28:34.807Z""","1484","materials/imgs/D9.png","arrowleft","","[""materials/imgs/D104.png"",""materials/imgs/D81.png""]","false","random","","",""
"","","","","","html-keyboard-response","38","69494","0.0-13.0-0.0-0.3","3r101742kj","","3r101742kj","""2024-11-14T00:28:34.807Z""","null","+","null","","","","","","",""
"","","","","","image-keyboard-response","39","70835","0.0-13.0-0.0-1.3","3r101742kj","","3r101742kj","""2024-11-14T00:28:34.807Z""","1338","materials/imgs/D96.png","arrowleft","","[""materials/imgs/D55.png"",""materials/imgs/D76.png""]","false","random","","",""
"","","","","","html-keyboard-response","40","71337","0.0-13.0-0.0-0.4","3r101742kj","","3r101742kj","""2024-11-14T00:28:34.807Z""","null","+","null","","","","","","",""
"","","","","","image-keyboard-response","41","72326","0.0-13.0-0.0-1.4","3r101742kj","","3r101742kj","""2024-11-14T00:28:34.807Z""","986","materials/imgs/D106.png","arrowleft","","[""materials/imgs/D79.png"",""materials/imgs/D64.png""]","false","random","","",""
"","","","","","html-keyboard-response","42","72830","0.0-13.0-0.0-0.5","3r101742kj","","3r101742kj","""2024-11-14T00:28:34.807Z""","null","+","null","","","","","","",""
"","","","","","image-keyboard-response","43","73589","0.0-13.0-0.0-1.5","3r101742kj","","3r101742kj","""2024-11-14T00:28:34.807Z""","757","materials/imgs/D17.png","arrowleft","","[""materials/imgs/D105.png"",""materials/imgs/D48.png""]","false","random","","",""
"","","","","","html-keyboard-response","44","74093","0.0-13.0-0.0-0.6","3r101742kj","","3r101742kj","""2024-11-14T00:28:34.807Z""","null","+","null","","","","","","",""
"","","","","","image-keyboard-response","45","76147","0.0-13.0-0.0-1.6","3r101742kj","","3r101742kj","""2024-11-14T00:28:34.807Z""","2052","materials/imgs/D18.png","arrowleft","","[""materials/imgs/D81.png"",""materials/imgs/D84.png""]","false","random","","",""
"","","","","","html-keyboard-response","46","76648","0.0-13.0-1.0-0.0","3r101742kj","","3r101742kj","""2024-11-14T00:28:34.807Z""","null","+","null","","","","","","",""
"","","","","","image-keyboard-response","47","77242","0.0-13.0-1.0-1.0","3r101742kj","","3r101742kj","""2024-11-14T00:28:34.807Z""","592","materials/imgs/D26.png","arrowleft","","[""materials/imgs/D26.png"",""materials/imgs/D46.png""]","","check","materials/imgs/D26.png","0","true"
"","","","","","html-keyboard-response","48","77746","0.0-13.0-2.0-0.0","3r101742kj","","3r101742kj","""2024-11-14T00:28:34.807Z""","null","+","null","","","","","","",""
"","","","","","image-keyboard-response","49","78612","0.0-13.0-2.0-1.0","3r101742kj","","3r101742kj","""2024-11-14T00:28:34.807Z""","864","materials/imgs/D57.png","arrowright","","[""materials/imgs/D111.png"",""materials/imgs/D4.png""]","false","validation","","",""
"","","","","","html-keyboard-response","50","79117","0.0-13.0-2.0-0.1","3r101742kj","","3r101742kj","""2024-11-14T00:28:34.807Z""","null","+","null","","","","","","",""
"","","","","","image-keyboard-response","51","79940","0.0-13.0-2.0-1.1","3r101742kj","","3r101742kj","""2024-11-14T00:28:34.807Z""","821","materials/imgs/D4.png","arrowleft","","[""materials/imgs/D52.png"",""materials/imgs/D83.png""]","false","validation","","",""
"","","","","","html-keyboard-response","52","80443","0.0-13.0-0.1-0.7","3r101742kj","","3r101742kj","""2024-11-14T00:28:34.807Z""","null","+","null","","","","","","",""
"","","","","","image-keyboard-response","53","81589","0.0-13.0-0.1-1.7","3r101742kj","","3r101742kj","""2024-11-14T00:28:34.807Z""","1143","materials/imgs/D56.png","arrowright","","[""materials/imgs/D18.png"",""materials/imgs/D103.png""]","false","random","","",""
"","","","","","html-keyboard-response","54","82093","0.0-13.0-0.1-0.8","3r101742kj","","3r101742kj","""2024-11-14T00:28:34.807Z""","null","+","null","","","","","","",""
"","","","","","image-keyboard-response","55","83036","0.0-13.0-0.1-1.8","3r101742kj","","3r101742kj","""2024-11-14T00:28:34.807Z""","941","materials/imgs/D83.png","arrowleft","","[""materials/imgs/D17.png"",""materials/imgs/D9.png""]","false","random","","",""
"","","","","","html-keyboard-response","56","83541","0.0-13.0-0.1-0.9","3r101742kj","","3r101742kj","""2024-11-14T00:28:34.807Z""","null","+","null","","","","","","",""
"","","","","","image-keyboard-response","57","84506","0.0-13.0-0.1-1.9","3r101742kj","","3r101742kj","""2024-11-14T00:28:34.807Z""","963","materials/imgs/D75.png","arrowleft","","[""materials/imgs/D29.png"",""materials/imgs/D49.png""]","false","random","","",""
"","","","","","html-keyboard-response","58","85009","0.0-13.0-0.1-0.10","3r101742kj","","3r101742kj","""2024-11-14T00:28:34.807Z""","null","+","null","","","","","","",""
"","","","","","image-keyboard-response","59","86402","0.0-13.0-0.1-1.10","3r101742kj","","3r101742kj","""2024-11-14T00:28:34.807Z""","1391","materials/imgs/D46.png","arrowleft","","[""materials/imgs/D78.png"",""materials/imgs/D96.png""]","false","random","","",""
"","","","","","html-keyboard-response","60","86905","0.0-13.0-0.1-0.11","3r101742kj","","3r101742kj","""2024-11-14T00:28:34.807Z""","null","+","null","","","","","","",""
"","","","","","image-keyboard-response","61","88085","0.0-13.0-0.1-1.11","3r101742kj","","3r101742kj","""2024-11-14T00:28:34.807Z""","1178","materials/imgs/D48.png","arrowleft","","[""materials/imgs/D26.png"",""materials/imgs/D16.png""]","false","random","","",""
"","","","","","html-keyboard-response","62","88588","0.0-13.0-0.1-0.12","3r101742kj","","3r101742kj","""2024-11-14T00:28:34.807Z""","null","+","null","","","","","","",""
"","","","","","image-keyboard-response","63","89426","0.0-13.0-0.1-1.12","3r101742kj","","3r101742kj","""2024-11-14T00:28:34.807Z""","835","materials/imgs/D53.png","arrowleft","","[""materials/imgs/D6.png"",""materials/imgs/D79.png""]","false","random","","",""
"","","","","","html-keyboard-response","64","89929","0.0-13.0-0.1-0.13","3r101742kj","","3r101742kj","""2024-11-14T00:28:34.807Z""","null","+","null","","","","","","",""
"","","","","","image-keyboard-response","65","91087","0.0-13.0-0.1-1.13","3r101742kj","","3r101742kj","""2024-11-14T00:28:34.807Z""","1155","materials/imgs/D92.png","arrowright","","[""materials/imgs/D75.png"",""materials/imgs/D103.png""]","false","random","","",""
"","","","","","html-keyboard-response","66","91588","0.0-13.0-1.1-0.1","3r101742kj","","3r101742kj","""2024-11-14T00:28:34.807Z""","null","+","null","","","","","","",""
"","","","","","image-keyboard-response","67","92217","0.0-13.0-1.1-1.1","3r101742kj","","3r101742kj","""2024-11-14T00:28:34.807Z""","626","materials/imgs/D64.png","arrowleft","","[""materials/imgs/D64.png"",""materials/imgs/D53.png""]","","check","materials/imgs/D64.png","0","true"
"","","","","","html-keyboard-response","68","92721","0.0-13.0-2.1-0.2","3r101742kj","","3r101742kj","""2024-11-14T00:28:34.807Z""","null","+","null","","","","","","",""
"","","","","","image-keyboard-response","69","93708","0.0-13.0-2.1-1.2","3r101742kj","","3r101742kj","""2024-11-14T00:28:34.807Z""","985","materials/imgs/D32.png","arrowleft","","[""materials/imgs/D68.png"",""materials/imgs/D96.png""]","false","validation","","",""
"","","","","","html-keyboard-response","70","94210","0.0-13.0-2.1-0.3","3r101742kj","","3r101742kj","""2024-11-14T00:28:34.807Z""","null","+","null","","","","","","",""
"","","","","","image-keyboard-response","71","95916","0.0-13.0-2.1-1.3","3r101742kj","","3r101742kj","""2024-11-14T00:28:34.807Z""","1704","materials/imgs/D66.png","arrowleft","","[""materials/imgs/D85.png"",""materials/imgs/D25.png""]","false","validation","","",""
"","","","","","html-keyboard-response","72","96420","0.0-13.0-0.2-0.14","3r101742kj","","3r101742kj","""2024-11-14T00:28:34.807Z""","null","+","null","","","","","","",""
"","","","","","image-keyboard-response","73","97364","0.0-13.0-0.2-1.14","3r101742kj","","3r101742kj","""2024-11-14T00:28:34.807Z""","942","materials/imgs/D79.png","arrowleft","","[""materials/imgs/D81.png"",""materials/imgs/D47.png""]","false","random","","",""
"","","","","","html-keyboard-response","74","97869","0.0-13.0-0.2-0.15","3r101742kj","","3r101742kj","""2024-11-14T00:28:34.807Z""","null","+","null","","","","","","",""
"","","","","","image-keyboard-response","75","98756","0.0-13.0-0.2-1.15","3r101742kj","","3r101742kj","""2024-11-14T00:28:34.807Z""","884","materials/imgs/D66.png","arrowleft","","[""materials/imgs/D92.png"",""materials/imgs/D83.png""]","false","random","","",""
"","","","","","html-keyboard-response","76","99258","0.0-13.0-0.2-0.16","3r101742kj","","3r101742kj","""2024-11-14T00:28:34.807Z""","null","+","null","","","","","","",""
"","","","","","image-keyboard-response","77","101737","0.0-13.0-0.2-1.16","3r101742kj","","3r101742kj","""2024-11-14T00:28:34.807Z""","2476","materials/imgs/D47.png","arrowleft","","[""materials/imgs/D24.png"",""materials/imgs/D82.png""]","false","random","","",""
"","","","","","html-keyboard-response","78","102242","0.0-13.0-0.2-0.17","3r101742kj","","3r101742kj","""2024-11-14T00:28:34.807Z""","null","+","null","","","","","","",""
"","","","","","image-keyboard-response","79","102996","0.0-13.0-0.2-1.17","3r101742kj","","3r101742kj","""2024-11-14T00:28:34.807Z""","752","materials/imgs/D101.png","arrowright","","[""materials/imgs/D81.png"",""materials/imgs/D35.png""]","false","random","","",""
"","","","","","html-keyboard-response","80","103500","0.0-13.0-0.2-0.18","3r101742kj","","3r101742kj","""2024-11-14T00:28:34.807Z""","null","+","null","","","","","","",""
"","","","","","image-keyboard-response","81","104489","0.0-13.0-0.2-1.18","3r101742kj","","3r101742kj","""2024-11-14T00:28:34.807Z""","987","materials/imgs/D16.png","arrowright","","[""materials/imgs/D111.png"",""materials/imgs/D77.png""]","false","random","","",""
"","","","","","html-keyboard-response","82","104994","0.0-13.0-0.2-0.19","3r101742kj","","3r101742kj","""2024-11-14T00:28:34.807Z""","null","+","null","","","","","","",""
"","","","","","image-keyboard-response","83","105709","0.0-13.0-0.2-1.19","3r101742kj","","3r101742kj","""2024-11-14T00:28:34.807Z""","712","materials/imgs/D9.png","arrowright","","[""materials/imgs/D101.png"",""materials/imgs/D29.png""]","false","random","","",""
"","","","","","html-keyboard-response","84","106212","0.0-13.0-0.2-0.20","3r101742kj","","3r101742kj","""2024-11-14T00:28:34.807Z""","null","+","null","","","","","","",""
"","","","","","image-keyboard-response","85","106963","0.0-13.0-0.2-1.20","3r101742kj","","3r101742kj","""2024-11-14T00:28:34.807Z""","748","materials/imgs/D57.png","arrowleft","","[""materials/imgs/D17.png"",""materials/imgs/D49.png""]","false","random","","",""
"","","","","","html-keyboard-response","86","107464","0.0-13.0-1.2-0.2","3r101742kj","","3r101742kj","""2024-11-14T00:28:34.807Z""","null","+","null","","","","","","",""
"","","","","","image-keyboard-response","87","108139","0.0-13.0-1.2-1.2","3r101742kj","","3r101742kj","""2024-11-14T00:28:34.807Z""","672","materials/imgs/D46.png","arrowleft","","[""materials/imgs/D46.png"",""materials/imgs/D26.png""]","","check","materials/imgs/D46.png","0","true"
"","","","","","html-keyboard-response","88","108641","0.0-13.0-2.2-0.4","3r101742kj","","3r101742kj","""2024-11-14T00:28:34.807Z""","null","+","null","","","","","","",""
"","","","","","image-keyboard-response","89","110426","0.0-13.0-2.2-1.4","3r101742kj","","3r101742kj","""2024-11-14T00:28:34.807Z""","1782","materials/imgs/D6.png","arrowleft","","[""materials/imgs/D26.png"",""materials/imgs/D76.png""]","false","validation","","",""
"","","","","","html-keyboard-response","90","110929","0.0-13.0-2.2-0.5","3r101742kj","","3r101742kj","""2024-11-14T00:28:34.807Z""","null","+","null","","","","","","",""
"","","","","","image-keyboard-response","91","111612","0.0-13.0-2.2-1.5","3r101742kj","","3r101742kj","""2024-11-14T00:28:34.807Z""","680","materials/imgs/D48.png","arrowleft","","[""materials/imgs/D4.png"",""materials/imgs/D37.png""]","false","validation","","",""
"","","","","","html-keyboard-response","92","112115","0.0-13.0-0.3-0.21","3r101742kj","","3r101742kj","""2024-11-14T00:28:34.807Z""","null","+","null","","","","","","",""
"","","","","","image-keyboard-response","93","112952","0.0-13.0-0.3-1.21","3r101742kj","","3r101742kj","""2024-11-14T00:28:34.807Z""","834","materials/imgs/D102.png","arrowleft","","[""materials/imgs/D47.png"",""materials/imgs/D77.png""]","false","random","","",""
"","","","","","html-keyboard-response","94","113454","0.0-13.0-0.3-0.22","3r101742kj","","3r101742kj","""2024-11-14T00:28:34.807Z""","null","+","null","","","","","","",""
"","","","","","image-keyboard-response","95","114511","0.0-13.0-0.3-1.22","3r101742kj","","3r101742kj","""2024-11-14T00:28:34.807Z""","1054","materials/imgs/D80.png","arrowleft","","[""materials/imgs/D81.png"",""materials/imgs/D53.png""]","false","random","","",""
"","","","","","html-keyboard-response","96","115014","0.0-13.0-0.3-0.23","3r101742kj","","3r101742kj","""2024-11-14T00:28:34.807Z""","null","+","null","","","","","","",""
"","","","","","image-keyboard-response","97","116153","0.0-13.0-0.3-1.23","3r101742kj","","3r101742kj","""2024-11-14T00:28:34.807Z""","1137","materials/imgs/D18.png","arrowleft","","[""materials/imgs/D83.png"",""materials/imgs/D35.png""]","false","random","","",""
"","","","","","html-keyboard-response","98","116657","0.0-13.0-0.3-0.24","3r101742kj","","3r101742kj","""2024-11-14T00:28:34.807Z""","null","+","null","","","","","","",""
"","","","","","image-keyboard-response","99","117982","0.0-13.0-0.3-1.24","3r101742kj","","3r101742kj","""2024-11-14T00:28:34.807Z""","1323","materials/imgs/D74.png","arrowleft","","[""materials/imgs/D95.png"",""materials/imgs/D79.png""]","false","random","","",""
"","","","","","html-keyboard-response","100","118487","0.0-13.0-0.3-0.25","3r101742kj","","3r101742kj","""2024-11-14T00:28:34.807Z""","null","+","null","","","","","","",""
"","","","","","image-keyboard-response","101","119610","0.0-13.0-0.3-1.25","3r101742kj","","3r101742kj","""2024-11-14T00:28:34.807Z""","1121","materials/imgs/D32.png","arrowright","","[""materials/imgs/D18.png"",""materials/imgs/D34.png""]","false","random","","",""
"","","","","","html-keyboard-response","102","120115","0.0-13.0-0.3-0.26","3r101742kj","","3r101742kj","""2024-11-14T00:28:34.807Z""","null","+","null","","","","","","",""
"","","","","","image-keyboard-response","103","120955","0.0-13.0-0.3-1.26","3r101742kj","","3r101742kj","""2024-11-14T00:28:34.807Z""","838","materials/imgs/D20.png","arrowright","","[""materials/imgs/D79.png"",""materials/imgs/D111.png""]","false","random","","",""
"","","","","","html-keyboard-response","104","121457","0.0-13.0-0.3-0.27","3r101742kj","","3r101742kj","""2024-11-14T00:28:34.807Z""","null","+","null","","","","","","",""
"","","","","","image-keyboard-response","105","122221","0.0-13.0-0.3-1.27","3r101742kj","","3r101742kj","""2024-11-14T00:28:34.807Z""","762","materials/imgs/D1.png","arrowleft","","[""materials/imgs/D26.png"",""materials/imgs/D14.png""]","false","random","","",""
"","","","","","html-keyboard-response","106","122722","0.0-13.0-1.3-0.3","3r101742kj","","3r101742kj","""2024-11-14T00:28:34.807Z""","null","+","null","","","","","","",""
"","","","","","image-keyboard-response","107","123375","0.0-13.0-1.3-1.3","3r101742kj","","3r101742kj","""2024-11-14T00:28:34.807Z""","650","materials/imgs/D8.png","arrowright","","[""materials/imgs/D18.png"",""materials/imgs/D8.png""]","","check","materials/imgs/D8.png","1","true"
"","","","","","html-keyboard-response","108","123879","0.0-13.0-2.3-0.6","3r101742kj","","3r101742kj","""2024-11-14T00:28:34.807Z""","null","+","null","","","","","","",""
"","","","","","image-keyboard-response","109","124909","0.0-13.0-2.3-1.6","3r101742kj","","3r101742kj","""2024-11-14T00:28:34.807Z""","1028","materials/imgs/D92.png","arrowright","","[""materials/imgs/D56.png"",""materials/imgs/D77.png""]","false","validation","","",""
"","","","","","html-keyboard-response","110","125410","0.0-13.0-2.3-0.7","3r101742kj","","3r101742kj","""2024-11-14T00:28:34.807Z""","null","+","null","","","","","","",""
"","","","","","image-keyboard-response","111","126277","0.0-13.0-2.3-1.7","3r101742kj","","3r101742kj","""2024-11-14T00:28:34.807Z""","864","materials/imgs/D51.png","arrowleft","","[""materials/imgs/D92.png"",""materials/imgs/D20.png""]","false","validation","","",""
"","","","","","html-keyboard-response","112","126781","0.0-13.0-0.4-0.28","3r101742kj","","3r101742kj","""2024-11-14T00:28:34.807Z""","null","+","null","","","","","","",""
"","","","","","image-keyboard-response","113","127564","0.0-13.0-0.4-1.28","3r101742kj","","3r101742kj","""2024-11-14T00:28:34.807Z""","780","materials/imgs/D87.png","arrowright","","[""materials/imgs/D47.png"",""materials/imgs/D37.png""]","false","random","","",""
"","","","","","html-keyboard-response","114","128066","0.0-13.0-0.4-0.29","3r101742kj","","3r101742kj","""2024-11-14T00:28:34.807Z""","null","+","null","","","","","","",""
"","","","","","image-keyboard-response","115","128986","0.0-13.0-0.4-1.29","3r101742kj","","3r101742kj","""2024-11-14T00:28:34.807Z""","917","materials/imgs/D21.png","arrowleft","","[""materials/imgs/D77.png"",""materials/imgs/D49.png""]","false","random","","",""
"","","","","","html-keyboard-response","116","129490","0.0-13.0-0.4-0.30","3r101742kj","","3r101742kj","""2024-11-14T00:28:34.807Z""","null","+","null","","","","","","",""
"","","","","","image-keyboard-response","117","130381","0.0-13.0-0.4-1.30","3r101742kj","","3r101742kj","""2024-11-14T00:28:34.807Z""","888","materials/imgs/D49.png","arrowleft","","[""materials/imgs/D55.png"",""materials/imgs/D83.png""]","false","random","","",""
"","","","","","html-keyboard-response","118","130886","0.0-13.0-0.4-0.31","3r101742kj","","3r101742kj","""2024-11-14T00:28:34.807Z""","null","+","null","","","","","","",""
"","","","","","image-keyboard-response","119","132126","0.0-13.0-0.4-1.31","3r101742kj","","3r101742kj","""2024-11-14T00:28:34.807Z""","1237","materials/imgs/D78.png","arrowleft","","[""materials/imgs/D1.png"",""materials/imgs/D25.png""]","false","random","","",""
"","","","","","html-keyboard-response","120","132628","0.0-13.0-0.4-0.32","3r101742kj","","3r101742kj","""2024-11-14T00:28:34.807Z""","null","+","null","","","","","","",""
"","","","","","image-keyboard-response","121","133786","0.0-13.0-0.4-1.32","3r101742kj","","3r101742kj","""2024-11-14T00:28:34.807Z""","1155","materials/imgs/D101.png","arrowleft","","[""materials/imgs/D6.png"",""materials/imgs/D16.png""]","false","random","","",""
"","","","","","html-keyboard-response","122","134290","0.0-13.0-0.4-0.33","3r101742kj","","3r101742kj","""2024-11-14T00:28:34.807Z""","null","+","null","","","","","","",""
"","","","","","image-keyboard-response","123","135045","0.0-13.0-0.4-1.33","3r101742kj","","3r101742kj","""2024-11-14T00:28:34.807Z""","752","materials/imgs/D9.png","arrowright","","[""materials/imgs/D102.png"",""materials/imgs/D103.png""]","false","random","","",""
"","","","","","html-keyboard-response","124","135546","0.0-13.0-0.4-0.34","3r101742kj","","3r101742kj","""2024-11-14T00:28:34.807Z""","null","+","null","","","","","","",""
"","","","","","image-keyboard-response","125","137150","0.0-13.0-0.4-1.34","3r101742kj","","3r101742kj","""2024-11-14T00:28:34.807Z""","1601","materials/imgs/D81.png","arrowright","","[""materials/imgs/D32.png"",""materials/imgs/D68.png""]","false","random","","",""
"","","","","","html-keyboard-response","126","137653","0.0-13.0-1.4-0.4","3r101742kj","","3r101742kj","""2024-11-14T00:28:34.807Z""","null","+","null","","","","","","",""
"","","","","","image-keyboard-response","127","138223","0.0-13.0-1.4-1.4","3r101742kj","","3r101742kj","""2024-11-14T00:28:34.807Z""","567","materials/imgs/D46.png","arrowleft","","[""materials/imgs/D46.png"",""materials/imgs/D26.png""]","","check","materials/imgs/D46.png","0","true"
"","","","","","html-keyboard-response","128","138727","0.0-13.0-2.4-0.8","3r101742kj","","3r101742kj","""2024-11-14T00:28:34.807Z""","null","+","null","","","","","","",""
"","","","","","image-keyboard-response","129","140134","0.0-13.0-2.4-1.8","3r101742kj","","3r101742kj","""2024-11-14T00:28:34.807Z""","1405","materials/imgs/D20.png","arrowleft","","[""materials/imgs/D84.png"",""materials/imgs/D85.png""]","false","validation","","",""
"","","","","","html-keyboard-response","130","140638","0.0-13.0-2.4-0.9","3r101742kj","","3r101742kj","""2024-11-14T00:28:34.807Z""","null","+","null","","","","","","",""
"","","","","","image-keyboard-response","131","141589","0.0-13.0-2.4-1.9","3r101742kj","","3r101742kj","""2024-11-14T00:28:34.807Z""","949","materials/imgs/D19.png","arrowleft","","[""materials/imgs/D111.png"",""materials/imgs/D56.png""]","false","validation","","",""
"","","","","","html-button-response","132","143065","0.0-14.0","3r101742kj","","3r101742kj","""2024-11-14T00:28:34.807Z""","1475","You have completed 25% of the trials. Please click 'Continue' when you are ready proceed.","0","","","","","","",""
"","","","","","html-keyboard-response","133","143566","0.0-15.0-0.0-0.0","3r101742kj","","3r101742kj","""2024-11-14T00:28:34.807Z""","null","+","null","","","","","","",""
"","","","","","image-keyboard-response","134","145040","0.0-15.0-0.0-1.0","3r101742kj","","3r101742kj","""2024-11-14T00:28:34.807Z""","1471","materials/imgs/D80.png","arrowright","","[""materials/imgs/D105.png"",""materials/imgs/D9.png""]","false","random","","",""
"","","","","","html-keyboard-response","135","145544","0.0-15.0-0.0-0.1","3r101742kj","","3r101742kj","""2024-11-14T00:28:34.807Z""","null","+","null","","","","","","",""
"","","","","","image-keyboard-response","136","146619","0.0-15.0-0.0-1.1","3r101742kj","","3r101742kj","""2024-11-14T00:28:34.807Z""","1073","materials/imgs/D111.png","arrowright","","[""materials/imgs/D83.png"",""materials/imgs/D6.png""]","false","random","","",""
"","","","","","html-keyboard-response","137","147122","0.0-15.0-0.0-0.2","3r101742kj","","3r101742kj","""2024-11-14T00:28:34.807Z""","null","+","null","","","","","","",""
"","","","","","image-keyboard-response","138","147657","0.0-15.0-0.0-1.2","3r101742kj","","3r101742kj","""2024-11-14T00:28:34.807Z""","532","materials/imgs/D51.png","arrowright","","[""materials/imgs/D57.png"",""materials/imgs/D106.png""]","false","random","","",""
"","","","","","html-keyboard-response","139","148162","0.0-15.0-0.0-0.3","3r101742kj","","3r101742kj","""2024-11-14T00:28:34.807Z""","null","+","null","","","","","","",""
"","","","","","image-keyboard-response","140","149133","0.0-15.0-0.0-1.3","3r101742kj","","3r101742kj","""2024-11-14T00:28:34.807Z""","968","materials/imgs/D77.png","arrowright","","[""materials/imgs/D25.png"",""materials/imgs/D64.png""]","false","random","","",""
"","","","","","html-keyboard-response","141","149635","0.0-15.0-0.0-0.4","3r101742kj","","3r101742kj","""2024-11-14T00:28:34.807Z""","null","+","null","","","","","","",""
"","","","","","image-keyboard-response","142","150523","0.0-15.0-0.0-1.4","3r101742kj","","3r101742kj","""2024-11-14T00:28:34.807Z""","885","materials/imgs/D74.png","arrowright","","[""materials/imgs/D49.png"",""materials/imgs/D80.png""]","false","random","","",""
"","","","","","html-keyboard-response","143","151029","0.0-15.0-0.0-0.5","3r101742kj","","3r101742kj","""2024-11-14T00:28:34.807Z""","null","+","null","","","","","","",""
"","","","","","image-keyboard-response","144","151905","0.0-15.0-0.0-1.5","3r101742kj","","3r101742kj","""2024-11-14T00:28:34.807Z""","874","materials/imgs/D20.png","arrowright","","[""materials/imgs/D94.png"",""materials/imgs/D6.png""]","false","random","","",""
"","","","","","html-keyboard-response","145","152407","0.0-15.0-0.0-0.6","3r101742kj","","3r101742kj","""2024-11-14T00:28:34.807Z""","null","+","null","","","","","","",""
"","","","","","image-keyboard-response","146","153007","0.0-15.0-0.0-1.6","3r101742kj","","3r101742kj","""2024-11-14T00:28:34.807Z""","596","materials/imgs/D77.png","arrowleft","","[""materials/imgs/D53.png"",""materials/imgs/D104.png""]","false","random","","",""
"","","","","","html-keyboard-response","147","153510","0.0-15.0-1.0-0.0","3r101742kj","","3r101742kj","""2024-11-14T00:28:34.807Z""","null","+","null","","","","","","",""
"","","","","","image-keyboard-response","148","154014","0.0-15.0-1.0-1.0","3r101742kj","","3r101742kj","""2024-11-14T00:28:34.807Z""","501","materials/imgs/D53.png","arrowright","","[""materials/imgs/D64.png"",""materials/imgs/D53.png""]","","check","materials/imgs/D53.png","1","true"
"","","","","","html-keyboard-response","149","154517","0.0-15.0-2.0-0.0","3r101742kj","","3r101742kj","""2024-11-14T00:28:34.807Z""","null","+","null","","","","","","",""
"","","","","","image-keyboard-response","150","155054","0.0-15.0-2.0-1.0","3r101742kj","","3r101742kj","""2024-11-14T00:28:34.807Z""","535","materials/imgs/D35.png","arrowleft","","[""materials/imgs/D83.png"",""materials/imgs/D24.png""]","false","validation","","",""
"","","","","","html-keyboard-response","151","155557","0.0-15.0-2.0-0.1","3r101742kj","","3r101742kj","""2024-11-14T00:28:34.807Z""","null","+","null","","","","","","",""
"","","","","","image-keyboard-response","152","156084","0.0-15.0-2.0-1.1","3r101742kj","","3r101742kj","""2024-11-14T00:28:34.807Z""","524","materials/imgs/D9.png","arrowright","","[""materials/imgs/D103.png"",""materials/imgs/D4.png""]","false","validation","","",""
"","","","","","html-keyboard-response","153","156587","0.0-15.0-0.1-0.7","3r101742kj","","3r101742kj","""2024-11-14T00:28:34.807Z""","null","+","null","","","","","","",""
"","","","","","image-keyboard-response","154","157613","0.0-15.0-0.1-1.7","3r101742kj","","3r101742kj","""2024-11-14T00:28:34.807Z""","1023","materials/imgs/D20.png","arrowright","","[""materials/imgs/D94.png"",""materials/imgs/D52.png""]","false","random","","",""
"","","","","","html-keyboard-response","155","158116","0.0-15.0-0.1-0.8","3r101742kj","","3r101742kj","""2024-11-14T00:28:34.807Z""","null","+","null","","","","","","",""
"","","","","","image-keyboard-response","156","159057","0.0-15.0-0.1-1.8","3r101742kj","","3r101742kj","""2024-11-14T00:28:34.807Z""","938","materials/imgs/D85.png","arrowright","","[""materials/imgs/D26.png"",""materials/imgs/D65.png""]","false","random","","",""
"","","","","","html-keyboard-response","157","159560","0.0-15.0-0.1-0.9","3r101742kj","","3r101742kj","""2024-11-14T00:28:34.807Z""","null","+","null","","","","","","",""
"","","","","","image-keyboard-response","158","160101","0.0-15.0-0.1-1.9","3r101742kj","","3r101742kj","""2024-11-14T00:28:34.807Z""","538","materials/imgs/D92.png","arrowleft","","[""materials/imgs/D111.png"",""materials/imgs/D25.png""]","false","random","","",""
"","","","","","html-keyboard-response","159","160602","0.0-15.0-0.1-0.10","3r101742kj","","3r101742kj","""2024-11-14T00:28:34.807Z""","null","+","null","","","","","","",""
"","","","","","image-keyboard-response","160","161207","0.0-15.0-0.1-1.10","3r101742kj","","3r101742kj","""2024-11-14T00:28:34.807Z""","602","materials/imgs/D17.png","arrowleft","","[""materials/imgs/D77.png"",""materials/imgs/D68.png""]","false","random","","",""
"","","","","","html-keyboard-response","161","161709","0.0-15.0-0.1-0.11","3r101742kj","","3r101742kj","""2024-11-14T00:28:34.807Z""","null","+","null","","","","","","",""
"","","","","","image-keyboard-response","162","163036","0.0-15.0-0.1-1.11","3r101742kj","","3r101742kj","""2024-11-14T00:28:34.807Z""","1325","materials/imgs/D49.png","arrowleft","","[""materials/imgs/D103.png"",""materials/imgs/D82.png""]","false","random","","",""
"","","","","","html-keyboard-response","163","163541","0.0-15.0-0.1-0.12","3r101742kj","","3r101742kj","""2024-11-14T00:28:34.807Z""","null","+","null","","","","","","",""
"","","","","","image-keyboard-response","164","164114","0.0-15.0-0.1-1.12","3r101742kj","","3r101742kj","""2024-11-14T00:28:34.807Z""","571","materials/imgs/D103.png","arrowleft","","[""materials/imgs/D82.png"",""materials/imgs/D18.png""]","false","random","","",""
"","","","","","html-keyboard-response","165","164619","0.0-15.0-0.1-0.13","3r101742kj","","3r101742kj","""2024-11-14T00:28:34.807Z""","null","+","null","","","","","","",""
"","","","","","image-keyboard-response","166","165479","0.0-15.0-0.1-1.13","3r101742kj","","3r101742kj","""2024-11-14T00:28:34.807Z""","857","materials/imgs/D76.png","arrowright","","[""materials/imgs/D8.png"",""materials/imgs/D80.png""]","false","random","","",""
"","","","","","html-keyboard-response","167","165981","0.0-15.0-1.1-0.1","3r101742kj","","3r101742kj","""2024-11-14T00:28:34.807Z""","null","+","null","","","","","","",""
"","","","","","image-keyboard-response","168","166546","0.0-15.0-1.1-1.1","3r101742kj","","3r101742kj","""2024-11-14T00:28:34.807Z""","563","materials/imgs/D76.png","arrowleft","","[""materials/imgs/D76.png"",""materials/imgs/D78.png""]","","check","materials/imgs/D76.png","0","true"
"","","","","","html-keyboard-response","169","167049","0.0-15.0-2.1-0.2","3r101742kj","","3r101742kj","""2024-11-14T00:28:34.807Z""","null","+","null","","","","","","",""
"","","","","","image-keyboard-response","170","168102","0.0-15.0-2.1-1.2","3r101742kj","","3r101742kj","""2024-11-14T00:28:34.807Z""","1051","materials/imgs/D102.png","arrowright","","[""materials/imgs/D32.png"",""materials/imgs/D111.png""]","false","validation","","",""
"","","","","","html-keyboard-response","171","168603","0.0-15.0-2.1-0.3","3r101742kj","","3r101742kj","""2024-11-14T00:28:34.807Z""","null","+","null","","","","","","",""
"","","","","","image-keyboard-response","172","169659","0.0-15.0-2.1-1.3","3r101742kj","","3r101742kj","""2024-11-14T00:28:34.807Z""","1054","materials/imgs/D49.png","arrowright","","[""materials/imgs/D8.png"",""materials/imgs/D101.png""]","false","validation","","",""
"","","","","","html-keyboard-response","173","170162","0.0-15.0-0.2-0.14","3r101742kj","","3r101742kj","""2024-11-14T00:28:34.807Z""","null","+","null","","","","","","",""
"","","","","","image-keyboard-response","174","171073","0.0-15.0-0.2-1.14","3r101742kj","","3r101742kj","""2024-11-14T00:28:34.807Z""","908","materials/imgs/D76.png","arrowright","","[""materials/imgs/D4.png"",""materials/imgs/D11.png""]","false","random","","",""
"","","","","","html-keyboard-response","175","171574","0.0-15.0-0.2-0.15","3r101742kj","","3r101742kj","""2024-11-14T00:28:34.807Z""","null","+","null","","","","","","",""
"","","","","","image-keyboard-response","176","173022","0.0-15.0-0.2-1.15","3r101742kj","","3r101742kj","""2024-11-14T00:28:34.807Z""","1445","materials/imgs/D35.png","arrowright","","[""materials/imgs/D57.png"",""materials/imgs/D24.png""]","false","random","","",""
"","","","","","html-keyboard-response","177","173525","0.0-15.0-0.2-0.16","3r101742kj","","3r101742kj","""2024-11-14T00:28:34.807Z""","null","+","null","","","","","","",""
"","","","","","image-keyboard-response","178","176318","0.0-15.0-0.2-1.16","3r101742kj","","3r101742kj","""2024-11-14T00:28:34.807Z""","2791","materials/imgs/D37.png","arrowleft","","[""materials/imgs/D21.png"",""materials/imgs/D36.png""]","false","random","","",""
"","","","","","html-keyboard-response","179","176823","0.0-15.0-0.2-0.17","3r101742kj","","3r101742kj","""2024-11-14T00:28:34.807Z""","null","+","null","","","","","","",""
"","","","","","image-keyboard-response","180","177935","0.0-15.0-0.2-1.17","3r101742kj","","3r101742kj","""2024-11-14T00:28:34.807Z""","1109","materials/imgs/D34.png","arrowleft","","[""materials/imgs/D87.png"",""materials/imgs/D51.png""]","false","random","","",""
"","","","","","html-keyboard-response","181","178440","0.0-15.0-0.2-0.18","3r101742kj","","3r101742kj","""2024-11-14T00:28:34.807Z""","null","+","null","","","","","","",""
"","","","","","image-keyboard-response","182","179454","0.0-15.0-0.2-1.18","3r101742kj","","3r101742kj","""2024-11-14T00:28:34.807Z""","1012","materials/imgs/D92.png","arrowright","","[""materials/imgs/D106.png"",""materials/imgs/D3.png""]","false","random","","",""
"","","","","","html-keyboard-response","183","179957","0.0-15.0-0.2-0.19","3r101742kj","","3r101742kj","""2024-11-14T00:28:34.807Z""","null","+","null","","","","","","",""
"","","","","","image-keyboard-response","184","180963","0.0-15.0-0.2-1.19","3r101742kj","","3r101742kj","""2024-11-14T00:28:34.807Z""","1004","materials/imgs/D68.png","arrowleft","","[""materials/imgs/D83.png"",""materials/imgs/D20.png""]","false","random","","",""
"","","","","","html-keyboard-response","185","181466","0.0-15.0-0.2-0.20","3r101742kj","","3r101742kj","""2024-11-14T00:28:34.807Z""","null","+","null","","","","","","",""
"","","","","","image-keyboard-response","186","182384","0.0-15.0-0.2-1.20","3r101742kj","","3r101742kj","""2024-11-14T00:28:34.807Z""","916","materials/imgs/D103.png","arrowright","","[""materials/imgs/D84.png"",""materials/imgs/D85.png""]","false","random","","",""
"","","","","","html-keyboard-response","187","182887","0.0-15.0-1.2-0.2","3r101742kj","","3r101742kj","""2024-11-14T00:28:34.807Z""","null","+","null","","","","","","",""
"","","","","","image-keyboard-response","188","183484","0.0-15.0-1.2-1.2","3r101742kj","","3r101742kj","""2024-11-14T00:28:34.807Z""","595","materials/imgs/D101.png","arrowright","","[""materials/imgs/D106.png"",""materials/imgs/D101.png""]","","check","materials/imgs/D101.png","1","true"
"","","","","","html-keyboard-response","189","183987","0.0-15.0-2.2-0.4","3r101742kj","","3r101742kj","""2024-11-14T00:28:34.807Z""","null","+","null","","","","","","",""
"","","","","","image-keyboard-response","190","184989","0.0-15.0-2.2-1.4","3r101742kj","","3r101742kj","""2024-11-14T00:28:34.807Z""","1000","materials/imgs/D66.png","arrowleft","","[""materials/imgs/D85.png"",""materials/imgs/D25.png""]","false","validation","","",""
"","","","","","html-keyboard-response","191","185491","0.0-15.0-2.2-0.5","3r101742kj","","3r101742kj","""2024-11-14T00:28:34.807Z""","null","+","null","","","","","","",""
"","","","","","image-keyboard-response","192","186589","0.0-15.0-2.2-1.5","3r101742kj","","3r101742kj","""2024-11-14T00:28:34.807Z""","1096","materials/imgs/D56.png","arrowleft","","[""materials/imgs/D25.png"",""materials/imgs/D105.png""]","false","validation","","",""
"","","","","","html-keyboard-response","193","187093","0.0-15.0-0.3-0.21","3r101742kj","","3r101742kj","""2024-11-14T00:28:34.807Z""","null","+","null","","","","","","",""
"","","","","","image-keyboard-response","194","188114","0.0-15.0-0.3-1.21","3r101742kj","","3r101742kj","""2024-11-14T00:28:34.807Z""","1019","materials/imgs/D106.png","arrowright","","[""materials/imgs/D47.png"",""materials/imgs/D1.png""]","false","random","","",""
"","","","","","html-keyboard-response","195","188618","0.0-15.0-0.3-0.22","3r101742kj","","3r101742kj","""2024-11-14T00:28:34.807Z""","null","+","null","","","","","","",""
"","","","","","image-keyboard-response","196","190096","0.0-15.0-0.3-1.22","3r101742kj","","3r101742kj","""2024-11-14T00:28:34.807Z""","1476","materials/imgs/D25.png","arrowleft","","[""materials/imgs/D4.png"",""materials/imgs/D77.png""]","false","random","","",""
"","","","","","html-keyboard-response","197","190601","0.0-15.0-0.3-0.23","3r101742kj","","3r101742kj","""2024-11-14T00:28:34.807Z""","null","+","null","","","","","","",""
"","","","","","image-keyboard-response","198","192762","0.0-15.0-0.3-1.23","3r101742kj","","3r101742kj","""2024-11-14T00:28:34.807Z""","2158","materials/imgs/D77.png","arrowleft","","[""materials/imgs/D95.png"",""materials/imgs/D96.png""]","false","random","","",""
"","","","","","html-keyboard-response","199","193266","0.0-15.0-0.3-0.24","3r101742kj","","3r101742kj","""2024-11-14T00:28:34.807Z""","null","+","null","","","","","","",""
"","","","","","image-keyboard-response","200","194102","0.0-15.0-0.3-1.24","3r101742kj","","3r101742kj","""2024-11-14T00:28:34.807Z""","833","materials/imgs/D52.png","arrowright","","[""materials/imgs/D81.png"",""materials/imgs/D57.png""]","false","random","","",""
"","","","","","html-keyboard-response","201","194604","0.0-15.0-0.3-0.25","3r101742kj","","3r101742kj","""2024-11-14T00:28:34.807Z""","null","+","null","","","","","","",""
"","","","","","image-keyboard-response","202","195906","0.0-15.0-0.3-1.25","3r101742kj","","3r101742kj","""2024-11-14T00:28:34.807Z""","1299","materials/imgs/D94.png","arrowright","","[""materials/imgs/D78.png"",""materials/imgs/D55.png""]","false","random","","",""
"","","","","","html-keyboard-response","203","196407","0.0-15.0-0.3-0.26","3r101742kj","","3r101742kj","""2024-11-14T00:28:34.807Z""","null","+","null","","","","","","",""
"","","","","","image-keyboard-response","204","197258","0.0-15.0-0.3-1.26","3r101742kj","","3r101742kj","""2024-11-14T00:28:34.807Z""","848","materials/imgs/D78.png","arrowright","","[""materials/imgs/D21.png"",""materials/imgs/D16.png""]","false","random","","",""
"","","","","","html-keyboard-response","205","197760","0.0-15.0-0.3-0.27","3r101742kj","","3r101742kj","""2024-11-14T00:28:34.807Z""","null","+","null","","","","","","",""
"","","","","","image-keyboard-response","206","198573","0.0-15.0-0.3-1.27","3r101742kj","","3r101742kj","""2024-11-14T00:28:34.807Z""","811","materials/imgs/D75.png","arrowleft","","[""materials/imgs/D11.png"",""materials/imgs/D1.png""]","false","random","","",""
"","","","","","html-keyboard-response","207","199076","0.0-15.0-1.3-0.3","3r101742kj","","3r101742kj","""2024-11-14T00:28:34.807Z""","null","+","null","","","","","","",""
"","","","","","image-keyboard-response","208","199620","0.0-15.0-1.3-1.3","3r101742kj","","3r101742kj","""2024-11-14T00:28:34.807Z""","542","materials/imgs/D26.png","arrowleft","","[""materials/imgs/D26.png"",""materials/imgs/D46.png""]","","check","materials/imgs/D26.png","0","true"
"","","","","","html-keyboard-response","209","200124","0.0-15.0-2.3-0.6","3r101742kj","","3r101742kj","""2024-11-14T00:28:34.807Z""","null","+","null","","","","","","",""
"","","","","","image-keyboard-response","210","201115","0.0-15.0-2.3-1.6","3r101742kj","","3r101742kj","""2024-11-14T00:28:34.807Z""","989","materials/imgs/D52.png","arrowleft","","[""materials/imgs/D9.png"",""materials/imgs/D19.png""]","false","validation","","",""
"","","","","","html-keyboard-response","211","201617","0.0-15.0-2.3-0.7","3r101742kj","","3r101742kj","""2024-11-14T00:28:34.807Z""","null","+","null","","","","","","",""
"","","","","","image-keyboard-response","212","202610","0.0-15.0-2.3-1.7","3r101742kj","","3r101742kj","""2024-11-14T00:28:34.807Z""","990","materials/imgs/D111.png","arrowleft","","[""materials/imgs/D82.png"",""materials/imgs/D95.png""]","false","validation","","",""
"","","","","","html-keyboard-response","213","203112","0.0-15.0-0.4-0.28","3r101742kj","","3r101742kj","""2024-11-14T00:28:34.807Z""","null","+","null","","","","","","",""
"","","","","","image-keyboard-response","214","204075","0.0-15.0-0.4-1.28","3r101742kj","","3r101742kj","""2024-11-14T00:28:34.807Z""","960","materials/imgs/D101.png","arrowright","","[""materials/imgs/D4.png"",""materials/imgs/D80.png""]","false","random","","",""
"","","","","","html-keyboard-response","215","204577","0.0-15.0-0.4-0.29","3r101742kj","","3r101742kj","""2024-11-14T00:28:34.807Z""","null","+","null","","","","","","",""
"","","","","","image-keyboard-response","216","205817","0.0-15.0-0.4-1.29","3r101742kj","","3r101742kj","""2024-11-14T00:28:34.807Z""","1237","materials/imgs/D32.png","arrowright","","[""materials/imgs/D35.png"",""materials/imgs/D77.png""]","false","random","","",""
"","","","","","html-keyboard-response","217","206320","0.0-15.0-0.4-0.30","3r101742kj","","3r101742kj","""2024-11-14T00:28:34.807Z""","null","+","null","","","","","","",""
"","","","","","image-keyboard-response","218","207120","0.0-15.0-0.4-1.30","3r101742kj","","3r101742kj","""2024-11-14T00:28:34.807Z""","797","materials/imgs/D104.png","arrowleft","","[""materials/imgs/D9.png"",""materials/imgs/D21.png""]","false","random","","",""
"","","","","","html-keyboard-response","219","207624","0.0-15.0-0.4-0.31","3r101742kj","","3r101742kj","""2024-11-14T00:28:34.807Z""","null","+","null","","","","","","",""
"","","","","","image-keyboard-response","220","208972","0.0-15.0-0.4-1.31","3r101742kj","","3r101742kj","""2024-11-14T00:28:34.807Z""","1346","materials/imgs/D16.png","arrowleft","","[""materials/imgs/D22.png"",""materials/imgs/D84.png""]","false","random","","",""
"","","","","","html-keyboard-response","221","209477","0.0-15.0-0.4-0.32","3r101742kj","","3r101742kj","""2024-11-14T00:28:34.807Z""","null","+","null","","","","","","",""
"","","","","","image-keyboard-response","222","210598","0.0-15.0-0.4-1.32","3r101742kj","","3r101742kj","""2024-11-14T00:28:34.807Z""","1119","materials/imgs/D29.png","arrowleft","","[""materials/imgs/D53.png"",""materials/imgs/D95.png""]","false","random","","",""
"","","","","","html-keyboard-response","223","211099","0.0-15.0-0.4-0.33","3r101742kj","","3r101742kj","""2024-11-14T00:28:34.807Z""","null","+","null","","","","","","",""
"","","","","","image-keyboard-response","224","211734","0.0-15.0-0.4-1.33","3r101742kj","","3r101742kj","""2024-11-14T00:28:34.807Z""","632","materials/imgs/D68.png","arrowright","","[""materials/imgs/D87.png"",""materials/imgs/D3.png""]","false","random","","",""
"","","","","","html-keyboard-response","225","212237","0.0-15.0-0.4-0.34","3r101742kj","","3r101742kj","""2024-11-14T00:28:34.807Z""","null","+","null","","","","","","",""
"","","","","","image-keyboard-response","226","214002","0.0-15.0-0.4-1.34","3r101742kj","","3r101742kj","""2024-11-14T00:28:34.807Z""","1762","materials/imgs/D37.png","arrowright","","[""materials/imgs/D68.png"",""materials/imgs/D81.png""]","false","random","","",""
"","","","","","html-keyboard-response","227","214503","0.0-15.0-1.4-0.4","3r101742kj","","3r101742kj","""2024-11-14T00:28:34.807Z""","null","+","null","","","","","","",""
"","","","","","image-keyboard-response","228","215177","0.0-15.0-1.4-1.4","3r101742kj","","3r101742kj","""2024-11-14T00:28:34.807Z""","672","materials/imgs/D18.png","arrowright","","[""materials/imgs/D8.png"",""materials/imgs/D18.png""]","","check","materials/imgs/D18.png","1","true"
"","","","","","html-keyboard-response","229","215680","0.0-15.0-2.4-0.8","3r101742kj","","3r101742kj","""2024-11-14T00:28:34.807Z""","null","+","null","","","","","","",""
"","","","","","image-keyboard-response","230","216943","0.0-15.0-2.4-1.8","3r101742kj","","3r101742kj","""2024-11-14T00:28:34.807Z""","1261","materials/imgs/D103.png","arrowleft","","[""materials/imgs/D76.png"",""materials/imgs/D106.png""]","false","validation","","",""
"","","","","","html-keyboard-response","231","217447","0.0-15.0-2.4-0.9","3r101742kj","","3r101742kj","""2024-11-14T00:28:34.807Z""","null","+","null","","","","","","",""
"","","","","","image-keyboard-response","232","218599","0.0-15.0-2.4-1.9","3r101742kj","","3r101742kj","""2024-11-14T00:28:34.807Z""","1139","materials/imgs/D81.png","arrowleft","","[""materials/imgs/D105.png"",""materials/imgs/D24.png""]","false","validation","","",""
"","","","","","html-button-response","233","219658","0.0-16.0","3r101742kj","","3r101742kj","""2024-11-14T00:28:34.807Z""","1057","You have completed 50% of the trials. Please click 'Continue' when you are ready proceed.","0","","","","","","",""
"","","","","","html-keyboard-response","234","220162","0.0-17.0-0.0-0.0","3r101742kj","","3r101742kj","""2024-11-14T00:28:34.807Z""","null","+","null","","","","","","",""
"","","","","","image-keyboard-response","235","221228","0.0-17.0-0.0-1.0","3r101742kj","","3r101742kj","""2024-11-14T00:28:34.807Z""","1064","materials/imgs/D74.png","arrowright","","[""materials/imgs/D85.png"",""materials/imgs/D32.png""]","false","random","","",""
"","","","","","html-keyboard-response","236","221734","0.0-17.0-0.0-0.1","3r101742kj","","3r101742kj","""2024-11-14T00:28:34.807Z""","null","+","null","","","","","","",""
"","","","","","image-keyboard-response","237","222751","0.0-17.0-0.0-1.1","3r101742kj","","3r101742kj","""2024-11-14T00:28:34.807Z""","1015","materials/imgs/D29.png","arrowleft","","[""materials/imgs/D8.png"",""materials/imgs/D95.png""]","false","random","","",""
"","","","","","html-keyboard-response","238","223255","0.0-17.0-0.0-0.2","3r101742kj","","3r101742kj","""2024-11-14T00:28:34.807Z""","null","+","null","","","","","","",""
"","","","","","image-keyboard-response","239","224055","0.0-17.0-0.0-1.2","3r101742kj","","3r101742kj","""2024-11-14T00:28:34.807Z""","797","materials/imgs/D56.png","arrowright","","[""materials/imgs/D16.png"",""materials/imgs/D26.png""]","false","random","","",""
"","","","","","html-keyboard-response","240","224558","0.0-17.0-0.0-0.3","3r101742kj","","3r101742kj","""2024-11-14T00:28:34.807Z""","null","+","null","","","","","","",""
"","","","","","image-keyboard-response","241","225587","0.0-17.0-0.0-1.3","3r101742kj","","3r101742kj","""2024-11-14T00:28:34.807Z""","1026","materials/imgs/D20.png","arrowright","","[""materials/imgs/D57.png"",""materials/imgs/D19.png""]","false","random","","",""
"","","","","","html-keyboard-response","242","226089","0.0-17.0-0.0-0.4","3r101742kj","","3r101742kj","""2024-11-14T00:28:34.807Z""","null","+","null","","","","","","",""
"","","","","","image-keyboard-response","243","226756","0.0-17.0-0.0-1.4","3r101742kj","","3r101742kj","""2024-11-14T00:28:34.807Z""","664","materials/imgs/D111.png","arrowleft","","[""materials/imgs/D81.png"",""materials/imgs/D14.png""]","false","random","","",""
"","","","","","html-keyboard-response","244","227258","0.0-17.0-0.0-0.5","3r101742kj","","3r101742kj","""2024-11-14T00:28:34.807Z""","null","+","null","","","","","","",""
"","","","","","image-keyboard-response","245","228366","0.0-17.0-0.0-1.5","3r101742kj","","3r101742kj","""2024-11-14T00:28:34.807Z""","1106","materials/imgs/D16.png","arrowright","","[""materials/imgs/D36.png"",""materials/imgs/D105.png""]","false","random","","",""
"","","","","","html-keyboard-response","246","228871","0.0-17.0-0.0-0.6","3r101742kj","","3r101742kj","""2024-11-14T00:28:34.807Z""","null","+","null","","","","","","",""
"","","","","","image-keyboard-response","247","230116","0.0-17.0-0.0-1.6","3r101742kj","","3r101742kj","""2024-11-14T00:28:34.807Z""","1242","materials/imgs/D49.png","arrowleft","","[""materials/imgs/D32.png"",""materials/imgs/D51.png""]","false","random","","",""
"","","","","","html-keyboard-response","248","230618","0.0-17.0-1.0-0.0","3r101742kj","","3r101742kj","""2024-11-14T00:28:34.807Z""","null","+","null","","","","","","",""
"","","","","","image-keyboard-response","249","231177","0.0-17.0-1.0-1.0","3r101742kj","","3r101742kj","""2024-11-14T00:28:34.807Z""","556","materials/imgs/D78.png","arrowright","","[""materials/imgs/D76.png"",""materials/imgs/D78.png""]","","check","materials/imgs/D78.png","1","true"
"","","","","","html-keyboard-response","250","231680","0.0-17.0-2.0-0.0","3r101742kj","","3r101742kj","""2024-11-14T00:28:34.807Z""","null","+","null","","","","","","",""
"","","","","","image-keyboard-response","251","232797","0.0-17.0-2.0-1.0","3r101742kj","","3r101742kj","""2024-11-14T00:28:34.807Z""","1115","materials/imgs/D95.png","arrowleft","","[""materials/imgs/D36.png"",""materials/imgs/D4.png""]","false","validation","","",""
"","","","","","html-keyboard-response","252","233298","0.0-17.0-2.0-0.1","3r101742kj","","3r101742kj","""2024-11-14T00:28:34.807Z""","null","+","null","","","","","","",""
"","","","","","image-keyboard-response","253","233952","0.0-17.0-2.0-1.1","3r101742kj","","3r101742kj","""2024-11-14T00:28:34.807Z""","652","materials/imgs/D95.png","arrowleft","","[""materials/imgs/D36.png"",""materials/imgs/D4.png""]","false","validation","","",""
"","","","","","html-keyboard-response","254","234457","0.0-17.0-0.1-0.7","3r101742kj","","3r101742kj","""2024-11-14T00:28:34.807Z""","null","+","null","","","","","","",""
"","","","","","image-keyboard-response","255","235132","0.0-17.0-0.1-1.7","3r101742kj","","3r101742kj","""2024-11-14T00:28:34.807Z""","672","materials/imgs/D22.png","arrowleft","","[""materials/imgs/D35.png"",""materials/imgs/D55.png""]","false","random","","",""
"","","","","","html-keyboard-response","256","235634","0.0-17.0-0.1-0.8","3r101742kj","","3r101742kj","""2024-11-14T00:28:34.807Z""","null","+","null","","","","","","",""
"","","","","","image-keyboard-response","257","236590","0.0-17.0-0.1-1.8","3r101742kj","","3r101742kj","""2024-11-14T00:28:34.807Z""","954","materials/imgs/D103.png","arrowleft","","[""materials/imgs/D104.png"",""materials/imgs/D22.png""]","false","random","","",""
"","","","","","html-keyboard-response","258","237094","0.0-17.0-0.1-0.9","3r101742kj","","3r101742kj","""2024-11-14T00:28:34.807Z""","null","+","null","","","","","","",""
"","","","","","image-keyboard-response","259","238055","0.0-17.0-0.1-1.9","3r101742kj","","3r101742kj","""2024-11-14T00:28:34.807Z""","958","materials/imgs/D83.png","arrowright","","[""materials/imgs/D1.png"",""materials/imgs/D64.png""]","false","random","","",""
"","","","","","html-keyboard-response","260","238556","0.0-17.0-0.1-0.10","3r101742kj","","3r101742kj","""2024-11-14T00:28:34.807Z""","null","+","null","","","","","","",""
"","","","","","image-keyboard-response","261","239442","0.0-17.0-0.1-1.10","3r101742kj","","3r101742kj","""2024-11-14T00:28:34.807Z""","883","materials/imgs/D102.png","arrowleft","","[""materials/imgs/D104.png"",""materials/imgs/D80.png""]","false","random","","",""
"","","","","","html-keyboard-response","262","239944","0.0-17.0-0.1-0.11","3r101742kj","","3r101742kj","""2024-11-14T00:28:34.807Z""","null","+","null","","","","","","",""
"","","","","","image-keyboard-response","263","240915","0.0-17.0-0.1-1.11","3r101742kj","","3r101742kj","""2024-11-14T00:28:34.807Z""","969","materials/imgs/D9.png","arrowright","","[""materials/imgs/D47.png"",""materials/imgs/D80.png""]","false","random","","",""
"","","","","","html-keyboard-response","264","241418","0.0-17.0-0.1-0.12","3r101742kj","","3r101742kj","""2024-11-14T00:28:34.807Z""","null","+","null","","","","","","",""
"","","","","","image-keyboard-response","265","242516","0.0-17.0-0.1-1.12","3r101742kj","","3r101742kj","""2024-11-14T00:28:34.807Z""","1095","materials/imgs/D76.png","arrowleft","","[""materials/imgs/D92.png"",""materials/imgs/D82.png""]","false","random","","",""
"","","","","","html-keyboard-response","266","243019","0.0-17.0-0.1-0.13","3r101742kj","","3r101742kj","""2024-11-14T00:28:34.807Z""","null","+","null","","","","","","",""
"","","","","","image-keyboard-response","267","244167","0.0-17.0-0.1-1.13","3r101742kj","","3r101742kj","""2024-11-14T00:28:34.807Z""","1145","materials/imgs/D6.png","arrowleft","","[""materials/imgs/D9.png"",""materials/imgs/D57.png""]","false","random","","",""
"","","","","","html-keyboard-response","268","244668","0.0-17.0-1.1-0.1","3r101742kj","","3r101742kj","""2024-11-14T00:28:34.807Z""","null","+","null","","","","","","",""
"","","","","","image-keyboard-response","269","245488","0.0-17.0-1.1-1.1","3r101742kj","","3r101742kj","""2024-11-14T00:28:34.807Z""","818","materials/imgs/D76.png","arrowleft","","[""materials/imgs/D76.png"",""materials/imgs/D78.png""]","","check","materials/imgs/D76.png","0","true"
"","","","","","html-keyboard-response","270","245992","0.0-17.0-2.1-0.2","3r101742kj","","3r101742kj","""2024-11-14T00:28:34.807Z""","null","+","null","","","","","","",""
"","","","","","image-keyboard-response","271","246715","0.0-17.0-2.1-1.2","3r101742kj","","3r101742kj","""2024-11-14T00:28:34.807Z""","721","materials/imgs/D106.png","arrowleft","","[""materials/imgs/D57.png"",""materials/imgs/D18.png""]","false","validation","","",""
"","","","","","html-keyboard-response","272","247218","0.0-17.0-2.1-0.3","3r101742kj","","3r101742kj","""2024-11-14T00:28:34.807Z""","null","+","null","","","","","","",""
"","","","","","image-keyboard-response","273","248260","0.0-17.0-2.1-1.3","3r101742kj","","3r101742kj","""2024-11-14T00:28:34.807Z""","1040","materials/imgs/D56.png","arrowleft","","[""materials/imgs/D25.png"",""materials/imgs/D105.png""]","false","validation","","",""
"","","","","","html-keyboard-response","274","248763","0.0-17.0-0.2-0.14","3r101742kj","","3r101742kj","""2024-11-14T00:28:34.807Z""","null","+","null","","","","","","",""
"","","","","","image-keyboard-response","275","249663","0.0-17.0-0.2-1.14","3r101742kj","","3r101742kj","""2024-11-14T00:28:34.807Z""","897","materials/imgs/D17.png","arrowleft","","[""materials/imgs/D22.png"",""materials/imgs/D105.png""]","false","random","","",""
"","","","","","html-keyboard-response","276","250167","0.0-17.0-0.2-0.15","3r101742kj","","3r101742kj","""2024-11-14T00:28:34.807Z""","null","+","null","","","","","","",""
"","","","","","image-keyboard-response","277","250912","0.0-17.0-0.2-1.15","3r101742kj","","3r101742kj","""2024-11-14T00:28:34.807Z""","743","materials/imgs/D82.png","arrowleft","","[""materials/imgs/D55.png"",""materials/imgs/D77.png""]","false","random","","",""
"","","","","","html-keyboard-response","278","251416","0.0-17.0-0.2-0.16","3r101742kj","","3r101742kj","""2024-11-14T00:28:34.807Z""","null","+","null","","","","","","",""
"","","","","","image-keyboard-response","279","252289","0.0-17.0-0.2-1.16","3r101742kj","","3r101742kj","""2024-11-14T00:28:34.807Z""","871","materials/imgs/D4.png","arrowright","","[""materials/imgs/D78.png"",""materials/imgs/D80.png""]","false","random","","",""
"","","","","","html-keyboard-response","280","252793","0.0-17.0-0.2-0.17","3r101742kj","","3r101742kj","""2024-11-14T00:28:34.807Z""","null","+","null","","","","","","",""
"","","","","","image-keyboard-response","281","253794","0.0-17.0-0.2-1.17","3r101742kj","","3r101742kj","""2024-11-14T00:28:34.807Z""","999","materials/imgs/D79.png","arrowleft","","[""materials/imgs/D32.png"",""materials/imgs/D19.png""]","false","random","","",""
"","","","","","html-keyboard-response","282","254296","0.0-17.0-0.2-0.18","3r101742kj","","3r101742kj","""2024-11-14T00:28:34.807Z""","null","+","null","","","","","","",""
"","","","","","image-keyboard-response","283","254869","0.0-17.0-0.2-1.18","3r101742kj","","3r101742kj","""2024-11-14T00:28:34.807Z""","570","materials/imgs/D64.png","arrowleft","","[""materials/imgs/D83.png"",""materials/imgs/D101.png""]","false","random","","",""
"","","","","","html-keyboard-response","284","255372","0.0-17.0-0.2-0.19","3r101742kj","","3r101742kj","""2024-11-14T00:28:34.807Z""","null","+","null","","","","","","",""
"","","","","","image-keyboard-response","285","256633","0.0-17.0-0.2-1.19","3r101742kj","","3r101742kj","""2024-11-14T00:28:34.807Z""","1258","materials/imgs/D32.png","arrowright","","[""materials/imgs/D94.png"",""materials/imgs/D79.png""]","false","random","","",""
"","","","","","html-keyboard-response","286","257138","0.0-17.0-0.2-0.20","3r101742kj","","3r101742kj","""2024-11-14T00:28:34.807Z""","null","+","null","","","","","","",""
"","","","","","image-keyboard-response","287","257950","0.0-17.0-0.2-1.20","3r101742kj","","3r101742kj","""2024-11-14T00:28:34.807Z""","810","materials/imgs/D102.png","arrowright","","[""materials/imgs/D77.png"",""materials/imgs/D48.png""]","false","random","","",""
"","","","","","html-keyboard-response","288","258454","0.0-17.0-1.2-0.2","3r101742kj","","3r101742kj","""2024-11-14T00:28:34.807Z""","null","+","null","","","","","","",""
"","","","","","image-keyboard-response","289","259002","0.0-17.0-1.2-1.2","3r101742kj","","3r101742kj","""2024-11-14T00:28:34.807Z""","546","materials/imgs/D26.png","arrowleft","","[""materials/imgs/D26.png"",""materials/imgs/D46.png""]","","check","materials/imgs/D26.png","0","true"
"","","","","","html-keyboard-response","290","259504","0.0-17.0-2.2-0.4","3r101742kj","","3r101742kj","""2024-11-14T00:28:34.807Z""","null","+","null","","","","","","",""
"","","","","","image-keyboard-response","291","260350","0.0-17.0-2.2-1.4","3r101742kj","","3r101742kj","""2024-11-14T00:28:34.807Z""","844","materials/imgs/D16.png","arrowleft","","[""materials/imgs/D52.png"",""materials/imgs/D25.png""]","false","validation","","",""
"","","","","","html-keyboard-response","292","260852","0.0-17.0-2.2-0.5","3r101742kj","","3r101742kj","""2024-11-14T00:28:34.807Z""","null","+","null","","","","","","",""
"","","","","","image-keyboard-response","293","261357","0.0-17.0-2.2-1.5","3r101742kj","","3r101742kj","""2024-11-14T00:28:34.807Z""","502","materials/imgs/D47.png","arrowleft","","[""materials/imgs/D1.png"",""materials/imgs/D52.png""]","false","validation","","",""
"","","","","","html-keyboard-response","294","261859","0.0-17.0-0.3-0.21","3r101742kj","","3r101742kj","""2024-11-14T00:28:34.807Z""","null","+","null","","","","","","",""
"","","","","","image-keyboard-response","295","262345","0.0-17.0-0.3-1.21","3r101742kj","","3r101742kj","""2024-11-14T00:28:34.807Z""","483","materials/imgs/D78.png","arrowleft","","[""materials/imgs/D16.png"",""materials/imgs/D76.png""]","true","random","","",""
"","","","","","html-keyboard-response","296","265785","0.0-17.0-0.3-2.21-0.21","3r101742kj","","3r101742kj","""2024-11-14T00:28:34.807Z""","3440","<p><strong>You're going too fast.</strong><p>Please slow down and assess each triplet.<p>Press 'y' to continue.</p></p>","y","","","","","","",""
"","","","","","html-keyboard-response","297","266289","0.0-17.0-0.3-0.22","3r101742kj","","3r101742kj","""2024-11-14T00:28:34.807Z""","null","+","null","","","","","","",""
"","","","","","image-keyboard-response","298","268264","0.0-17.0-0.3-1.22","3r101742kj","","3r101742kj","""2024-11-14T00:28:34.807Z""","1971","materials/imgs/D55.png","arrowleft","","[""materials/imgs/D96.png"",""materials/imgs/D74.png""]","false","random","","",""
"","","","","","html-keyboard-response","299","268768","0.0-17.0-0.3-0.23","3r101742kj","","3r101742kj","""2024-11-14T00:28:34.807Z""","null","+","null","","","","","","",""
"","","","","","image-keyboard-response","300","269818","0.0-17.0-0.3-1.23","3r101742kj","","3r101742kj","""2024-11-14T00:28:34.807Z""","1048","materials/imgs/D3.png","arrowleft","","[""materials/imgs/D35.png"",""materials/imgs/D36.png""]","false","random","","",""
"","","","","","html-keyboard-response","301","270321","0.0-17.0-0.3-0.24","3r101742kj","","3r101742kj","""2024-11-14T00:28:34.807Z""","null","+","null","","","","","","",""
"","","","","","image-keyboard-response","302","271459","0.0-17.0-0.3-1.24","3r101742kj","","3r101742kj","""2024-11-14T00:28:34.807Z""","1135","materials/imgs/D49.png","arrowleft","","[""materials/imgs/D46.png"",""materials/imgs/D36.png""]","false","random","","",""
"","","","","","html-keyboard-response","303","271964","0.0-17.0-0.3-0.25","3r101742kj","","3r101742kj","""2024-11-14T00:28:34.807Z""","null","+","null","","","","","","",""
"","","","","","image-keyboard-response","304","273377","0.0-17.0-0.3-1.25","3r101742kj","","3r101742kj","""2024-11-14T00:28:34.807Z""","1411","materials/imgs/D95.png","arrowright","","[""materials/imgs/D9.png"",""materials/imgs/D52.png""]","false","random","","",""
"","","","","","html-keyboard-response","305","273880","0.0-17.0-0.3-0.26","3r101742kj","","3r101742kj","""2024-11-14T00:28:34.807Z""","null","+","null","","","","","","",""
"","","","","","image-keyboard-response","306","274927","0.0-17.0-0.3-1.26","3r101742kj","","3r101742kj","""2024-11-14T00:28:34.807Z""","1044","materials/imgs/D78.png","arrowleft","","[""materials/imgs/D21.png"",""materials/imgs/D36.png""]","false","random","","",""
"","","","","","html-keyboard-response","307","275431","0.0-17.0-0.3-0.27","3r101742kj","","3r101742kj","""2024-11-14T00:28:34.807Z""","null","+","null","","","","","","",""
"","","","","","image-keyboard-response","308","276374","0.0-17.0-0.3-1.27","3r101742kj","","3r101742kj","""2024-11-14T00:28:34.807Z""","941","materials/imgs/D104.png","arrowleft","","[""materials/imgs/D78.png"",""materials/imgs/D68.png""]","false","random","","",""
"","","","","","html-keyboard-response","309","276876","0.0-17.0-1.3-0.3","3r101742kj","","3r101742kj","""2024-11-14T00:28:34.807Z""","null","+","null","","","","","","",""
"","","","","","image-keyboard-response","310","277479","0.0-17.0-1.3-1.3","3r101742kj","","3r101742kj","""2024-11-14T00:28:34.807Z""","601","materials/imgs/D106.png","arrowleft","","[""materials/imgs/D106.png"",""materials/imgs/D101.png""]","","check","materials/imgs/D106.png","0","true"
"","","","","","html-keyboard-response","311","277982","0.0-17.0-2.3-0.6","3r101742kj","","3r101742kj","""2024-11-14T00:28:34.807Z""","null","+","null","","","","","","",""
"","","","","","image-keyboard-response","312","278680","0.0-17.0-2.3-1.6","3r101742kj","","3r101742kj","""2024-11-14T00:28:34.807Z""","696","materials/imgs/D11.png","arrowleft","","[""materials/imgs/D83.png"",""materials/imgs/D48.png""]","false","validation","","",""
"","","","","","html-keyboard-response","313","279186","0.0-17.0-2.3-0.7","3r101742kj","","3r101742kj","""2024-11-14T00:28:34.807Z""","null","+","null","","","","","","",""
"","","","","","image-keyboard-response","314","279859","0.0-17.0-2.3-1.7","3r101742kj","","3r101742kj","""2024-11-14T00:28:34.807Z""","671","materials/imgs/D11.png","arrowleft","","[""materials/imgs/D83.png"",""materials/imgs/D48.png""]","false","validation","","",""
"","","","","","html-keyboard-response","315","280362","0.0-17.0-0.4-0.28","3r101742kj","","3r101742kj","""2024-11-14T00:28:34.807Z""","null","+","null","","","","","","",""
"","","","","","image-keyboard-response","316","281247","0.0-17.0-0.4-1.28","3r101742kj","","3r101742kj","""2024-11-14T00:28:34.807Z""","883","materials/imgs/D57.png","arrowleft","","[""materials/imgs/D78.png"",""materials/imgs/D51.png""]","false","random","","",""
"","","","","","html-keyboard-response","317","281750","0.0-17.0-0.4-0.29","3r101742kj","","3r101742kj","""2024-11-14T00:28:34.807Z""","null","+","null","","","","","","",""
"","","","","","image-keyboard-response","318","282847","0.0-17.0-0.4-1.29","3r101742kj","","3r101742kj","""2024-11-14T00:28:34.807Z""","1095","materials/imgs/D19.png","arrowright","","[""materials/imgs/D56.png"",""materials/imgs/D79.png""]","false","random","","",""
"","","","","","html-keyboard-response","319","283351","0.0-17.0-0.4-0.30","3r101742kj","","3r101742kj","""2024-11-14T00:28:34.807Z""","null","+","null","","","","","","",""
"","","","","","image-keyboard-response","320","284543","0.0-17.0-0.4-1.30","3r101742kj","","3r101742kj","""2024-11-14T00:28:34.807Z""","1189","materials/imgs/D101.png","arrowleft","","[""materials/imgs/D106.png"",""materials/imgs/D16.png""]","false","random","","",""
"","","","","","html-keyboard-response","321","285045","0.0-17.0-0.4-0.31","3r101742kj","","3r101742kj","""2024-11-14T00:28:34.807Z""","null","+","null","","","","","","",""
"","","","","","image-keyboard-response","322","286053","0.0-17.0-0.4-1.31","3r101742kj","","3r101742kj","""2024-11-14T00:28:34.807Z""","1005","materials/imgs/D16.png","arrowleft","","[""materials/imgs/D29.png"",""materials/imgs/D47.png""]","false","random","","",""
"","","","","","html-keyboard-response","323","286554","0.0-17.0-0.4-0.32","3r101742kj","","3r101742kj","""2024-11-14T00:28:34.807Z""","null","+","null","","","","","","",""
"","","","","","image-keyboard-response","324","287437","0.0-17.0-0.4-1.32","3r101742kj","","3r101742kj","""2024-11-14T00:28:34.807Z""","881","materials/imgs/D19.png","arrowright","","[""materials/imgs/D21.png"",""materials/imgs/D103.png""]","false","random","","",""
"","","","","","html-keyboard-response","325","287941","0.0-17.0-0.4-0.33","3r101742kj","","3r101742kj","""2024-11-14T00:28:34.807Z""","null","+","null","","","","","","",""
"","","","","","image-keyboard-response","326","289316","0.0-17.0-0.4-1.33","3r101742kj","","3r101742kj","""2024-11-14T00:28:34.807Z""","1372","materials/imgs/D87.png","arrowleft","","[""materials/imgs/D103.png"",""materials/imgs/D65.png""]","false","random","","",""
"","","","","","html-keyboard-response","327","289819","0.0-17.0-0.4-0.34","3r101742kj","","3r101742kj","""2024-11-14T00:28:34.807Z""","null","+","null","","","","","","",""
"","","","","","image-keyboard-response","328","290678","0.0-17.0-0.4-1.34","3r101742kj","","3r101742kj","""2024-11-14T00:28:34.807Z""","857","materials/imgs/D64.png","arrowleft","","[""materials/imgs/D26.png"",""materials/imgs/D49.png""]","false","random","","",""
"","","","","","html-keyboard-response","329","291179","0.0-17.0-1.4-0.4","3r101742kj","","3r101742kj","""2024-11-14T00:28:34.807Z""","null","+","null","","","","","","",""
"","","","","","image-keyboard-response","330","291835","0.0-17.0-1.4-1.4","3r101742kj","","3r101742kj","""2024-11-14T00:28:34.807Z""","653","materials/imgs/D101.png","arrowright","","[""materials/imgs/D106.png"",""materials/imgs/D101.png""]","","check","materials/imgs/D101.png","1","true"
"","","","","","html-keyboard-response","331","292337","0.0-17.0-2.4-0.8","3r101742kj","","3r101742kj","""2024-11-14T00:28:34.807Z""","null","+","null","","","","","","",""
"","","","","","image-keyboard-response","332","292973","0.0-17.0-2.4-1.8","3r101742kj","","3r101742kj","""2024-11-14T00:28:34.807Z""","634","materials/imgs/D3.png","arrowleft","","[""materials/imgs/D79.png"",""materials/imgs/D48.png""]","false","validation","","",""
"","","","","","html-keyboard-response","333","293477","0.0-17.0-2.4-0.9","3r101742kj","","3r101742kj","""2024-11-14T00:28:34.807Z""","null","+","null","","","","","","",""
"","","","","","image-keyboard-response","334","294489","0.0-17.0-2.4-1.9","3r101742kj","","3r101742kj","""2024-11-14T00:28:34.807Z""","1009","materials/imgs/D101.png","arrowright","","[""materials/imgs/D76.png"",""materials/imgs/D47.png""]","false","validation","","",""
"","","","","","html-button-response","335","295528","0.0-18.0","3r101742kj","","3r101742kj","""2024-11-14T00:28:34.807Z""","1038","You have completed 75% of the trials. Please click 'Continue' when you are ready proceed.","0","","","","","","",""
"","","","","","html-keyboard-response","336","296032","0.0-19.0-0.0-0.0","3r101742kj","","3r101742kj","""2024-11-14T00:28:34.807Z""","null","+","null","","","","","","",""
"","","","","","image-keyboard-response","337","296938","0.0-19.0-0.0-1.0","3r101742kj","","3r101742kj","""2024-11-14T00:28:34.807Z""","903","materials/imgs/D57.png","arrowleft","","[""materials/imgs/D83.png"",""materials/imgs/D8.png""]","false","random","","",""
"","","","","","html-keyboard-response","338","297441","0.0-19.0-0.0-0.1","3r101742kj","","3r101742kj","""2024-11-14T00:28:34.807Z""","null","+","null","","","","","","",""
"","","","","","image-keyboard-response","339","298235","0.0-19.0-0.0-1.1","3r101742kj","","3r101742kj","""2024-11-14T00:28:34.807Z""","792","materials/imgs/D105.png","arrowright","","[""materials/imgs/D52.png"",""materials/imgs/D11.png""]","false","random","","",""
"","","","","","html-keyboard-response","340","298737","0.0-19.0-0.0-0.2","3r101742kj","","3r101742kj","""2024-11-14T00:28:34.807Z""","null","+","null","","","","","","",""
"","","","","","image-keyboard-response","341","299630","0.0-19.0-0.0-1.2","3r101742kj","","3r101742kj","""2024-11-14T00:28:34.807Z""","891","materials/imgs/D66.png","arrowright","","[""materials/imgs/D21.png"",""materials/imgs/D55.png""]","false","random","","",""
"","","","","","html-keyboard-response","342","300132","0.0-19.0-0.0-0.3","3r101742kj","","3r101742kj","""2024-11-14T00:28:34.807Z""","null","+","null","","","","","","",""
"","","","","","image-keyboard-response","343","301310","0.0-19.0-0.0-1.3","3r101742kj","","3r101742kj","""2024-11-14T00:28:34.807Z""","1175","materials/imgs/D11.png","arrowleft","","[""materials/imgs/D14.png"",""materials/imgs/D96.png""]","false","random","","",""
"","","","","","html-keyboard-response","344","301812","0.0-19.0-0.0-0.4","3r101742kj","","3r101742kj","""2024-11-14T00:28:34.807Z""","null","+","null","","","","","","",""
"","","","","","image-keyboard-response","345","302498","0.0-19.0-0.0-1.4","3r101742kj","","3r101742kj","""2024-11-14T00:28:34.807Z""","684","materials/imgs/D17.png","arrowright","","[""materials/imgs/D66.png"",""materials/imgs/D104.png""]","false","random","","",""
"","","","","","html-keyboard-response","346","303000","0.0-19.0-0.0-0.5","3r101742kj","","3r101742kj","""2024-11-14T00:28:34.807Z""","null","+","null","","","","","","",""
"","","","","","image-keyboard-response","347","304193","0.0-19.0-0.0-1.5","3r101742kj","","3r101742kj","""2024-11-14T00:28:34.807Z""","1191","materials/imgs/D103.png","arrowleft","","[""materials/imgs/D17.png"",""materials/imgs/D85.png""]","false","random","","",""
"","","","","","html-keyboard-response","348","304696","0.0-19.0-0.0-0.6","3r101742kj","","3r101742kj","""2024-11-14T00:28:34.807Z""","null","+","null","","","","","","",""
"","","","","","image-keyboard-response","349","305439","0.0-19.0-0.0-1.6","3r101742kj","","3r101742kj","""2024-11-14T00:28:34.807Z""","740","materials/imgs/D111.png","arrowright","","[""materials/imgs/D105.png"",""materials/imgs/D9.png""]","false","random","","",""
"","","","","","html-keyboard-response","350","305940","0.0-19.0-1.0-0.0","3r101742kj","","3r101742kj","""2024-11-14T00:28:34.807Z""","null","+","null","","","","","","",""
"","","","","","image-keyboard-response","351","306463","0.0-19.0-1.0-1.0","3r101742kj","","3r101742kj","""2024-11-14T00:28:34.807Z""","520","materials/imgs/D26.png","arrowleft","","[""materials/imgs/D26.png"",""materials/imgs/D46.png""]","","check","materials/imgs/D26.png","0","true"
"","","","","","html-keyboard-response","352","306966","0.0-19.0-2.0-0.0","3r101742kj","","3r101742kj","""2024-11-14T00:28:34.807Z""","null","+","null","","","","","","",""
"","","","","","image-keyboard-response","353","307871","0.0-19.0-2.0-1.0","3r101742kj","","3r101742kj","""2024-11-14T00:28:34.807Z""","902","materials/imgs/D1.png","arrowleft","","[""materials/imgs/D57.png"",""materials/imgs/D76.png""]","false","validation","","",""
"","","","","","html-keyboard-response","354","308373","0.0-19.0-2.0-0.1","3r101742kj","","3r101742kj","""2024-11-14T00:28:34.807Z""","null","+","null","","","","","","",""
"","","","","","image-keyboard-response","355","309441","0.0-19.0-2.0-1.1","3r101742kj","","3r101742kj","""2024-11-14T00:28:34.807Z""","1065","materials/imgs/D46.png","arrowleft","","[""materials/imgs/D92.png"",""materials/imgs/D77.png""]","false","validation","","",""
"","","","","","html-keyboard-response","356","309943","0.0-19.0-0.1-0.7","3r101742kj","","3r101742kj","""2024-11-14T00:28:34.807Z""","null","+","null","","","","","","",""
"","","","","","image-keyboard-response","357","310803","0.0-19.0-0.1-1.7","3r101742kj","","3r101742kj","""2024-11-14T00:28:34.807Z""","857","materials/imgs/D79.png","arrowleft","","[""materials/imgs/D6.png"",""materials/imgs/D111.png""]","false","random","","",""
"","","","","","html-keyboard-response","358","311307","0.0-19.0-0.1-0.8","3r101742kj","","3r101742kj","""2024-11-14T00:28:34.807Z""","null","+","null","","","","","","",""
"","","","","","image-keyboard-response","359","312420","0.0-19.0-0.1-1.8","3r101742kj","","3r101742kj","""2024-11-14T00:28:34.807Z""","1110","materials/imgs/D29.png","arrowright","","[""materials/imgs/D46.png"",""materials/imgs/D6.png""]","false","random","","",""
"","","","","","html-keyboard-response","360","312923","0.0-19.0-0.1-0.9","3r101742kj","","3r101742kj","""2024-11-14T00:28:34.807Z""","null","+","null","","","","","","",""
"","","","","","image-keyboard-response","361","313558","0.0-19.0-0.1-1.9","3r101742kj","","3r101742kj","""2024-11-14T00:28:34.807Z""","624","materials/imgs/D106.png","arrowright","","[""materials/imgs/D26.png"",""materials/imgs/D78.png""]","false","random","","",""
"","","","","","html-keyboard-response","362","314059","0.0-19.0-0.1-0.10","3r101742kj","","3r101742kj","""2024-11-14T00:28:34.807Z""","null","+","null","","","","","","",""
"","","","","","image-keyboard-response","363","314864","0.0-19.0-0.1-1.10","3r101742kj","","3r101742kj","""2024-11-14T00:28:34.807Z""","803","materials/imgs/D77.png","arrowleft","","[""materials/imgs/D1.png"",""materials/imgs/D51.png""]","false","random","","",""
"","","","","","html-keyboard-response","364","315367","0.0-19.0-0.1-0.11","3r101742kj","","3r101742kj","""2024-11-14T00:28:34.807Z""","null","+","null","","","","","","",""
"","","","","","image-keyboard-response","365","316057","0.0-19.0-0.1-1.11","3r101742kj","","3r101742kj","""2024-11-14T00:28:34.807Z""","688","materials/imgs/D66.png","arrowleft","","[""materials/imgs/D82.png"",""materials/imgs/D76.png""]","false","random","","",""
"","","","","","html-keyboard-response","366","316562","0.0-19.0-0.1-0.12","3r101742kj","","3r101742kj","""2024-11-14T00:28:34.807Z""","null","+","null","","","","","","",""
"","","","","","image-keyboard-response","367","317437","0.0-19.0-0.1-1.12","3r101742kj","","3r101742kj","""2024-11-14T00:28:34.807Z""","873","materials/imgs/D29.png","arrowleft","","[""materials/imgs/D6.png"",""materials/imgs/D34.png""]","false","random","","",""
"","","","","","html-keyboard-response","368","317940","0.0-19.0-0.1-0.13","3r101742kj","","3r101742kj","""2024-11-14T00:28:34.807Z""","null","+","null","","","","","","",""
"","","","","","image-keyboard-response","369","318620","0.0-19.0-0.1-1.13","3r101742kj","","3r101742kj","""2024-11-14T00:28:34.807Z""","677","materials/imgs/D94.png","arrowleft","","[""materials/imgs/D25.png"",""materials/imgs/D64.png""]","false","random","","",""
"","","","","","html-keyboard-response","370","319125","0.0-19.0-1.1-0.1","3r101742kj","","3r101742kj","""2024-11-14T00:28:34.807Z""","null","+","null","","","","","","",""
"","","","","","image-keyboard-response","371","319805","0.0-19.0-1.1-1.1","3r101742kj","","3r101742kj","""2024-11-14T00:28:34.807Z""","677","materials/imgs/D18.png","arrowright","","[""materials/imgs/D8.png"",""materials/imgs/D18.png""]","","check","materials/imgs/D18.png","1","true"
"","","","","","html-keyboard-response","372","320306","0.0-19.0-2.1-0.2","3r101742kj","","3r101742kj","""2024-11-14T00:28:34.807Z""","null","+","null","","","","","","",""
"","","","","","image-keyboard-response","373","320942","0.0-19.0-2.1-1.2","3r101742kj","","3r101742kj","""2024-11-14T00:28:34.807Z""","633","materials/imgs/D3.png","arrowleft","","[""materials/imgs/D79.png"",""materials/imgs/D48.png""]","false","validation","","",""
"","","","","","html-keyboard-response","374","321446","0.0-19.0-2.1-0.3","3r101742kj","","3r101742kj","""2024-11-14T00:28:34.807Z""","null","+","null","","","","","","",""
"","","","","","image-keyboard-response","375","322198","0.0-19.0-2.1-1.3","3r101742kj","","3r101742kj","""2024-11-14T00:28:34.807Z""","750","materials/imgs/D37.png","arrowleft","","[""materials/imgs/D84.png"",""materials/imgs/D111.png""]","false","validation","","",""
"","","","","","html-keyboard-response","376","322702","0.0-19.0-0.2-0.14","3r101742kj","","3r101742kj","""2024-11-14T00:28:34.807Z""","null","+","null","","","","","","",""
"","","","","","image-keyboard-response","377","323675","0.0-19.0-0.2-1.14","3r101742kj","","3r101742kj","""2024-11-14T00:28:34.807Z""","970","materials/imgs/D16.png","arrowleft","","[""materials/imgs/D37.png"",""materials/imgs/D95.png""]","false","random","","",""
"","","","","","html-keyboard-response","378","324179","0.0-19.0-0.2-0.15","3r101742kj","","3r101742kj","""2024-11-14T00:28:34.807Z""","null","+","null","","","","","","",""
"","","","","","image-keyboard-response","379","324771","0.0-19.0-0.2-1.15","3r101742kj","","3r101742kj","""2024-11-14T00:28:34.807Z""","590","materials/imgs/D32.png","arrowleft","","[""materials/imgs/D9.png"",""materials/imgs/D102.png""]","false","random","","",""
"","","","","","html-keyboard-response","380","325275","0.0-19.0-0.2-0.16","3r101742kj","","3r101742kj","""2024-11-14T00:28:34.807Z""","null","+","null","","","","","","",""
"","","","","","image-keyboard-response","381","326254","0.0-19.0-0.2-1.16","3r101742kj","","3r101742kj","""2024-11-14T00:28:34.807Z""","976","materials/imgs/D66.png","arrowright","","[""materials/imgs/D83.png"",""materials/imgs/D29.png""]","false","random","","",""
"","","","","","html-keyboard-response","382","326759","0.0-19.0-0.2-0.17","3r101742kj","","3r101742kj","""2024-11-14T00:28:34.807Z""","null","+","null","","","","","","",""
"","","","","","image-keyboard-response","383","327491","0.0-19.0-0.2-1.17","3r101742kj","","3r101742kj","""2024-11-14T00:28:34.807Z""","730","materials/imgs/D77.png","arrowleft","","[""materials/imgs/D104.png"",""materials/imgs/D75.png""]","false","random","","",""
"","","","","","html-keyboard-response","384","327995","0.0-19.0-0.2-0.18","3r101742kj","","3r101742kj","""2024-11-14T00:28:34.807Z""","null","+","null","","","","","","",""
"","","","","","image-keyboard-response","385","328877","0.0-19.0-0.2-1.18","3r101742kj","","3r101742kj","""2024-11-14T00:28:34.807Z""","880","materials/imgs/D46.png","arrowleft","","[""materials/imgs/D6.png"",""materials/imgs/D21.png""]","false","random","","",""
"","","","","","html-keyboard-response","386","329381","0.0-19.0-0.2-0.19","3r101742kj","","3r101742kj","""2024-11-14T00:28:34.807Z""","null","+","null","","","","","","",""
"","","","","","image-keyboard-response","387","330634","0.0-19.0-0.2-1.19","3r101742kj","","3r101742kj","""2024-11-14T00:28:34.807Z""","1251","materials/imgs/D19.png","arrowright","","[""materials/imgs/D46.png"",""materials/imgs/D111.png""]","false","random","","",""
"","","","","","html-keyboard-response","388","331136","0.0-19.0-0.2-0.20","3r101742kj","","3r101742kj","""2024-11-14T00:28:34.807Z""","null","+","null","","","","","","",""
"","","","","","image-keyboard-response","389","331918","0.0-19.0-0.2-1.20","3r101742kj","","3r101742kj","""2024-11-14T00:28:34.807Z""","779","materials/imgs/D82.png","arrowleft","","[""materials/imgs/D104.png"",""materials/imgs/D92.png""]","false","random","","",""
"","","","","","html-keyboard-response","390","332421","0.0-19.0-1.2-0.2","3r101742kj","","3r101742kj","""2024-11-14T00:28:34.807Z""","null","+","null","","","","","","",""
"","","","","","image-keyboard-response","391","333034","0.0-19.0-1.2-1.2","3r101742kj","","3r101742kj","""2024-11-14T00:28:34.807Z""","610","materials/imgs/D8.png","arrowright","","[""materials/imgs/D18.png"",""materials/imgs/D8.png""]","","check","materials/imgs/D8.png","1","true"
"","","","","","html-keyboard-response","392","333536","0.0-19.0-2.2-0.4","3r101742kj","","3r101742kj","""2024-11-14T00:28:34.807Z""","null","+","null","","","","","","",""
"","","","","","image-keyboard-response","393","335156","0.0-19.0-2.2-1.4","3r101742kj","","3r101742kj","""2024-11-14T00:28:34.807Z""","1618","materials/imgs/D85.png","arrowleft","","[""materials/imgs/D6.png"",""materials/imgs/D111.png""]","false","validation","","",""
"","","","","","html-keyboard-response","394","335661","0.0-19.0-2.2-0.5","3r101742kj","","3r101742kj","""2024-11-14T00:28:34.807Z""","null","+","null","","","","","","",""
"","","","","","image-keyboard-response","395","336758","0.0-19.0-2.2-1.5","3r101742kj","","3r101742kj","""2024-11-14T00:28:34.807Z""","1095","materials/imgs/D81.png","arrowleft","","[""materials/imgs/D105.png"",""materials/imgs/D24.png""]","false","validation","","",""
"","","","","","html-keyboard-response","396","337261","0.0-19.0-0.3-0.21","3r101742kj","","3r101742kj","""2024-11-14T00:28:34.807Z""","null","+","null","","","","","","",""
"","","","","","image-keyboard-response","397","338119","0.0-19.0-0.3-1.21","3r101742kj","","3r101742kj","""2024-11-14T00:28:34.807Z""","855","materials/imgs/D57.png","arrowleft","","[""materials/imgs/D9.png"",""materials/imgs/D22.png""]","false","random","","",""
"","","","","","html-keyboard-response","398","338620","0.0-19.0-0.3-0.22","3r101742kj","","3r101742kj","""2024-11-14T00:28:34.807Z""","null","+","null","","","","","","",""
"","","","","","image-keyboard-response","399","339645","0.0-19.0-0.3-1.22","3r101742kj","","3r101742kj","""2024-11-14T00:28:34.807Z""","1023","materials/imgs/D84.png","arrowright","","[""materials/imgs/D81.png"",""materials/imgs/D57.png""]","false","random","","",""
"","","","","","html-keyboard-response","400","340147","0.0-19.0-0.3-0.23","3r101742kj","","3r101742kj","""2024-11-14T00:28:34.807Z""","null","+","null","","","","","","",""
"","","","","","image-keyboard-response","401","341090","0.0-19.0-0.3-1.23","3r101742kj","","3r101742kj","""2024-11-14T00:28:34.807Z""","940","materials/imgs/D82.png","arrowleft","","[""materials/imgs/D6.png"",""materials/imgs/D36.png""]","false","random","","",""
"","","","","","html-keyboard-response","402","341594","0.0-19.0-0.3-0.24","3r101742kj","","3r101742kj","""2024-11-14T00:28:34.807Z""","null","+","null","","","","","","",""
"","","","","","image-keyboard-response","403","342345","0.0-19.0-0.3-1.24","3r101742kj","","3r101742kj","""2024-11-14T00:28:34.807Z""","749","materials/imgs/D75.png","arrowleft","","[""materials/imgs/D34.png"",""materials/imgs/D56.png""]","false","random","","",""
"","","","","","html-keyboard-response","404","342847","0.0-19.0-0.3-0.25","3r101742kj","","3r101742kj","""2024-11-14T00:28:34.807Z""","null","+","null","","","","","","",""
"","","","","","image-keyboard-response","405","343790","0.0-19.0-0.3-1.25","3r101742kj","","3r101742kj","""2024-11-14T00:28:34.807Z""","940","materials/imgs/D24.png","arrowleft","","[""materials/imgs/D94.png"",""materials/imgs/D51.png""]","false","random","","",""
"","","","","","html-keyboard-response","406","344294","0.0-19.0-0.3-0.26","3r101742kj","","3r101742kj","""2024-11-14T00:28:34.807Z""","null","+","null","","","","","","",""
"","","","","","image-keyboard-response","407","345004","0.0-19.0-0.3-1.26","3r101742kj","","3r101742kj","""2024-11-14T00:28:34.807Z""","708","materials/imgs/D105.png","arrowright","","[""materials/imgs/D32.png"",""materials/imgs/D51.png""]","false","random","","",""
"","","","","","html-keyboard-response","408","345508","0.0-19.0-0.3-0.27","3r101742kj","","3r101742kj","""2024-11-14T00:28:34.807Z""","null","+","null","","","","","","",""
"","","","","","image-keyboard-response","409","347074","0.0-19.0-0.3-1.27","3r101742kj","","3r101742kj","""2024-11-14T00:28:34.807Z""","1563","materials/imgs/D24.png","arrowleft","","[""materials/imgs/D68.png"",""materials/imgs/D3.png""]","false","random","","",""
"","","","","","html-keyboard-response","410","347578","0.0-19.0-1.3-0.3","3r101742kj","","3r101742kj","""2024-11-14T00:28:34.807Z""","null","+","null","","","","","","",""
"","","","","","image-keyboard-response","411","348197","0.0-19.0-1.3-1.3","3r101742kj","","3r101742kj","""2024-11-14T00:28:34.807Z""","617","materials/imgs/D76.png","arrowleft","","[""materials/imgs/D76.png"",""materials/imgs/D78.png""]","","check","materials/imgs/D76.png","0","true"
"","","","","","html-keyboard-response","412","348699","0.0-19.0-2.3-0.6","3r101742kj","","3r101742kj","""2024-11-14T00:28:34.807Z""","null","+","null","","","","","","",""
"","","","","","image-keyboard-response","413","349740","0.0-19.0-2.3-1.6","3r101742kj","","3r101742kj","""2024-11-14T00:28:34.807Z""","1039","materials/imgs/D51.png","arrowright","","[""materials/imgs/D92.png"",""materials/imgs/D20.png""]","false","validation","","",""
"","","","","","html-keyboard-response","414","350242","0.0-19.0-2.3-0.7","3r101742kj","","3r101742kj","""2024-11-14T00:28:34.807Z""","null","+","null","","","","","","",""
"","","","","","image-keyboard-response","415","350814","0.0-19.0-2.3-1.7","3r101742kj","","3r101742kj","""2024-11-14T00:28:34.807Z""","570","materials/imgs/D105.png","arrowleft","","[""materials/imgs/D106.png"",""materials/imgs/D52.png""]","false","validation","","",""
"","","","","","html-keyboard-response","416","351317","0.0-19.0-0.4-0.28","3r101742kj","","3r101742kj","""2024-11-14T00:28:34.807Z""","null","+","null","","","","","","",""
"","","","","","image-keyboard-response","417","352570","0.0-19.0-0.4-1.28","3r101742kj","","3r101742kj","""2024-11-14T00:28:34.807Z""","1251","materials/imgs/D37.png","arrowleft","","[""materials/imgs/D68.png"",""materials/imgs/D11.png""]","false","random","","",""
"","","","","","html-keyboard-response","418","353074","0.0-19.0-0.4-0.29","3r101742kj","","3r101742kj","""2024-11-14T00:28:34.807Z""","null","+","null","","","","","","",""
"","","","","","image-keyboard-response","419","354060","0.0-19.0-0.4-1.29","3r101742kj","","3r101742kj","""2024-11-14T00:28:34.807Z""","983","materials/imgs/D111.png","arrowleft","","[""materials/imgs/D96.png"",""materials/imgs/D79.png""]","false","random","","",""
"","","","","","html-keyboard-response","420","354562","0.0-19.0-0.4-0.30","3r101742kj","","3r101742kj","""2024-11-14T00:28:34.807Z""","null","+","null","","","","","","",""
"","","","","","image-keyboard-response","421","355481","0.0-19.0-0.4-1.30","3r101742kj","","3r101742kj","""2024-11-14T00:28:34.807Z""","916","materials/imgs/D66.png","arrowleft","","[""materials/imgs/D35.png"",""materials/imgs/D37.png""]","false","random","","",""
"","","","","","html-keyboard-response","422","355983","0.0-19.0-0.4-0.31","3r101742kj","","3r101742kj","""2024-11-14T00:28:34.807Z""","null","+","null","","","","","","",""
"","","","","","image-keyboard-response","423","356906","0.0-19.0-0.4-1.31","3r101742kj","","3r101742kj","""2024-11-14T00:28:34.807Z""","921","materials/imgs/D55.png","arrowright","","[""materials/imgs/D46.png"",""materials/imgs/D32.png""]","false","random","","",""
"","","","","","html-keyboard-response","424","357410","0.0-19.0-0.4-0.32","3r101742kj","","3r101742kj","""2024-11-14T00:28:34.807Z""","null","+","null","","","","","","",""
"","","","","","image-keyboard-response","425","358680","0.0-19.0-0.4-1.32","3r101742kj","","3r101742kj","""2024-11-14T00:28:34.807Z""","1268","materials/imgs/D1.png","arrowright","","[""materials/imgs/D18.png"",""materials/imgs/D103.png""]","false","random","","",""
"","","","","","html-keyboard-response","426","359186","0.0-19.0-0.4-0.33","3r101742kj","","3r101742kj","""2024-11-14T00:28:34.807Z""","null","+","null","","","","","","",""
"","","","","","image-keyboard-response","427","360578","0.0-19.0-0.4-1.33","3r101742kj","","3r101742kj","""2024-11-14T00:28:34.807Z""","1390","materials/imgs/D53.png","arrowleft","","[""materials/imgs/D35.png"",""materials/imgs/D111.png""]","false","random","","",""
"","","","","","html-keyboard-response","428","361083","0.0-19.0-0.4-0.34","3r101742kj","","3r101742kj","""2024-11-14T00:28:34.807Z""","null","+","null","","","","","","",""
"","","","","","image-keyboard-response","429","362372","0.0-19.0-0.4-1.34","3r101742kj","","3r101742kj","""2024-11-14T00:28:34.807Z""","1287","materials/imgs/D94.png","arrowright","","[""materials/imgs/D17.png"",""materials/imgs/D20.png""]","false","random","","",""
"","","","","","html-keyboard-response","430","362877","0.0-19.0-1.4-0.4","3r101742kj","","3r101742kj","""2024-11-14T00:28:34.807Z""","null","+","null","","","","","","",""
"","","","","","image-keyboard-response","431","363628","0.0-19.0-1.4-1.4","3r101742kj","","3r101742kj","""2024-11-14T00:28:34.807Z""","749","materials/imgs/D18.png","arrowright","","[""materials/imgs/D8.png"",""materials/imgs/D18.png""]","","check","materials/imgs/D18.png","1","true"
"","","","","","html-keyboard-response","432","364130","0.0-19.0-2.4-0.8","3r101742kj","","3r101742kj","""2024-11-14T00:28:34.807Z""","null","+","null","","","","","","",""
"","","","","","image-keyboard-response","433","365459","0.0-19.0-2.4-1.8","3r101742kj","","3r101742kj","""2024-11-14T00:28:34.807Z""","1328","materials/imgs/D20.png","arrowleft","","[""materials/imgs/D84.png"",""materials/imgs/D85.png""]","false","validation","","",""
"","","","","","html-keyboard-response","434","365961","0.0-19.0-2.4-0.9","3r101742kj","","3r101742kj","""2024-11-14T00:28:34.807Z""","null","+","null","","","","","","",""
"","","","","","image-keyboard-response","435","366772","0.0-19.0-2.4-1.9","3r101742kj","","3r101742kj","""2024-11-14T00:28:34.807Z""","808","materials/imgs/D102.png","arrowright","","[""materials/imgs/D32.png"",""materials/imgs/D111.png""]","false","validation","","",""
