"success","timeout","failed_images","failed_audio","failed_video","trial_type","trial_index","time_elapsed","internal_node_id","subject_id","sona_id","subjectID","dateInfo","rt","stimulus","response","question_order","choices","speedy","sampleAlg","selected_image","selected_index","correct"
"true","false","[]","[]","[]","preload","0","948","0.0-0.0","4w9dvjznm8","","4w9dvjznm8","""2024-11-13T17:30:09.056Z""","","","","","","","","","",""
"true","","","","","fullscreen","1","5181","0.0-1.0","4w9dvjznm8","","4w9dvjznm8","""2024-11-13T17:30:09.056Z""","","","","","","","","","",""
"","","","","","html-keyboard-response","2","5193","0.0-2.0","4w9dvjznm8","","4w9dvjznm8","""2024-11-13T17:30:09.056Z""","null","","null","","","","","","",""
"","","","","","html-button-response","3","13288","0.0-3.0","4w9dvjznm8","","4w9dvjznm8","""2024-11-13T17:30:09.056Z""","8094","<div style='text-align:center; font-size:20px; line-height:25px; width: 1200px;'>
                Welcome to our experiment! <br>
                <br>At the bottom of this screen, you will see a button that says 'Begin Experiment.
                <br>Please only click that button when you are ready to complete the 25 minute experiment in one sitting. <br>
                <br> Once you click that button, it will not be possible to restart the experiment. <br><br>","0","","","","","","",""
"true","","","","","fullscreen","4","16455","0.0-4.0","4w9dvjznm8","","4w9dvjznm8","""2024-11-13T17:30:09.056Z""","","","","","","","","","",""
"","","","","","survey-multi-select","5","58160","0.0-5.0","4w9dvjznm8","","4w9dvjznm8","""2024-11-13T17:30:09.056Z""","41702","","{""Consent"":[""<strong>I consent</strong>""]}","[0]","","","","","",""
"","","","","","html-button-response","6","69568","0.0-6.0","4w9dvjznm8","","4w9dvjznm8","""2024-11-13T17:30:09.056Z""","11406","Welcome! <p> This experiment involves two parts: demographic information, followed by the experimental task.<p> It will take about 25 minutes to complete both parts.","0","","","","","","",""
"","","","","","survey-text","7","78918","0.0-7.0","4w9dvjznm8","","4w9dvjznm8","""2024-11-13T17:30:09.056Z""","9338","","{""Age"":""18"",""Gender"":""Female"",""Race/ethnicity"":""White""}","","","","","","",""
"","","","","","html-button-response","8","103668","0.0-8.0","4w9dvjznm8","","4w9dvjznm8","""2024-11-13T17:30:09.056Z""","24749","<div style='text-align: center;'>
      <p>In each trial of this task, you will see three texture images: one target item on top, and two choices beneath the target item.</p>
      <p><strong>Please select the item that is most like the target item.</strong></p>
      <p>To select the option on the <strong>LEFT</strong>, press the <strong>LEFT ARROW</strong> key. 
      To select the option on the <strong>RIGHT</strong>, press the <strong>RIGHT ARROW</strong> key.</p>
                  <!-- Target Image at the Top -->
      <div style='margin: 20px;'>
        <img src='materials/imgs/instruction_images/InstructionImg1D78.png' alt='Target Image' style='width:200px; height:auto;' />
        <p><em>Target Image</em></p>
      </div>

      <!-- Two Choice Images Below -->
      <div style='display: flex; justify-content: center;'>
        <div style='margin-right: 50px;'>
          <img src='materials/imgs/instruction_images/InstructionImg2D34.png' alt='Choice Image 1' style='width:150px; height:auto;' />
          <p><em><strong>LEFT ARROW</strong></em></p>
        </div>
        <div style='margin-left: 50px;'>
          <img src='materials/imgs/instruction_images/InstructionImg3D80.png' alt='Choice Image 2' style='width:150px; height:auto;' />
          <p><em><strong>RIGHT ARROW</strong></em></p>
        </div>
      </div>
    </div>

      <p>When you are ready to proceed, please click 'Continue' to begin practice.</p>","0","","","","","","",""
"","","","","","html-keyboard-response","9","106171","0.0-9.0","4w9dvjznm8","","4w9dvjznm8","""2024-11-13T17:30:09.056Z""","null","+","null","","","","","","",""
"","","","","","html-keyboard-response","10","106673","0.0-10.0-0.0-0.0","4w9dvjznm8","","4w9dvjznm8","""2024-11-13T17:30:09.056Z""","null","+","null","","","","","","",""
"","","","","","image-keyboard-response","11","109653","0.0-10.0-0.0-1.0","4w9dvjznm8","","4w9dvjznm8","""2024-11-13T17:30:09.056Z""","2972","materials/imgs/D36.png","arrowright","","[""materials/imgs/D48.png"",""materials/imgs/D101.png""]","false","random","","",""
"","","","","","html-keyboard-response","12","110155","0.0-10.0-0.0-0.1","4w9dvjznm8","","4w9dvjznm8","""2024-11-13T17:30:09.056Z""","null","+","null","","","","","","",""
"","","","","","image-keyboard-response","13","113050","0.0-10.0-0.0-1.1","4w9dvjznm8","","4w9dvjznm8","""2024-11-13T17:30:09.056Z""","2886","materials/imgs/D34.png","arrowleft","","[""materials/imgs/D19.png"",""materials/imgs/D103.png""]","false","random","","",""
"","","","","","html-keyboard-response","14","113552","0.0-10.0-0.0-0.2","4w9dvjznm8","","4w9dvjznm8","""2024-11-13T17:30:09.056Z""","null","+","null","","","","","","",""
"","","","","","image-keyboard-response","15","116362","0.0-10.0-0.0-1.2","4w9dvjznm8","","4w9dvjznm8","""2024-11-13T17:30:09.056Z""","2800","materials/imgs/D87.png","arrowright","","[""materials/imgs/D56.png"",""materials/imgs/D17.png""]","false","random","","",""
"","","","","","html-keyboard-response","16","116864","0.0-10.0-0.0-0.3","4w9dvjznm8","","4w9dvjznm8","""2024-11-13T17:30:09.056Z""","null","+","null","","","","","","",""
"","","","","","image-keyboard-response","17","118114","0.0-10.0-0.0-1.3","4w9dvjznm8","","4w9dvjznm8","""2024-11-13T17:30:09.056Z""","1242","materials/imgs/D81.png","arrowright","","[""materials/imgs/D64.png"",""materials/imgs/D4.png""]","false","random","","",""
"","","","","","html-keyboard-response","18","118616","0.0-10.0-0.0-0.4","4w9dvjznm8","","4w9dvjznm8","""2024-11-13T17:30:09.056Z""","null","+","null","","","","","","",""
"","","","","","image-keyboard-response","19","125347","0.0-10.0-0.0-1.4","4w9dvjznm8","","4w9dvjznm8","""2024-11-13T17:30:09.056Z""","6721","materials/imgs/D37.png","arrowright","","[""materials/imgs/D24.png"",""materials/imgs/D56.png""]","false","random","","",""
"","","","","","html-keyboard-response","20","125849","0.0-10.0-0.0-0.5","4w9dvjznm8","","4w9dvjznm8","""2024-11-13T17:30:09.056Z""","null","+","null","","","","","","",""
"","","","","","image-keyboard-response","21","127879","0.0-10.0-0.0-1.5","4w9dvjznm8","","4w9dvjznm8","""2024-11-13T17:30:09.056Z""","2020","materials/imgs/D74.png","arrowleft","","[""materials/imgs/D20.png"",""materials/imgs/D32.png""]","false","random","","",""
"","","","","","html-keyboard-response","22","128380","0.0-10.0-0.0-0.6","4w9dvjznm8","","4w9dvjznm8","""2024-11-13T17:30:09.056Z""","null","+","null","","","","","","",""
"","","","","","image-keyboard-response","23","130335","0.0-10.0-0.0-1.6","4w9dvjznm8","","4w9dvjznm8","""2024-11-13T17:30:09.056Z""","1953","materials/imgs/D48.png","arrowright","","[""materials/imgs/D111.png"",""materials/imgs/D66.png""]","false","random","","",""
"","","","","","html-keyboard-response","24","130837","0.0-10.0-0.0-0.7","4w9dvjznm8","","4w9dvjznm8","""2024-11-13T17:30:09.056Z""","null","+","null","","","","","","",""
"","","","","","image-keyboard-response","25","133650","0.0-10.0-0.0-1.7","4w9dvjznm8","","4w9dvjznm8","""2024-11-13T17:30:09.056Z""","2811","materials/imgs/D34.png","arrowright","","[""materials/imgs/D25.png"",""materials/imgs/D9.png""]","false","random","","",""
"","","","","","html-keyboard-response","26","134152","0.0-10.0-0.0-0.8","4w9dvjznm8","","4w9dvjznm8","""2024-11-13T17:30:09.056Z""","null","+","null","","","","","","",""
"","","","","","image-keyboard-response","27","135768","0.0-10.0-0.0-1.8","4w9dvjznm8","","4w9dvjznm8","""2024-11-13T17:30:09.056Z""","1606","materials/imgs/D22.png","arrowright","","[""materials/imgs/D65.png"",""materials/imgs/D35.png""]","false","random","","",""
"","","","","","html-keyboard-response","28","136270","0.0-10.0-0.0-0.9","4w9dvjznm8","","4w9dvjznm8","""2024-11-13T17:30:09.056Z""","null","+","null","","","","","","",""
"","","","","","image-keyboard-response","29","138361","0.0-10.0-0.0-1.9","4w9dvjznm8","","4w9dvjznm8","""2024-11-13T17:30:09.056Z""","2086","materials/imgs/D55.png","arrowleft","","[""materials/imgs/D105.png"",""materials/imgs/D74.png""]","false","random","","",""
"","","","","","html-button-response","30","144540","0.0-11.0","4w9dvjznm8","","4w9dvjznm8","""2024-11-13T17:30:09.056Z""","6177","<p>Great job!</p>
      <p>You are now ready to begin the experiment.</p>
      <p>There will be around 200 trials. You will have opportunities to take breaks at three stages of the trials.</p>
      <p>When you are ready to begin please click 'Continue'.</p>","0","","","","","","",""
"","","","","","html-keyboard-response","31","147042","0.0-12.0","4w9dvjznm8","","4w9dvjznm8","""2024-11-13T17:30:09.056Z""","null","+","null","","","","","","",""
"","","","","","html-keyboard-response","32","147544","0.0-13.0-0.0-0.0","4w9dvjznm8","","4w9dvjznm8","""2024-11-13T17:30:09.056Z""","null","+","null","","","","","","",""
"","","","","","image-keyboard-response","33","148811","0.0-13.0-0.0-1.0","4w9dvjznm8","","4w9dvjznm8","""2024-11-13T17:30:09.056Z""","1259","materials/imgs/D8.png","arrowleft","","[""materials/imgs/D36.png"",""materials/imgs/D96.png""]","false","random","","",""
"","","","","","html-keyboard-response","34","149314","0.0-13.0-0.0-0.1","4w9dvjznm8","","4w9dvjznm8","""2024-11-13T17:30:09.056Z""","null","+","null","","","","","","",""
"","","","","","image-keyboard-response","35","150024","0.0-13.0-0.0-1.1","4w9dvjznm8","","4w9dvjznm8","""2024-11-13T17:30:09.056Z""","704","materials/imgs/D68.png","arrowright","","[""materials/imgs/D25.png"",""materials/imgs/D24.png""]","false","random","","",""
"","","","","","html-keyboard-response","36","150527","0.0-13.0-0.0-0.2","4w9dvjznm8","","4w9dvjznm8","""2024-11-13T17:30:09.056Z""","null","+","null","","","","","","",""
"","","","","","image-keyboard-response","37","151334","0.0-13.0-0.0-1.2","4w9dvjznm8","","4w9dvjznm8","""2024-11-13T17:30:09.056Z""","805","materials/imgs/D66.png","arrowleft","","[""materials/imgs/D74.png"",""materials/imgs/D25.png""]","false","random","","",""
"","","","","","html-keyboard-response","38","151836","0.0-13.0-0.0-0.3","4w9dvjznm8","","4w9dvjznm8","""2024-11-13T17:30:09.056Z""","null","+","null","","","","","","",""
"","","","","","image-keyboard-response","39","153025","0.0-13.0-0.0-1.3","4w9dvjznm8","","4w9dvjznm8","""2024-11-13T17:30:09.056Z""","1180","materials/imgs/D94.png","arrowright","","[""materials/imgs/D36.png"",""materials/imgs/D68.png""]","false","random","","",""
"","","","","","html-keyboard-response","40","153527","0.0-13.0-0.0-0.4","4w9dvjznm8","","4w9dvjznm8","""2024-11-13T17:30:09.056Z""","null","+","null","","","","","","",""
"","","","","","image-keyboard-response","41","158302","0.0-13.0-0.0-1.4","4w9dvjznm8","","4w9dvjznm8","""2024-11-13T17:30:09.056Z""","4765","materials/imgs/D104.png","arrowleft","","[""materials/imgs/D95.png"",""materials/imgs/D25.png""]","false","random","","",""
"","","","","","html-keyboard-response","42","158805","0.0-13.0-0.0-0.5","4w9dvjznm8","","4w9dvjznm8","""2024-11-13T17:30:09.056Z""","null","+","null","","","","","","",""
"","","","","","image-keyboard-response","43","160843","0.0-13.0-0.0-1.5","4w9dvjznm8","","4w9dvjznm8","""2024-11-13T17:30:09.056Z""","2036","materials/imgs/D101.png","arrowleft","","[""materials/imgs/D34.png"",""materials/imgs/D26.png""]","false","random","","",""
"","","","","","html-keyboard-response","44","161345","0.0-13.0-0.0-0.6","4w9dvjznm8","","4w9dvjznm8","""2024-11-13T17:30:09.056Z""","null","+","null","","","","","","",""
"","","","","","image-keyboard-response","45","163989","0.0-13.0-0.0-1.6","4w9dvjznm8","","4w9dvjznm8","""2024-11-13T17:30:09.056Z""","2641","materials/imgs/D87.png","arrowleft","","[""materials/imgs/D77.png"",""materials/imgs/D6.png""]","false","random","","",""
"","","","","","html-keyboard-response","46","164491","0.0-13.0-1.0-0.0","4w9dvjznm8","","4w9dvjznm8","""2024-11-13T17:30:09.056Z""","null","+","null","","","","","","",""
"","","","","","image-keyboard-response","47","165249","0.0-13.0-1.0-1.0","4w9dvjznm8","","4w9dvjznm8","""2024-11-13T17:30:09.056Z""","756","materials/imgs/D101.png","arrowright","","[""materials/imgs/D106.png"",""materials/imgs/D101.png""]","","check","materials/imgs/D101.png","1","true"
"","","","","","html-keyboard-response","48","165752","0.0-13.0-2.0-0.0","4w9dvjznm8","","4w9dvjznm8","""2024-11-13T17:30:09.056Z""","null","+","null","","","","","","",""
"","","","","","image-keyboard-response","49","167054","0.0-13.0-2.0-1.0","4w9dvjznm8","","4w9dvjznm8","""2024-11-13T17:30:09.056Z""","1299","materials/imgs/D37.png","arrowright","","[""materials/imgs/D84.png"",""materials/imgs/D111.png""]","false","validation","","",""
"","","","","","html-keyboard-response","50","167557","0.0-13.0-2.0-0.1","4w9dvjznm8","","4w9dvjznm8","""2024-11-13T17:30:09.056Z""","null","+","null","","","","","","",""
"","","","","","image-keyboard-response","51","169350","0.0-13.0-2.0-1.1","4w9dvjznm8","","4w9dvjznm8","""2024-11-13T17:30:09.056Z""","1791","materials/imgs/D22.png","arrowleft","","[""materials/imgs/D4.png"",""materials/imgs/D25.png""]","false","validation","","",""
"","","","","","html-keyboard-response","52","169852","0.0-13.0-0.1-0.7","4w9dvjznm8","","4w9dvjznm8","""2024-11-13T17:30:09.056Z""","null","+","null","","","","","","",""
"","","","","","image-keyboard-response","53","170512","0.0-13.0-0.1-1.7","4w9dvjznm8","","4w9dvjznm8","""2024-11-13T17:30:09.056Z""","652","materials/imgs/D102.png","arrowleft","","[""materials/imgs/D20.png"",""materials/imgs/D79.png""]","false","random","","",""
"","","","","","html-keyboard-response","54","171013","0.0-13.0-0.1-0.8","4w9dvjznm8","","4w9dvjznm8","""2024-11-13T17:30:09.056Z""","null","+","null","","","","","","",""
"","","","","","image-keyboard-response","55","173975","0.0-13.0-0.1-1.8","4w9dvjznm8","","4w9dvjznm8","""2024-11-13T17:30:09.056Z""","2961","materials/imgs/D35.png","arrowright","","[""materials/imgs/D81.png"",""materials/imgs/D24.png""]","false","random","","",""
"","","","","","html-keyboard-response","56","174477","0.0-13.0-0.1-0.9","4w9dvjznm8","","4w9dvjznm8","""2024-11-13T17:30:09.056Z""","null","+","null","","","","","","",""
"","","","","","image-keyboard-response","57","175368","0.0-13.0-0.1-1.9","4w9dvjznm8","","4w9dvjznm8","""2024-11-13T17:30:09.056Z""","881","materials/imgs/D21.png","arrowleft","","[""materials/imgs/D22.png"",""materials/imgs/D9.png""]","false","random","","",""
"","","","","","html-keyboard-response","58","175870","0.0-13.0-0.1-0.10","4w9dvjznm8","","4w9dvjznm8","""2024-11-13T17:30:09.056Z""","null","+","null","","","","","","",""
"","","","","","image-keyboard-response","59","178941","0.0-13.0-0.1-1.10","4w9dvjznm8","","4w9dvjznm8","""2024-11-13T17:30:09.056Z""","3070","materials/imgs/D26.png","arrowright","","[""materials/imgs/D105.png"",""materials/imgs/D35.png""]","false","random","","",""
"","","","","","html-keyboard-response","60","179443","0.0-13.0-0.1-0.11","4w9dvjznm8","","4w9dvjznm8","""2024-11-13T17:30:09.056Z""","null","+","null","","","","","","",""
"","","","","","image-keyboard-response","61","182231","0.0-13.0-0.1-1.11","4w9dvjznm8","","4w9dvjznm8","""2024-11-13T17:30:09.056Z""","2786","materials/imgs/D35.png","arrowright","","[""materials/imgs/D53.png"",""materials/imgs/D111.png""]","false","random","","",""
"","","","","","html-keyboard-response","62","182733","0.0-13.0-0.1-0.12","4w9dvjznm8","","4w9dvjznm8","""2024-11-13T17:30:09.056Z""","null","+","null","","","","","","",""
"","","","","","image-keyboard-response","63","183634","0.0-13.0-0.1-1.12","4w9dvjznm8","","4w9dvjznm8","""2024-11-13T17:30:09.056Z""","892","materials/imgs/D85.png","arrowright","","[""materials/imgs/D8.png"",""materials/imgs/D78.png""]","false","random","","",""
"","","","","","html-keyboard-response","64","184136","0.0-13.0-0.1-0.13","4w9dvjznm8","","4w9dvjznm8","""2024-11-13T17:30:09.056Z""","null","+","null","","","","","","",""
"","","","","","image-keyboard-response","65","185965","0.0-13.0-0.1-1.13","4w9dvjznm8","","4w9dvjznm8","""2024-11-13T17:30:09.056Z""","1819","materials/imgs/D75.png","arrowleft","","[""materials/imgs/D106.png"",""materials/imgs/D77.png""]","false","random","","",""
"","","","","","html-keyboard-response","66","186467","0.0-13.0-1.1-0.1","4w9dvjznm8","","4w9dvjznm8","""2024-11-13T17:30:09.056Z""","null","+","null","","","","","","",""
"","","","","","image-keyboard-response","67","187046","0.0-13.0-1.1-1.1","4w9dvjznm8","","4w9dvjznm8","""2024-11-13T17:30:09.056Z""","578","materials/imgs/D26.png","arrowleft","","[""materials/imgs/D26.png"",""materials/imgs/D46.png""]","","check","materials/imgs/D26.png","0","true"
"","","","","","html-keyboard-response","68","187549","0.0-13.0-2.1-0.2","4w9dvjznm8","","4w9dvjznm8","""2024-11-13T17:30:09.056Z""","null","+","null","","","","","","",""
"","","","","","image-keyboard-response","69","188655","0.0-13.0-2.1-1.2","4w9dvjznm8","","4w9dvjznm8","""2024-11-13T17:30:09.056Z""","1105","materials/imgs/D106.png","arrowright","","[""materials/imgs/D57.png"",""materials/imgs/D18.png""]","false","validation","","",""
"","","","","","html-keyboard-response","70","189157","0.0-13.0-2.1-0.3","4w9dvjznm8","","4w9dvjznm8","""2024-11-13T17:30:09.056Z""","null","+","null","","","","","","",""
"","","","","","image-keyboard-response","71","190561","0.0-13.0-2.1-1.3","4w9dvjznm8","","4w9dvjznm8","""2024-11-13T17:30:09.056Z""","1402","materials/imgs/D75.png","arrowleft","","[""materials/imgs/D96.png"",""materials/imgs/D4.png""]","false","validation","","",""
"","","","","","html-keyboard-response","72","191063","0.0-13.0-0.2-0.14","4w9dvjznm8","","4w9dvjznm8","""2024-11-13T17:30:09.056Z""","null","+","null","","","","","","",""
"","","","","","image-keyboard-response","73","191663","0.0-13.0-0.2-1.14","4w9dvjznm8","","4w9dvjznm8","""2024-11-13T17:30:09.056Z""","599","materials/imgs/D22.png","arrowright","","[""materials/imgs/D9.png"",""materials/imgs/D20.png""]","false","random","","",""
"","","","","","html-keyboard-response","74","192165","0.0-13.0-0.2-0.15","4w9dvjznm8","","4w9dvjznm8","""2024-11-13T17:30:09.056Z""","null","+","null","","","","","","",""
"","","","","","image-keyboard-response","75","193523","0.0-13.0-0.2-1.15","4w9dvjznm8","","4w9dvjznm8","""2024-11-13T17:30:09.056Z""","1356","materials/imgs/D56.png","arrowright","","[""materials/imgs/D48.png"",""materials/imgs/D95.png""]","false","random","","",""
"","","","","","html-keyboard-response","76","194025","0.0-13.0-0.2-0.16","4w9dvjznm8","","4w9dvjznm8","""2024-11-13T17:30:09.056Z""","null","+","null","","","","","","",""
"","","","","","image-keyboard-response","77","196407","0.0-13.0-0.2-1.16","4w9dvjznm8","","4w9dvjznm8","""2024-11-13T17:30:09.056Z""","2381","materials/imgs/D24.png","arrowright","","[""materials/imgs/D65.png"",""materials/imgs/D29.png""]","false","random","","",""
"","","","","","html-keyboard-response","78","196909","0.0-13.0-0.2-0.17","4w9dvjznm8","","4w9dvjznm8","""2024-11-13T17:30:09.056Z""","null","+","null","","","","","","",""
"","","","","","image-keyboard-response","79","197921","0.0-13.0-0.2-1.17","4w9dvjznm8","","4w9dvjznm8","""2024-11-13T17:30:09.056Z""","1001","materials/imgs/D11.png","arrowleft","","[""materials/imgs/D79.png"",""materials/imgs/D6.png""]","false","random","","",""
"","","","","","html-keyboard-response","80","198422","0.0-13.0-0.2-0.18","4w9dvjznm8","","4w9dvjznm8","""2024-11-13T17:30:09.056Z""","null","+","null","","","","","","",""
"","","","","","image-keyboard-response","81","201035","0.0-13.0-0.2-1.18","4w9dvjznm8","","4w9dvjznm8","""2024-11-13T17:30:09.056Z""","2612","materials/imgs/D95.png","arrowright","","[""materials/imgs/D68.png"",""materials/imgs/D6.png""]","false","random","","",""
"","","","","","html-keyboard-response","82","201537","0.0-13.0-0.2-0.19","4w9dvjznm8","","4w9dvjznm8","""2024-11-13T17:30:09.056Z""","null","+","null","","","","","","",""
"","","","","","image-keyboard-response","83","202920","0.0-13.0-0.2-1.19","4w9dvjznm8","","4w9dvjznm8","""2024-11-13T17:30:09.056Z""","1381","materials/imgs/D46.png","arrowleft","","[""materials/imgs/D111.png"",""materials/imgs/D75.png""]","false","random","","",""
"","","","","","html-keyboard-response","84","203422","0.0-13.0-0.2-0.20","4w9dvjznm8","","4w9dvjznm8","""2024-11-13T17:30:09.056Z""","null","+","null","","","","","","",""
"","","","","","image-keyboard-response","85","206344","0.0-13.0-0.2-1.20","4w9dvjznm8","","4w9dvjznm8","""2024-11-13T17:30:09.056Z""","2914","materials/imgs/D14.png","arrowleft","","[""materials/imgs/D55.png"",""materials/imgs/D11.png""]","false","random","","",""
"","","","","","html-keyboard-response","86","206846","0.0-13.0-1.2-0.2","4w9dvjznm8","","4w9dvjznm8","""2024-11-13T17:30:09.056Z""","null","+","null","","","","","","",""
"","","","","","image-keyboard-response","87","209164","0.0-13.0-1.2-1.2","4w9dvjznm8","","4w9dvjznm8","""2024-11-13T17:30:09.056Z""","2316","materials/imgs/D101.png","arrowright","","[""materials/imgs/D106.png"",""materials/imgs/D101.png""]","","check","materials/imgs/D101.png","1","true"
"","","","","","html-keyboard-response","88","209666","0.0-13.0-2.2-0.4","4w9dvjznm8","","4w9dvjznm8","""2024-11-13T17:30:09.056Z""","null","+","null","","","","","","",""
"","","","","","image-keyboard-response","89","212594","0.0-13.0-2.2-1.4","4w9dvjznm8","","4w9dvjznm8","""2024-11-13T17:30:09.056Z""","2918","materials/imgs/D1.png","arrowleft","","[""materials/imgs/D57.png"",""materials/imgs/D76.png""]","false","validation","","",""
"","","","","","html-keyboard-response","90","213095","0.0-13.0-2.2-0.5","4w9dvjznm8","","4w9dvjznm8","""2024-11-13T17:30:09.056Z""","null","+","null","","","","","","",""
"","","","","","image-keyboard-response","91","215165","0.0-13.0-2.2-1.5","4w9dvjznm8","","4w9dvjznm8","""2024-11-13T17:30:09.056Z""","2068","materials/imgs/D85.png","arrowright","","[""materials/imgs/D6.png"",""materials/imgs/D111.png""]","false","validation","","",""
"","","","","","html-keyboard-response","92","215667","0.0-13.0-0.3-0.21","4w9dvjznm8","","4w9dvjznm8","""2024-11-13T17:30:09.056Z""","null","+","null","","","","","","",""
"","","","","","image-keyboard-response","93","221501","0.0-13.0-0.3-1.21","4w9dvjznm8","","4w9dvjznm8","""2024-11-13T17:30:09.056Z""","5826","materials/imgs/D47.png","arrowright","","[""materials/imgs/D3.png"",""materials/imgs/D102.png""]","false","random","","",""
"","","","","","html-keyboard-response","94","222003","0.0-13.0-0.3-0.22","4w9dvjznm8","","4w9dvjznm8","""2024-11-13T17:30:09.056Z""","null","+","null","","","","","","",""
"","","","","","image-keyboard-response","95","222940","0.0-13.0-0.3-1.22","4w9dvjznm8","","4w9dvjznm8","""2024-11-13T17:30:09.056Z""","935","materials/imgs/D87.png","arrowleft","","[""materials/imgs/D29.png"",""materials/imgs/D8.png""]","false","random","","",""
"","","","","","html-keyboard-response","96","223442","0.0-13.0-0.3-0.23","4w9dvjznm8","","4w9dvjznm8","""2024-11-13T17:30:09.056Z""","null","+","null","","","","","","",""
"","","","","","image-keyboard-response","97","225205","0.0-13.0-0.3-1.23","4w9dvjznm8","","4w9dvjznm8","""2024-11-13T17:30:09.056Z""","1761","materials/imgs/D4.png","arrowright","","[""materials/imgs/D68.png"",""materials/imgs/D76.png""]","false","random","","",""
"","","","","","html-keyboard-response","98","225707","0.0-13.0-0.3-0.24","4w9dvjznm8","","4w9dvjznm8","""2024-11-13T17:30:09.056Z""","null","+","null","","","","","","",""
"","","","","","image-keyboard-response","99","226454","0.0-13.0-0.3-1.24","4w9dvjznm8","","4w9dvjznm8","""2024-11-13T17:30:09.056Z""","745","materials/imgs/D14.png","arrowleft","","[""materials/imgs/D6.png"",""materials/imgs/D19.png""]","false","random","","",""
"","","","","","html-keyboard-response","100","226956","0.0-13.0-0.3-0.25","4w9dvjznm8","","4w9dvjznm8","""2024-11-13T17:30:09.056Z""","null","+","null","","","","","","",""
"","","","","","image-keyboard-response","101","228514","0.0-13.0-0.3-1.25","4w9dvjznm8","","4w9dvjznm8","""2024-11-13T17:30:09.056Z""","1557","materials/imgs/D56.png","arrowright","","[""materials/imgs/D68.png"",""materials/imgs/D57.png""]","false","random","","",""
"","","","","","html-keyboard-response","102","229016","0.0-13.0-0.3-0.26","4w9dvjznm8","","4w9dvjznm8","""2024-11-13T17:30:09.056Z""","null","+","null","","","","","","",""
"","","","","","image-keyboard-response","103","229695","0.0-13.0-0.3-1.26","4w9dvjznm8","","4w9dvjznm8","""2024-11-13T17:30:09.056Z""","677","materials/imgs/D55.png","arrowleft","","[""materials/imgs/D77.png"",""materials/imgs/D96.png""]","false","random","","",""
"","","","","","html-keyboard-response","104","230197","0.0-13.0-0.3-0.27","4w9dvjznm8","","4w9dvjznm8","""2024-11-13T17:30:09.056Z""","null","+","null","","","","","","",""
"","","","","","image-keyboard-response","105","231260","0.0-13.0-0.3-1.27","4w9dvjznm8","","4w9dvjznm8","""2024-11-13T17:30:09.056Z""","1062","materials/imgs/D8.png","arrowright","","[""materials/imgs/D76.png"",""materials/imgs/D87.png""]","false","random","","",""
"","","","","","html-keyboard-response","106","231762","0.0-13.0-1.3-0.3","4w9dvjznm8","","4w9dvjznm8","""2024-11-13T17:30:09.056Z""","null","+","null","","","","","","",""
"","","","","","image-keyboard-response","107","233308","0.0-13.0-1.3-1.3","4w9dvjznm8","","4w9dvjznm8","""2024-11-13T17:30:09.056Z""","1545","materials/imgs/D8.png","arrowright","","[""materials/imgs/D18.png"",""materials/imgs/D8.png""]","","check","materials/imgs/D8.png","1","true"
"","","","","","html-keyboard-response","108","233809","0.0-13.0-2.3-0.6","4w9dvjznm8","","4w9dvjznm8","""2024-11-13T17:30:09.056Z""","null","+","null","","","","","","",""
"","","","","","image-keyboard-response","109","234434","0.0-13.0-2.3-1.6","4w9dvjznm8","","4w9dvjznm8","""2024-11-13T17:30:09.056Z""","623","materials/imgs/D9.png","arrowright","","[""materials/imgs/D103.png"",""materials/imgs/D4.png""]","false","validation","","",""
"","","","","","html-keyboard-response","110","234936","0.0-13.0-2.3-0.7","4w9dvjznm8","","4w9dvjznm8","""2024-11-13T17:30:09.056Z""","null","+","null","","","","","","",""
"","","","","","image-keyboard-response","111","236047","0.0-13.0-2.3-1.7","4w9dvjznm8","","4w9dvjznm8","""2024-11-13T17:30:09.056Z""","1109","materials/imgs/D57.png","arrowright","","[""materials/imgs/D111.png"",""materials/imgs/D4.png""]","false","validation","","",""
"","","","","","html-keyboard-response","112","236548","0.0-13.0-0.4-0.28","4w9dvjznm8","","4w9dvjznm8","""2024-11-13T17:30:09.056Z""","null","+","null","","","","","","",""
"","","","","","image-keyboard-response","113","239218","0.0-13.0-0.4-1.28","4w9dvjznm8","","4w9dvjznm8","""2024-11-13T17:30:09.056Z""","2668","materials/imgs/D35.png","arrowleft","","[""materials/imgs/D75.png"",""materials/imgs/D56.png""]","false","random","","",""
"","","","","","html-keyboard-response","114","239720","0.0-13.0-0.4-0.29","4w9dvjznm8","","4w9dvjznm8","""2024-11-13T17:30:09.056Z""","null","+","null","","","","","","",""
"","","","","","image-keyboard-response","115","240856","0.0-13.0-0.4-1.29","4w9dvjznm8","","4w9dvjznm8","""2024-11-13T17:30:09.056Z""","1134","materials/imgs/D24.png","arrowleft","","[""materials/imgs/D11.png"",""materials/imgs/D26.png""]","false","random","","",""
"","","","","","html-keyboard-response","116","241358","0.0-13.0-0.4-0.30","4w9dvjznm8","","4w9dvjznm8","""2024-11-13T17:30:09.056Z""","null","+","null","","","","","","",""
"","","","","","image-keyboard-response","117","242328","0.0-13.0-0.4-1.30","4w9dvjznm8","","4w9dvjznm8","""2024-11-13T17:30:09.056Z""","969","materials/imgs/D106.png","arrowright","","[""materials/imgs/D34.png"",""materials/imgs/D24.png""]","false","random","","",""
"","","","","","html-keyboard-response","118","242830","0.0-13.0-0.4-0.31","4w9dvjznm8","","4w9dvjznm8","""2024-11-13T17:30:09.056Z""","null","+","null","","","","","","",""
"","","","","","image-keyboard-response","119","244518","0.0-13.0-0.4-1.31","4w9dvjznm8","","4w9dvjznm8","""2024-11-13T17:30:09.056Z""","1687","materials/imgs/D65.png","arrowleft","","[""materials/imgs/D46.png"",""materials/imgs/D47.png""]","false","random","","",""
"","","","","","html-keyboard-response","120","245020","0.0-13.0-0.4-0.32","4w9dvjznm8","","4w9dvjznm8","""2024-11-13T17:30:09.056Z""","null","+","null","","","","","","",""
"","","","","","image-keyboard-response","121","246538","0.0-13.0-0.4-1.32","4w9dvjznm8","","4w9dvjznm8","""2024-11-13T17:30:09.056Z""","1517","materials/imgs/D95.png","arrowleft","","[""materials/imgs/D65.png"",""materials/imgs/D55.png""]","false","random","","",""
"","","","","","html-keyboard-response","122","247041","0.0-13.0-0.4-0.33","4w9dvjznm8","","4w9dvjznm8","""2024-11-13T17:30:09.056Z""","null","+","null","","","","","","",""
"","","","","","image-keyboard-response","123","248295","0.0-13.0-0.4-1.33","4w9dvjznm8","","4w9dvjznm8","""2024-11-13T17:30:09.056Z""","1253","materials/imgs/D95.png","arrowright","","[""materials/imgs/D11.png"",""materials/imgs/D25.png""]","false","random","","",""
"","","","","","html-keyboard-response","124","248797","0.0-13.0-0.4-0.34","4w9dvjznm8","","4w9dvjznm8","""2024-11-13T17:30:09.056Z""","null","+","null","","","","","","",""
"","","","","","image-keyboard-response","125","250648","0.0-13.0-0.4-1.34","4w9dvjznm8","","4w9dvjznm8","""2024-11-13T17:30:09.056Z""","1851","materials/imgs/D105.png","arrowright","","[""materials/imgs/D8.png"",""materials/imgs/D16.png""]","false","random","","",""
"","","","","","html-keyboard-response","126","251151","0.0-13.0-1.4-0.4","4w9dvjznm8","","4w9dvjznm8","""2024-11-13T17:30:09.056Z""","null","+","null","","","","","","",""
"","","","","","image-keyboard-response","127","252284","0.0-13.0-1.4-1.4","4w9dvjznm8","","4w9dvjznm8","""2024-11-13T17:30:09.056Z""","1132","materials/imgs/D18.png","arrowright","","[""materials/imgs/D8.png"",""materials/imgs/D18.png""]","","check","materials/imgs/D18.png","1","true"
"","","","","","html-keyboard-response","128","252786","0.0-13.0-2.4-0.8","4w9dvjznm8","","4w9dvjznm8","""2024-11-13T17:30:09.056Z""","null","+","null","","","","","","",""
"","","","","","image-keyboard-response","129","253913","0.0-13.0-2.4-1.8","4w9dvjznm8","","4w9dvjznm8","""2024-11-13T17:30:09.056Z""","1125","materials/imgs/D56.png","arrowleft","","[""materials/imgs/D25.png"",""materials/imgs/D105.png""]","false","validation","","",""
"","","","","","html-keyboard-response","130","254415","0.0-13.0-2.4-0.9","4w9dvjznm8","","4w9dvjznm8","""2024-11-13T17:30:09.056Z""","null","+","null","","","","","","",""
"","","","","","image-keyboard-response","131","256501","0.0-13.0-2.4-1.9","4w9dvjznm8","","4w9dvjznm8","""2024-11-13T17:30:09.056Z""","2086","materials/imgs/D111.png","arrowleft","","[""materials/imgs/D82.png"",""materials/imgs/D95.png""]","false","validation","","",""
"","","","","","html-button-response","132","258681","0.0-14.0","4w9dvjznm8","","4w9dvjznm8","""2024-11-13T17:30:09.056Z""","2177","You have completed 25% of the trials. Please click 'Continue' when you are ready proceed.","0","","","","","","",""
"","","","","","html-keyboard-response","133","259182","0.0-15.0-0.0-0.0","4w9dvjznm8","","4w9dvjznm8","""2024-11-13T17:30:09.056Z""","null","+","null","","","","","","",""
"","","","","","image-keyboard-response","134","259915","0.0-15.0-0.0-1.0","4w9dvjznm8","","4w9dvjznm8","""2024-11-13T17:30:09.056Z""","731","materials/imgs/D74.png","arrowleft","","[""materials/imgs/D96.png"",""materials/imgs/D87.png""]","false","random","","",""
"","","","","","html-keyboard-response","135","260417","0.0-15.0-0.0-0.1","4w9dvjznm8","","4w9dvjznm8","""2024-11-13T17:30:09.056Z""","null","+","null","","","","","","",""
"","","","","","image-keyboard-response","136","261782","0.0-15.0-0.0-1.1","4w9dvjznm8","","4w9dvjznm8","""2024-11-13T17:30:09.056Z""","1364","materials/imgs/D103.png","arrowleft","","[""materials/imgs/D29.png"",""materials/imgs/D32.png""]","false","random","","",""
"","","","","","html-keyboard-response","137","262284","0.0-15.0-0.0-0.2","4w9dvjznm8","","4w9dvjznm8","""2024-11-13T17:30:09.056Z""","null","+","null","","","","","","",""
"","","","","","image-keyboard-response","138","263122","0.0-15.0-0.0-1.2","4w9dvjznm8","","4w9dvjznm8","""2024-11-13T17:30:09.056Z""","837","materials/imgs/D18.png","arrowright","","[""materials/imgs/D57.png"",""materials/imgs/D76.png""]","false","random","","",""
"","","","","","html-keyboard-response","139","263624","0.0-15.0-0.0-0.3","4w9dvjznm8","","4w9dvjznm8","""2024-11-13T17:30:09.056Z""","null","+","null","","","","","","",""
"","","","","","image-keyboard-response","140","264540","0.0-15.0-0.0-1.3","4w9dvjznm8","","4w9dvjznm8","""2024-11-13T17:30:09.056Z""","908","materials/imgs/D51.png","arrowleft","","[""materials/imgs/D18.png"",""materials/imgs/D80.png""]","false","random","","",""
"","","","","","html-keyboard-response","141","265042","0.0-15.0-0.0-0.4","4w9dvjznm8","","4w9dvjznm8","""2024-11-13T17:30:09.056Z""","null","+","null","","","","","","",""
"","","","","","image-keyboard-response","142","265675","0.0-15.0-0.0-1.4","4w9dvjznm8","","4w9dvjznm8","""2024-11-13T17:30:09.056Z""","631","materials/imgs/D32.png","arrowleft","","[""materials/imgs/D77.png"",""materials/imgs/D56.png""]","false","random","","",""
"","","","","","html-keyboard-response","143","266177","0.0-15.0-0.0-0.5","4w9dvjznm8","","4w9dvjznm8","""2024-11-13T17:30:09.056Z""","null","+","null","","","","","","",""
"","","","","","image-keyboard-response","144","267035","0.0-15.0-0.0-1.5","4w9dvjznm8","","4w9dvjznm8","""2024-11-13T17:30:09.056Z""","858","materials/imgs/D96.png","arrowleft","","[""materials/imgs/D83.png"",""materials/imgs/D76.png""]","false","random","","",""
"","","","","","html-keyboard-response","145","267538","0.0-15.0-0.0-0.6","4w9dvjznm8","","4w9dvjznm8","""2024-11-13T17:30:09.056Z""","null","+","null","","","","","","",""
"","","","","","image-keyboard-response","146","268359","0.0-15.0-0.0-1.6","4w9dvjznm8","","4w9dvjznm8","""2024-11-13T17:30:09.056Z""","816","materials/imgs/D20.png","arrowright","","[""materials/imgs/D36.png"",""materials/imgs/D18.png""]","false","random","","",""
"","","","","","html-keyboard-response","147","268862","0.0-15.0-1.0-0.0","4w9dvjznm8","","4w9dvjznm8","""2024-11-13T17:30:09.056Z""","null","+","null","","","","","","",""
"","","","","","image-keyboard-response","148","269600","0.0-15.0-1.0-1.0","4w9dvjznm8","","4w9dvjznm8","""2024-11-13T17:30:09.056Z""","737","materials/imgs/D53.png","arrowright","","[""materials/imgs/D64.png"",""materials/imgs/D53.png""]","","check","materials/imgs/D53.png","1","true"
"","","","","","html-keyboard-response","149","270102","0.0-15.0-2.0-0.0","4w9dvjznm8","","4w9dvjznm8","""2024-11-13T17:30:09.056Z""","null","+","null","","","","","","",""
"","","","","","image-keyboard-response","150","271123","0.0-15.0-2.0-1.0","4w9dvjznm8","","4w9dvjznm8","""2024-11-13T17:30:09.056Z""","1018","materials/imgs/D83.png","arrowright","","[""materials/imgs/D24.png"",""materials/imgs/D8.png""]","false","validation","","",""
"","","","","","html-keyboard-response","151","271625","0.0-15.0-2.0-0.1","4w9dvjznm8","","4w9dvjznm8","""2024-11-13T17:30:09.056Z""","null","+","null","","","","","","",""
"","","","","","image-keyboard-response","152","272639","0.0-15.0-2.0-1.1","4w9dvjznm8","","4w9dvjznm8","""2024-11-13T17:30:09.056Z""","1013","materials/imgs/D19.png","arrowleft","","[""materials/imgs/D111.png"",""materials/imgs/D56.png""]","false","validation","","",""
"","","","","","html-keyboard-response","153","273141","0.0-15.0-0.1-0.7","4w9dvjznm8","","4w9dvjznm8","""2024-11-13T17:30:09.056Z""","null","+","null","","","","","","",""
"","","","","","image-keyboard-response","154","274135","0.0-15.0-0.1-1.7","4w9dvjznm8","","4w9dvjznm8","""2024-11-13T17:30:09.056Z""","991","materials/imgs/D51.png","arrowright","","[""materials/imgs/D102.png"",""materials/imgs/D36.png""]","false","random","","",""
"","","","","","html-keyboard-response","155","274637","0.0-15.0-0.1-0.8","4w9dvjznm8","","4w9dvjznm8","""2024-11-13T17:30:09.056Z""","null","+","null","","","","","","",""
"","","","","","image-keyboard-response","156","275345","0.0-15.0-0.1-1.8","4w9dvjznm8","","4w9dvjznm8","""2024-11-13T17:30:09.056Z""","706","materials/imgs/D21.png","arrowleft","","[""materials/imgs/D68.png"",""materials/imgs/D48.png""]","false","random","","",""
"","","","","","html-keyboard-response","157","275847","0.0-15.0-0.1-0.9","4w9dvjznm8","","4w9dvjznm8","""2024-11-13T17:30:09.056Z""","null","+","null","","","","","","",""
"","","","","","image-keyboard-response","158","279070","0.0-15.0-0.1-1.9","4w9dvjznm8","","4w9dvjznm8","""2024-11-13T17:30:09.056Z""","3217","materials/imgs/D92.png","arrowright","","[""materials/imgs/D84.png"",""materials/imgs/D29.png""]","false","random","","",""
"","","","","","html-keyboard-response","159","279572","0.0-15.0-0.1-0.10","4w9dvjznm8","","4w9dvjznm8","""2024-11-13T17:30:09.056Z""","null","+","null","","","","","","",""
"","","","","","image-keyboard-response","160","280364","0.0-15.0-0.1-1.10","4w9dvjznm8","","4w9dvjznm8","""2024-11-13T17:30:09.056Z""","791","materials/imgs/D55.png","arrowright","","[""materials/imgs/D32.png"",""materials/imgs/D103.png""]","false","random","","",""
"","","","","","html-keyboard-response","161","280866","0.0-15.0-0.1-0.11","4w9dvjznm8","","4w9dvjznm8","""2024-11-13T17:30:09.056Z""","null","+","null","","","","","","",""
"","","","","","image-keyboard-response","162","281722","0.0-15.0-0.1-1.11","4w9dvjznm8","","4w9dvjznm8","""2024-11-13T17:30:09.056Z""","855","materials/imgs/D68.png","arrowright","","[""materials/imgs/D102.png"",""materials/imgs/D79.png""]","false","random","","",""
"","","","","","html-keyboard-response","163","282223","0.0-15.0-0.1-0.12","4w9dvjznm8","","4w9dvjznm8","""2024-11-13T17:30:09.056Z""","null","+","null","","","","","","",""
"","","","","","image-keyboard-response","164","283719","0.0-15.0-0.1-1.12","4w9dvjznm8","","4w9dvjznm8","""2024-11-13T17:30:09.056Z""","1494","materials/imgs/D6.png","arrowright","","[""materials/imgs/D74.png"",""materials/imgs/D34.png""]","false","random","","",""
"","","","","","html-keyboard-response","165","284220","0.0-15.0-0.1-0.13","4w9dvjznm8","","4w9dvjznm8","""2024-11-13T17:30:09.056Z""","null","+","null","","","","","","",""
"","","","","","image-keyboard-response","166","285801","0.0-15.0-0.1-1.13","4w9dvjznm8","","4w9dvjznm8","""2024-11-13T17:30:09.056Z""","1580","materials/imgs/D106.png","arrowright","","[""materials/imgs/D87.png"",""materials/imgs/D76.png""]","false","random","","",""
"","","","","","html-keyboard-response","167","286303","0.0-15.0-1.1-0.1","4w9dvjznm8","","4w9dvjznm8","""2024-11-13T17:30:09.056Z""","null","+","null","","","","","","",""
"","","","","","image-keyboard-response","168","287184","0.0-15.0-1.1-1.1","4w9dvjznm8","","4w9dvjznm8","""2024-11-13T17:30:09.056Z""","879","materials/imgs/D46.png","arrowleft","","[""materials/imgs/D46.png"",""materials/imgs/D26.png""]","","check","materials/imgs/D46.png","0","true"
"","","","","","html-keyboard-response","169","287686","0.0-15.0-2.1-0.2","4w9dvjznm8","","4w9dvjznm8","""2024-11-13T17:30:09.056Z""","null","+","null","","","","","","",""
"","","","","","image-keyboard-response","170","289102","0.0-15.0-2.1-1.2","4w9dvjznm8","","4w9dvjznm8","""2024-11-13T17:30:09.056Z""","1414","materials/imgs/D3.png","arrowleft","","[""materials/imgs/D79.png"",""materials/imgs/D48.png""]","false","validation","","",""
"","","","","","html-keyboard-response","171","289604","0.0-15.0-2.1-0.3","4w9dvjznm8","","4w9dvjznm8","""2024-11-13T17:30:09.056Z""","null","+","null","","","","","","",""
"","","","","","image-keyboard-response","172","291196","0.0-15.0-2.1-1.3","4w9dvjznm8","","4w9dvjznm8","""2024-11-13T17:30:09.056Z""","1591","materials/imgs/D51.png","arrowright","","[""materials/imgs/D92.png"",""materials/imgs/D20.png""]","false","validation","","",""
"","","","","","html-keyboard-response","173","291698","0.0-15.0-0.2-0.14","4w9dvjznm8","","4w9dvjznm8","""2024-11-13T17:30:09.056Z""","null","+","null","","","","","","",""
"","","","","","image-keyboard-response","174","295579","0.0-15.0-0.2-1.14","4w9dvjznm8","","4w9dvjznm8","""2024-11-13T17:30:09.056Z""","3880","materials/imgs/D17.png","arrowright","","[""materials/imgs/D52.png"",""materials/imgs/D36.png""]","false","random","","",""
"","","","","","html-keyboard-response","175","296081","0.0-15.0-0.2-0.15","4w9dvjznm8","","4w9dvjznm8","""2024-11-13T17:30:09.056Z""","null","+","null","","","","","","",""
"","","","","","image-keyboard-response","176","297164","0.0-15.0-0.2-1.15","4w9dvjznm8","","4w9dvjznm8","""2024-11-13T17:30:09.056Z""","1081","materials/imgs/D92.png","arrowleft","","[""materials/imgs/D52.png"",""materials/imgs/D55.png""]","false","random","","",""
"","","","","","html-keyboard-response","177","297665","0.0-15.0-0.2-0.16","4w9dvjznm8","","4w9dvjznm8","""2024-11-13T17:30:09.056Z""","null","+","null","","","","","","",""
"","","","","","image-keyboard-response","178","299911","0.0-15.0-0.2-1.16","4w9dvjznm8","","4w9dvjznm8","""2024-11-13T17:30:09.056Z""","2244","materials/imgs/D74.png","arrowleft","","[""materials/imgs/D101.png"",""materials/imgs/D6.png""]","false","random","","",""
"","","","","","html-keyboard-response","179","300413","0.0-15.0-0.2-0.17","4w9dvjznm8","","4w9dvjznm8","""2024-11-13T17:30:09.056Z""","null","+","null","","","","","","",""
"","","","","","image-keyboard-response","180","301190","0.0-15.0-0.2-1.17","4w9dvjznm8","","4w9dvjznm8","""2024-11-13T17:30:09.056Z""","775","materials/imgs/D84.png","arrowright","","[""materials/imgs/D57.png"",""materials/imgs/D14.png""]","false","random","","",""
"","","","","","html-keyboard-response","181","301692","0.0-15.0-0.2-0.18","4w9dvjznm8","","4w9dvjznm8","""2024-11-13T17:30:09.056Z""","null","+","null","","","","","","",""
"","","","","","image-keyboard-response","182","303419","0.0-15.0-0.2-1.18","4w9dvjznm8","","4w9dvjznm8","""2024-11-13T17:30:09.056Z""","1726","materials/imgs/D6.png","arrowleft","","[""materials/imgs/D87.png"",""materials/imgs/D18.png""]","false","random","","",""
"","","","","","html-keyboard-response","183","303921","0.0-15.0-0.2-0.19","4w9dvjznm8","","4w9dvjznm8","""2024-11-13T17:30:09.056Z""","null","+","null","","","","","","",""
"","","","","","image-keyboard-response","184","305292","0.0-15.0-0.2-1.19","4w9dvjznm8","","4w9dvjznm8","""2024-11-13T17:30:09.056Z""","1369","materials/imgs/D65.png","arrowright","","[""materials/imgs/D25.png"",""materials/imgs/D85.png""]","false","random","","",""
"","","","","","html-keyboard-response","185","305794","0.0-15.0-0.2-0.20","4w9dvjznm8","","4w9dvjznm8","""2024-11-13T17:30:09.056Z""","null","+","null","","","","","","",""
"","","","","","image-keyboard-response","186","307620","0.0-15.0-0.2-1.20","4w9dvjznm8","","4w9dvjznm8","""2024-11-13T17:30:09.056Z""","1825","materials/imgs/D94.png","arrowright","","[""materials/imgs/D14.png"",""materials/imgs/D35.png""]","false","random","","",""
"","","","","","html-keyboard-response","187","308122","0.0-15.0-1.2-0.2","4w9dvjznm8","","4w9dvjznm8","""2024-11-13T17:30:09.056Z""","null","+","null","","","","","","",""
"","","","","","image-keyboard-response","188","309061","0.0-15.0-1.2-1.2","4w9dvjznm8","","4w9dvjznm8","""2024-11-13T17:30:09.056Z""","937","materials/imgs/D78.png","arrowright","","[""materials/imgs/D76.png"",""materials/imgs/D78.png""]","","check","materials/imgs/D78.png","1","true"
"","","","","","html-keyboard-response","189","309563","0.0-15.0-2.2-0.4","4w9dvjznm8","","4w9dvjznm8","""2024-11-13T17:30:09.056Z""","null","+","null","","","","","","",""
"","","","","","image-keyboard-response","190","310673","0.0-15.0-2.2-1.4","4w9dvjznm8","","4w9dvjznm8","""2024-11-13T17:30:09.056Z""","1109","materials/imgs/D95.png","arrowright","","[""materials/imgs/D36.png"",""materials/imgs/D4.png""]","false","validation","","",""
"","","","","","html-keyboard-response","191","311175","0.0-15.0-2.2-0.5","4w9dvjznm8","","4w9dvjznm8","""2024-11-13T17:30:09.056Z""","null","+","null","","","","","","",""
"","","","","","image-keyboard-response","192","312371","0.0-15.0-2.2-1.5","4w9dvjznm8","","4w9dvjznm8","""2024-11-13T17:30:09.056Z""","1194","materials/imgs/D1.png","arrowleft","","[""materials/imgs/D57.png"",""materials/imgs/D76.png""]","false","validation","","",""
"","","","","","html-keyboard-response","193","312873","0.0-15.0-0.3-0.21","4w9dvjznm8","","4w9dvjznm8","""2024-11-13T17:30:09.056Z""","null","+","null","","","","","","",""
"","","","","","image-keyboard-response","194","313748","0.0-15.0-0.3-1.21","4w9dvjznm8","","4w9dvjznm8","""2024-11-13T17:30:09.056Z""","874","materials/imgs/D21.png","arrowright","","[""materials/imgs/D26.png"",""materials/imgs/D20.png""]","false","random","","",""
"","","","","","html-keyboard-response","195","314250","0.0-15.0-0.3-0.22","4w9dvjznm8","","4w9dvjznm8","""2024-11-13T17:30:09.056Z""","null","+","null","","","","","","",""
"","","","","","image-keyboard-response","196","316414","0.0-15.0-0.3-1.22","4w9dvjznm8","","4w9dvjznm8","""2024-11-13T17:30:09.056Z""","2163","materials/imgs/D21.png","arrowleft","","[""materials/imgs/D20.png"",""materials/imgs/D66.png""]","false","random","","",""
"","","","","","html-keyboard-response","197","316916","0.0-15.0-0.3-0.23","4w9dvjznm8","","4w9dvjznm8","""2024-11-13T17:30:09.056Z""","null","+","null","","","","","","",""
"","","","","","image-keyboard-response","198","318063","0.0-15.0-0.3-1.23","4w9dvjznm8","","4w9dvjznm8","""2024-11-13T17:30:09.056Z""","1145","materials/imgs/D18.png","arrowright","","[""materials/imgs/D14.png"",""materials/imgs/D9.png""]","false","random","","",""
"","","","","","html-keyboard-response","199","318565","0.0-15.0-0.3-0.24","4w9dvjznm8","","4w9dvjznm8","""2024-11-13T17:30:09.056Z""","null","+","null","","","","","","",""
"","","","","","image-keyboard-response","200","319657","0.0-15.0-0.3-1.24","4w9dvjznm8","","4w9dvjznm8","""2024-11-13T17:30:09.056Z""","1090","materials/imgs/D111.png","arrowleft","","[""materials/imgs/D75.png"",""materials/imgs/D14.png""]","false","random","","",""
"","","","","","html-keyboard-response","201","320158","0.0-15.0-0.3-0.25","4w9dvjznm8","","4w9dvjznm8","""2024-11-13T17:30:09.056Z""","null","+","null","","","","","","",""
"","","","","","image-keyboard-response","202","321472","0.0-15.0-0.3-1.25","4w9dvjznm8","","4w9dvjznm8","""2024-11-13T17:30:09.056Z""","1312","materials/imgs/D47.png","arrowleft","","[""materials/imgs/D64.png"",""materials/imgs/D25.png""]","false","random","","",""
"","","","","","html-keyboard-response","203","321974","0.0-15.0-0.3-0.26","4w9dvjznm8","","4w9dvjznm8","""2024-11-13T17:30:09.056Z""","null","+","null","","","","","","",""
"","","","","","image-keyboard-response","204","322644","0.0-15.0-0.3-1.26","4w9dvjznm8","","4w9dvjznm8","""2024-11-13T17:30:09.056Z""","668","materials/imgs/D82.png","arrowright","","[""materials/imgs/D101.png"",""materials/imgs/D9.png""]","false","random","","",""
"","","","","","html-keyboard-response","205","323146","0.0-15.0-0.3-0.27","4w9dvjznm8","","4w9dvjznm8","""2024-11-13T17:30:09.056Z""","null","+","null","","","","","","",""
"","","","","","image-keyboard-response","206","323904","0.0-15.0-0.3-1.27","4w9dvjznm8","","4w9dvjznm8","""2024-11-13T17:30:09.056Z""","757","materials/imgs/D24.png","arrowright","","[""materials/imgs/D56.png"",""materials/imgs/D76.png""]","false","random","","",""
"","","","","","html-keyboard-response","207","324406","0.0-15.0-1.3-0.3","4w9dvjznm8","","4w9dvjznm8","""2024-11-13T17:30:09.056Z""","null","+","null","","","","","","",""
"","","","","","image-keyboard-response","208","325070","0.0-15.0-1.3-1.3","4w9dvjznm8","","4w9dvjznm8","""2024-11-13T17:30:09.056Z""","663","materials/imgs/D101.png","arrowright","","[""materials/imgs/D106.png"",""materials/imgs/D101.png""]","","check","materials/imgs/D101.png","1","true"
"","","","","","html-keyboard-response","209","325572","0.0-15.0-2.3-0.6","4w9dvjznm8","","4w9dvjznm8","""2024-11-13T17:30:09.056Z""","null","+","null","","","","","","",""
"","","","","","image-keyboard-response","210","326474","0.0-15.0-2.3-1.6","4w9dvjznm8","","4w9dvjznm8","""2024-11-13T17:30:09.056Z""","900","materials/imgs/D82.png","arrowleft","","[""materials/imgs/D83.png"",""materials/imgs/D22.png""]","false","validation","","",""
"","","","","","html-keyboard-response","211","326975","0.0-15.0-2.3-0.7","4w9dvjznm8","","4w9dvjznm8","""2024-11-13T17:30:09.056Z""","null","+","null","","","","","","",""
"","","","","","image-keyboard-response","212","329184","0.0-15.0-2.3-1.7","4w9dvjznm8","","4w9dvjznm8","""2024-11-13T17:30:09.056Z""","2207","materials/imgs/D103.png","arrowleft","","[""materials/imgs/D76.png"",""materials/imgs/D106.png""]","false","validation","","",""
"","","","","","html-keyboard-response","213","329686","0.0-15.0-0.4-0.28","4w9dvjznm8","","4w9dvjznm8","""2024-11-13T17:30:09.056Z""","null","+","null","","","","","","",""
"","","","","","image-keyboard-response","214","331960","0.0-15.0-0.4-1.28","4w9dvjznm8","","4w9dvjznm8","""2024-11-13T17:30:09.056Z""","2272","materials/imgs/D65.png","arrowleft","","[""materials/imgs/D78.png"",""materials/imgs/D77.png""]","false","random","","",""
"","","","","","html-keyboard-response","215","332462","0.0-15.0-0.4-0.29","4w9dvjznm8","","4w9dvjznm8","""2024-11-13T17:30:09.056Z""","null","+","null","","","","","","",""
"","","","","","image-keyboard-response","216","333106","0.0-15.0-0.4-1.29","4w9dvjznm8","","4w9dvjznm8","""2024-11-13T17:30:09.056Z""","642","materials/imgs/D36.png","arrowright","","[""materials/imgs/D96.png"",""materials/imgs/D22.png""]","false","random","","",""
"","","","","","html-keyboard-response","217","333608","0.0-15.0-0.4-0.30","4w9dvjznm8","","4w9dvjznm8","""2024-11-13T17:30:09.056Z""","null","+","null","","","","","","",""
"","","","","","image-keyboard-response","218","334607","0.0-15.0-0.4-1.30","4w9dvjznm8","","4w9dvjznm8","""2024-11-13T17:30:09.056Z""","998","materials/imgs/D66.png","arrowright","","[""materials/imgs/D4.png"",""materials/imgs/D74.png""]","false","random","","",""
"","","","","","html-keyboard-response","219","335108","0.0-15.0-0.4-0.31","4w9dvjznm8","","4w9dvjznm8","""2024-11-13T17:30:09.056Z""","null","+","null","","","","","","",""
"","","","","","image-keyboard-response","220","337401","0.0-15.0-0.4-1.31","4w9dvjznm8","","4w9dvjznm8","""2024-11-13T17:30:09.056Z""","2291","materials/imgs/D104.png","arrowright","","[""materials/imgs/D6.png"",""materials/imgs/D14.png""]","false","random","","",""
"","","","","","html-keyboard-response","221","337903","0.0-15.0-0.4-0.32","4w9dvjznm8","","4w9dvjznm8","""2024-11-13T17:30:09.056Z""","null","+","null","","","","","","",""
"","","","","","image-keyboard-response","222","339031","0.0-15.0-0.4-1.32","4w9dvjznm8","","4w9dvjznm8","""2024-11-13T17:30:09.056Z""","1126","materials/imgs/D68.png","arrowleft","","[""materials/imgs/D14.png"",""materials/imgs/D104.png""]","false","random","","",""
"","","","","","html-keyboard-response","223","339533","0.0-15.0-0.4-0.33","4w9dvjznm8","","4w9dvjznm8","""2024-11-13T17:30:09.056Z""","null","+","null","","","","","","",""
"","","","","","image-keyboard-response","224","340359","0.0-15.0-0.4-1.33","4w9dvjznm8","","4w9dvjznm8","""2024-11-13T17:30:09.056Z""","825","materials/imgs/D46.png","arrowright","","[""materials/imgs/D25.png"",""materials/imgs/D94.png""]","false","random","","",""
"","","","","","html-keyboard-response","225","340861","0.0-15.0-0.4-0.34","4w9dvjznm8","","4w9dvjznm8","""2024-11-13T17:30:09.056Z""","null","+","null","","","","","","",""
"","","","","","image-keyboard-response","226","342070","0.0-15.0-0.4-1.34","4w9dvjznm8","","4w9dvjznm8","""2024-11-13T17:30:09.056Z""","1208","materials/imgs/D9.png","arrowleft","","[""materials/imgs/D103.png"",""materials/imgs/D106.png""]","false","random","","",""
"","","","","","html-keyboard-response","227","342572","0.0-15.0-1.4-0.4","4w9dvjznm8","","4w9dvjznm8","""2024-11-13T17:30:09.056Z""","null","+","null","","","","","","",""
"","","","","","image-keyboard-response","228","343130","0.0-15.0-1.4-1.4","4w9dvjznm8","","4w9dvjznm8","""2024-11-13T17:30:09.056Z""","557","materials/imgs/D64.png","arrowleft","","[""materials/imgs/D64.png"",""materials/imgs/D53.png""]","","check","materials/imgs/D64.png","0","true"
"","","","","","html-keyboard-response","229","343632","0.0-15.0-2.4-0.8","4w9dvjznm8","","4w9dvjznm8","""2024-11-13T17:30:09.056Z""","null","+","null","","","","","","",""
"","","","","","image-keyboard-response","230","344291","0.0-15.0-2.4-1.8","4w9dvjznm8","","4w9dvjznm8","""2024-11-13T17:30:09.056Z""","658","materials/imgs/D105.png","arrowleft","","[""materials/imgs/D106.png"",""materials/imgs/D52.png""]","false","validation","","",""
"","","","","","html-keyboard-response","231","344793","0.0-15.0-2.4-0.9","4w9dvjznm8","","4w9dvjznm8","""2024-11-13T17:30:09.056Z""","null","+","null","","","","","","",""
"","","","","","image-keyboard-response","232","345389","0.0-15.0-2.4-1.9","4w9dvjznm8","","4w9dvjznm8","""2024-11-13T17:30:09.056Z""","594","materials/imgs/D53.png","arrowleft","","[""materials/imgs/D77.png"",""materials/imgs/D75.png""]","false","validation","","",""
"","","","","","html-button-response","233","347185","0.0-16.0","4w9dvjznm8","","4w9dvjznm8","""2024-11-13T17:30:09.056Z""","1795","You have completed 50% of the trials. Please click 'Continue' when you are ready proceed.","0","","","","","","",""
"","","","","","html-keyboard-response","234","347686","0.0-17.0-0.0-0.0","4w9dvjznm8","","4w9dvjznm8","""2024-11-13T17:30:09.056Z""","null","+","null","","","","","","",""
"","","","","","image-keyboard-response","235","348447","0.0-17.0-0.0-1.0","4w9dvjznm8","","4w9dvjznm8","""2024-11-13T17:30:09.056Z""","760","materials/imgs/D8.png","arrowright","","[""materials/imgs/D104.png"",""materials/imgs/D102.png""]","false","random","","",""
"","","","","","html-keyboard-response","236","348949","0.0-17.0-0.0-0.1","4w9dvjznm8","","4w9dvjznm8","""2024-11-13T17:30:09.056Z""","null","+","null","","","","","","",""
"","","","","","image-keyboard-response","237","349794","0.0-17.0-0.0-1.1","4w9dvjznm8","","4w9dvjznm8","""2024-11-13T17:30:09.056Z""","844","materials/imgs/D1.png","arrowright","","[""materials/imgs/D6.png"",""materials/imgs/D53.png""]","false","random","","",""
"","","","","","html-keyboard-response","238","350296","0.0-17.0-0.0-0.2","4w9dvjznm8","","4w9dvjznm8","""2024-11-13T17:30:09.056Z""","null","+","null","","","","","","",""
"","","","","","image-keyboard-response","239","351929","0.0-17.0-0.0-1.2","4w9dvjznm8","","4w9dvjznm8","""2024-11-13T17:30:09.056Z""","1631","materials/imgs/D1.png","arrowleft","","[""materials/imgs/D49.png"",""materials/imgs/D29.png""]","false","random","","",""
"","","","","","html-keyboard-response","240","352431","0.0-17.0-0.0-0.3","4w9dvjznm8","","4w9dvjznm8","""2024-11-13T17:30:09.056Z""","null","+","null","","","","","","",""
"","","","","","image-keyboard-response","241","354367","0.0-17.0-0.0-1.3","4w9dvjznm8","","4w9dvjznm8","""2024-11-13T17:30:09.056Z""","1935","materials/imgs/D56.png","arrowright","","[""materials/imgs/D101.png"",""materials/imgs/D65.png""]","false","random","","",""
"","","","","","html-keyboard-response","242","354869","0.0-17.0-0.0-0.4","4w9dvjznm8","","4w9dvjznm8","""2024-11-13T17:30:09.056Z""","null","+","null","","","","","","",""
"","","","","","image-keyboard-response","243","355963","0.0-17.0-0.0-1.4","4w9dvjznm8","","4w9dvjznm8","""2024-11-13T17:30:09.056Z""","1090","materials/imgs/D48.png","arrowright","","[""materials/imgs/D24.png"",""materials/imgs/D66.png""]","false","random","","",""
"","","","","","html-keyboard-response","244","356465","0.0-17.0-0.0-0.5","4w9dvjznm8","","4w9dvjznm8","""2024-11-13T17:30:09.056Z""","null","+","null","","","","","","",""
"","","","","","image-keyboard-response","245","357902","0.0-17.0-0.0-1.5","4w9dvjznm8","","4w9dvjznm8","""2024-11-13T17:30:09.056Z""","1434","materials/imgs/D24.png","arrowright","","[""materials/imgs/D66.png"",""materials/imgs/D49.png""]","false","random","","",""
"","","","","","html-keyboard-response","246","358404","0.0-17.0-0.0-0.6","4w9dvjznm8","","4w9dvjznm8","""2024-11-13T17:30:09.056Z""","null","+","null","","","","","","",""
"","","","","","image-keyboard-response","247","360868","0.0-17.0-0.0-1.6","4w9dvjznm8","","4w9dvjznm8","""2024-11-13T17:30:09.056Z""","2462","materials/imgs/D105.png","arrowright","","[""materials/imgs/D65.png"",""materials/imgs/D1.png""]","false","random","","",""
"","","","","","html-keyboard-response","248","361370","0.0-17.0-1.0-0.0","4w9dvjznm8","","4w9dvjznm8","""2024-11-13T17:30:09.056Z""","null","+","null","","","","","","",""
"","","","","","image-keyboard-response","249","361957","0.0-17.0-1.0-1.0","4w9dvjznm8","","4w9dvjznm8","""2024-11-13T17:30:09.056Z""","586","materials/imgs/D106.png","arrowleft","","[""materials/imgs/D106.png"",""materials/imgs/D101.png""]","","check","materials/imgs/D106.png","0","true"
"","","","","","html-keyboard-response","250","362460","0.0-17.0-2.0-0.0","4w9dvjznm8","","4w9dvjznm8","""2024-11-13T17:30:09.056Z""","null","+","null","","","","","","",""
"","","","","","image-keyboard-response","251","363996","0.0-17.0-2.0-1.0","4w9dvjznm8","","4w9dvjznm8","""2024-11-13T17:30:09.056Z""","1535","materials/imgs/D66.png","arrowright","","[""materials/imgs/D85.png"",""materials/imgs/D25.png""]","false","validation","","",""
"","","","","","html-keyboard-response","252","364498","0.0-17.0-2.0-0.1","4w9dvjznm8","","4w9dvjznm8","""2024-11-13T17:30:09.056Z""","null","+","null","","","","","","",""
"","","","","","image-keyboard-response","253","366929","0.0-17.0-2.0-1.1","4w9dvjznm8","","4w9dvjznm8","""2024-11-13T17:30:09.056Z""","2430","materials/imgs/D81.png","arrowright","","[""materials/imgs/D105.png"",""materials/imgs/D24.png""]","false","validation","","",""
"","","","","","html-keyboard-response","254","367431","0.0-17.0-0.1-0.7","4w9dvjznm8","","4w9dvjznm8","""2024-11-13T17:30:09.056Z""","null","+","null","","","","","","",""
"","","","","","image-keyboard-response","255","370002","0.0-17.0-0.1-1.7","4w9dvjznm8","","4w9dvjznm8","""2024-11-13T17:30:09.056Z""","2569","materials/imgs/D8.png","arrowright","","[""materials/imgs/D37.png"",""materials/imgs/D47.png""]","false","random","","",""
"","","","","","html-keyboard-response","256","370504","0.0-17.0-0.1-0.8","4w9dvjznm8","","4w9dvjznm8","""2024-11-13T17:30:09.056Z""","null","+","null","","","","","","",""
"","","","","","image-keyboard-response","257","371380","0.0-17.0-0.1-1.8","4w9dvjznm8","","4w9dvjznm8","""2024-11-13T17:30:09.056Z""","874","materials/imgs/D51.png","arrowleft","","[""materials/imgs/D95.png"",""materials/imgs/D19.png""]","false","random","","",""
"","","","","","html-keyboard-response","258","371882","0.0-17.0-0.1-0.9","4w9dvjznm8","","4w9dvjznm8","""2024-11-13T17:30:09.056Z""","null","+","null","","","","","","",""
"","","","","","image-keyboard-response","259","373220","0.0-17.0-0.1-1.9","4w9dvjznm8","","4w9dvjznm8","""2024-11-13T17:30:09.056Z""","1336","materials/imgs/D76.png","arrowleft","","[""materials/imgs/D52.png"",""materials/imgs/D94.png""]","false","random","","",""
"","","","","","html-keyboard-response","260","373722","0.0-17.0-0.1-0.10","4w9dvjznm8","","4w9dvjznm8","""2024-11-13T17:30:09.056Z""","null","+","null","","","","","","",""
"","","","","","image-keyboard-response","261","374745","0.0-17.0-0.1-1.10","4w9dvjznm8","","4w9dvjznm8","""2024-11-13T17:30:09.056Z""","1022","materials/imgs/D82.png","arrowleft","","[""materials/imgs/D4.png"",""materials/imgs/D75.png""]","false","random","","",""
"","","","","","html-keyboard-response","262","375247","0.0-17.0-0.1-0.11","4w9dvjznm8","","4w9dvjznm8","""2024-11-13T17:30:09.056Z""","null","+","null","","","","","","",""
"","","","","","image-keyboard-response","263","377215","0.0-17.0-0.1-1.11","4w9dvjznm8","","4w9dvjznm8","""2024-11-13T17:30:09.056Z""","1967","materials/imgs/D52.png","arrowright","","[""materials/imgs/D101.png"",""materials/imgs/D1.png""]","false","random","","",""
"","","","","","html-keyboard-response","264","377717","0.0-17.0-0.1-0.12","4w9dvjznm8","","4w9dvjznm8","""2024-11-13T17:30:09.056Z""","null","+","null","","","","","","",""
"","","","","","image-keyboard-response","265","378378","0.0-17.0-0.1-1.12","4w9dvjznm8","","4w9dvjznm8","""2024-11-13T17:30:09.056Z""","659","materials/imgs/D92.png","arrowright","","[""materials/imgs/D25.png"",""materials/imgs/D24.png""]","false","random","","",""
"","","","","","html-keyboard-response","266","378880","0.0-17.0-0.1-0.13","4w9dvjznm8","","4w9dvjznm8","""2024-11-13T17:30:09.056Z""","null","+","null","","","","","","",""
"","","","","","image-keyboard-response","267","379894","0.0-17.0-0.1-1.13","4w9dvjznm8","","4w9dvjznm8","""2024-11-13T17:30:09.056Z""","1012","materials/imgs/D8.png","arrowright","","[""materials/imgs/D105.png"",""materials/imgs/D65.png""]","false","random","","",""
"","","","","","html-keyboard-response","268","380396","0.0-17.0-1.1-0.1","4w9dvjznm8","","4w9dvjznm8","""2024-11-13T17:30:09.056Z""","null","+","null","","","","","","",""
"","","","","","image-keyboard-response","269","381064","0.0-17.0-1.1-1.1","4w9dvjznm8","","4w9dvjznm8","""2024-11-13T17:30:09.056Z""","667","materials/imgs/D18.png","arrowright","","[""materials/imgs/D8.png"",""materials/imgs/D18.png""]","","check","materials/imgs/D18.png","1","true"
"","","","","","html-keyboard-response","270","381566","0.0-17.0-2.1-0.2","4w9dvjznm8","","4w9dvjznm8","""2024-11-13T17:30:09.056Z""","null","+","null","","","","","","",""
"","","","","","image-keyboard-response","271","382705","0.0-17.0-2.1-1.2","4w9dvjznm8","","4w9dvjznm8","""2024-11-13T17:30:09.056Z""","1137","materials/imgs/D37.png","arrowright","","[""materials/imgs/D84.png"",""materials/imgs/D111.png""]","false","validation","","",""
"","","","","","html-keyboard-response","272","383206","0.0-17.0-2.1-0.3","4w9dvjznm8","","4w9dvjznm8","""2024-11-13T17:30:09.056Z""","null","+","null","","","","","","",""
"","","","","","image-keyboard-response","273","384181","0.0-17.0-2.1-1.3","4w9dvjznm8","","4w9dvjznm8","""2024-11-13T17:30:09.056Z""","974","materials/imgs/D18.png","arrowleft","","[""materials/imgs/D32.png"",""materials/imgs/D57.png""]","false","validation","","",""
"","","","","","html-keyboard-response","274","384683","0.0-17.0-0.2-0.14","4w9dvjznm8","","4w9dvjznm8","""2024-11-13T17:30:09.056Z""","null","+","null","","","","","","",""
"","","","","","image-keyboard-response","275","389362","0.0-17.0-0.2-1.14","4w9dvjznm8","","4w9dvjznm8","""2024-11-13T17:30:09.056Z""","4678","materials/imgs/D48.png","arrowleft","","[""materials/imgs/D6.png"",""materials/imgs/D81.png""]","false","random","","",""
"","","","","","html-keyboard-response","276","389864","0.0-17.0-0.2-0.15","4w9dvjznm8","","4w9dvjznm8","""2024-11-13T17:30:09.056Z""","null","+","null","","","","","","",""
"","","","","","image-keyboard-response","277","391070","0.0-17.0-0.2-1.15","4w9dvjznm8","","4w9dvjznm8","""2024-11-13T17:30:09.056Z""","1205","materials/imgs/D19.png","arrowleft","","[""materials/imgs/D3.png"",""materials/imgs/D51.png""]","false","random","","",""
"","","","","","html-keyboard-response","278","391571","0.0-17.0-0.2-0.16","4w9dvjznm8","","4w9dvjznm8","""2024-11-13T17:30:09.056Z""","null","+","null","","","","","","",""
"","","","","","image-keyboard-response","279","392772","0.0-17.0-0.2-1.16","4w9dvjznm8","","4w9dvjznm8","""2024-11-13T17:30:09.056Z""","1199","materials/imgs/D68.png","arrowleft","","[""materials/imgs/D78.png"",""materials/imgs/D103.png""]","false","random","","",""
"","","","","","html-keyboard-response","280","393274","0.0-17.0-0.2-0.17","4w9dvjznm8","","4w9dvjznm8","""2024-11-13T17:30:09.056Z""","null","+","null","","","","","","",""
"","","","","","image-keyboard-response","281","393909","0.0-17.0-0.2-1.17","4w9dvjznm8","","4w9dvjznm8","""2024-11-13T17:30:09.056Z""","634","materials/imgs/D64.png","arrowright","","[""materials/imgs/D14.png"",""materials/imgs/D46.png""]","false","random","","",""
"","","","","","html-keyboard-response","282","394411","0.0-17.0-0.2-0.18","4w9dvjznm8","","4w9dvjznm8","""2024-11-13T17:30:09.056Z""","null","+","null","","","","","","",""
"","","","","","image-keyboard-response","283","395484","0.0-17.0-0.2-1.18","4w9dvjznm8","","4w9dvjznm8","""2024-11-13T17:30:09.056Z""","1072","materials/imgs/D32.png","arrowright","","[""materials/imgs/D48.png"",""materials/imgs/D25.png""]","false","random","","",""
"","","","","","html-keyboard-response","284","395986","0.0-17.0-0.2-0.19","4w9dvjznm8","","4w9dvjznm8","""2024-11-13T17:30:09.056Z""","null","+","null","","","","","","",""
"","","","","","image-keyboard-response","285","399433","0.0-17.0-0.2-1.19","4w9dvjznm8","","4w9dvjznm8","""2024-11-13T17:30:09.056Z""","3446","materials/imgs/D8.png","arrowleft","","[""materials/imgs/D104.png"",""materials/imgs/D55.png""]","false","random","","",""
"","","","","","html-keyboard-response","286","399935","0.0-17.0-0.2-0.20","4w9dvjznm8","","4w9dvjznm8","""2024-11-13T17:30:09.056Z""","null","+","null","","","","","","",""
"","","","","","image-keyboard-response","287","401078","0.0-17.0-0.2-1.20","4w9dvjznm8","","4w9dvjznm8","""2024-11-13T17:30:09.056Z""","1141","materials/imgs/D94.png","arrowright","","[""materials/imgs/D106.png"",""materials/imgs/D78.png""]","false","random","","",""
"","","","","","html-keyboard-response","288","401580","0.0-17.0-1.2-0.2","4w9dvjznm8","","4w9dvjznm8","""2024-11-13T17:30:09.056Z""","null","+","null","","","","","","",""
"","","","","","image-keyboard-response","289","402151","0.0-17.0-1.2-1.2","4w9dvjznm8","","4w9dvjznm8","""2024-11-13T17:30:09.056Z""","569","materials/imgs/D64.png","arrowleft","","[""materials/imgs/D64.png"",""materials/imgs/D53.png""]","","check","materials/imgs/D64.png","0","true"
"","","","","","html-keyboard-response","290","402652","0.0-17.0-2.2-0.4","4w9dvjznm8","","4w9dvjznm8","""2024-11-13T17:30:09.056Z""","null","+","null","","","","","","",""
"","","","","","image-keyboard-response","291","403682","0.0-17.0-2.2-1.4","4w9dvjznm8","","4w9dvjznm8","""2024-11-13T17:30:09.056Z""","1029","materials/imgs/D26.png","arrowright","","[""materials/imgs/D36.png"",""materials/imgs/D92.png""]","false","validation","","",""
"","","","","","html-keyboard-response","292","404183","0.0-17.0-2.2-0.5","4w9dvjznm8","","4w9dvjznm8","""2024-11-13T17:30:09.056Z""","null","+","null","","","","","","",""
"","","","","","image-keyboard-response","293","406066","0.0-17.0-2.2-1.5","4w9dvjznm8","","4w9dvjznm8","""2024-11-13T17:30:09.056Z""","1881","materials/imgs/D64.png","arrowright","","[""materials/imgs/D6.png"",""materials/imgs/D81.png""]","false","validation","","",""
"","","","","","html-keyboard-response","294","406568","0.0-17.0-0.3-0.21","4w9dvjznm8","","4w9dvjznm8","""2024-11-13T17:30:09.056Z""","null","+","null","","","","","","",""
"","","","","","image-keyboard-response","295","408857","0.0-17.0-0.3-1.21","4w9dvjznm8","","4w9dvjznm8","""2024-11-13T17:30:09.056Z""","2288","materials/imgs/D83.png","arrowleft","","[""materials/imgs/D84.png"",""materials/imgs/D14.png""]","false","random","","",""
"","","","","","html-keyboard-response","296","409359","0.0-17.0-0.3-0.22","4w9dvjznm8","","4w9dvjznm8","""2024-11-13T17:30:09.056Z""","null","+","null","","","","","","",""
"","","","","","image-keyboard-response","297","410727","0.0-17.0-0.3-1.22","4w9dvjznm8","","4w9dvjznm8","""2024-11-13T17:30:09.056Z""","1366","materials/imgs/D65.png","arrowleft","","[""materials/imgs/D9.png"",""materials/imgs/D75.png""]","false","random","","",""
"","","","","","html-keyboard-response","298","411229","0.0-17.0-0.3-0.23","4w9dvjznm8","","4w9dvjznm8","""2024-11-13T17:30:09.056Z""","null","+","null","","","","","","",""
"","","","","","image-keyboard-response","299","414045","0.0-17.0-0.3-1.23","4w9dvjznm8","","4w9dvjznm8","""2024-11-13T17:30:09.056Z""","2815","materials/imgs/D52.png","arrowleft","","[""materials/imgs/D64.png"",""materials/imgs/D75.png""]","false","random","","",""
"","","","","","html-keyboard-response","300","414547","0.0-17.0-0.3-0.24","4w9dvjznm8","","4w9dvjznm8","""2024-11-13T17:30:09.056Z""","null","+","null","","","","","","",""
"","","","","","image-keyboard-response","301","415836","0.0-17.0-0.3-1.24","4w9dvjznm8","","4w9dvjznm8","""2024-11-13T17:30:09.056Z""","1288","materials/imgs/D48.png","arrowleft","","[""materials/imgs/D16.png"",""materials/imgs/D76.png""]","false","random","","",""
"","","","","","html-keyboard-response","302","416338","0.0-17.0-0.3-0.25","4w9dvjznm8","","4w9dvjznm8","""2024-11-13T17:30:09.056Z""","null","+","null","","","","","","",""
"","","","","","image-keyboard-response","303","418043","0.0-17.0-0.3-1.25","4w9dvjznm8","","4w9dvjznm8","""2024-11-13T17:30:09.056Z""","1703","materials/imgs/D95.png","arrowright","","[""materials/imgs/D29.png"",""materials/imgs/D32.png""]","false","random","","",""
"","","","","","html-keyboard-response","304","418544","0.0-17.0-0.3-0.26","4w9dvjznm8","","4w9dvjznm8","""2024-11-13T17:30:09.056Z""","null","+","null","","","","","","",""
"","","","","","image-keyboard-response","305","420388","0.0-17.0-0.3-1.26","4w9dvjznm8","","4w9dvjznm8","""2024-11-13T17:30:09.056Z""","1843","materials/imgs/D96.png","arrowright","","[""materials/imgs/D35.png"",""materials/imgs/D79.png""]","false","random","","",""
"","","","","","html-keyboard-response","306","420890","0.0-17.0-0.3-0.27","4w9dvjznm8","","4w9dvjznm8","""2024-11-13T17:30:09.056Z""","null","+","null","","","","","","",""
"","","","","","image-keyboard-response","307","421828","0.0-17.0-0.3-1.27","4w9dvjznm8","","4w9dvjznm8","""2024-11-13T17:30:09.056Z""","936","materials/imgs/D20.png","arrowright","","[""materials/imgs/D18.png"",""materials/imgs/D25.png""]","false","random","","",""
"","","","","","html-keyboard-response","308","422330","0.0-17.0-1.3-0.3","4w9dvjznm8","","4w9dvjznm8","""2024-11-13T17:30:09.056Z""","null","+","null","","","","","","",""
"","","","","","image-keyboard-response","309","422966","0.0-17.0-1.3-1.3","4w9dvjznm8","","4w9dvjznm8","""2024-11-13T17:30:09.056Z""","635","materials/imgs/D106.png","arrowleft","","[""materials/imgs/D106.png"",""materials/imgs/D101.png""]","","check","materials/imgs/D106.png","0","true"
"","","","","","html-keyboard-response","310","423468","0.0-17.0-2.3-0.6","4w9dvjznm8","","4w9dvjznm8","""2024-11-13T17:30:09.056Z""","null","+","null","","","","","","",""
"","","","","","image-keyboard-response","311","424252","0.0-17.0-2.3-1.6","4w9dvjznm8","","4w9dvjznm8","""2024-11-13T17:30:09.056Z""","782","materials/imgs/D20.png","arrowleft","","[""materials/imgs/D84.png"",""materials/imgs/D85.png""]","false","validation","","",""
"","","","","","html-keyboard-response","312","424754","0.0-17.0-2.3-0.7","4w9dvjznm8","","4w9dvjznm8","""2024-11-13T17:30:09.056Z""","null","+","null","","","","","","",""
"","","","","","image-keyboard-response","313","425588","0.0-17.0-2.3-1.7","4w9dvjznm8","","4w9dvjznm8","""2024-11-13T17:30:09.056Z""","831","materials/imgs/D4.png","arrowleft","","[""materials/imgs/D52.png"",""materials/imgs/D83.png""]","false","validation","","",""
"","","","","","html-keyboard-response","314","426094","0.0-17.0-0.4-0.28","4w9dvjznm8","","4w9dvjznm8","""2024-11-13T17:30:09.056Z""","null","+","null","","","","","","",""
"","","","","","image-keyboard-response","315","427609","0.0-17.0-0.4-1.28","4w9dvjznm8","","4w9dvjznm8","""2024-11-13T17:30:09.056Z""","1513","materials/imgs/D21.png","arrowright","","[""materials/imgs/D85.png"",""materials/imgs/D16.png""]","false","random","","",""
"","","","","","html-keyboard-response","316","428111","0.0-17.0-0.4-0.29","4w9dvjznm8","","4w9dvjznm8","""2024-11-13T17:30:09.056Z""","null","+","null","","","","","","",""
"","","","","","image-keyboard-response","317","428657","0.0-17.0-0.4-1.29","4w9dvjznm8","","4w9dvjznm8","""2024-11-13T17:30:09.056Z""","545","materials/imgs/D9.png","arrowright","","[""materials/imgs/D20.png"",""materials/imgs/D92.png""]","false","random","","",""
"","","","","","html-keyboard-response","318","429159","0.0-17.0-0.4-0.30","4w9dvjznm8","","4w9dvjznm8","""2024-11-13T17:30:09.056Z""","null","+","null","","","","","","",""
"","","","","","image-keyboard-response","319","429855","0.0-17.0-0.4-1.30","4w9dvjznm8","","4w9dvjznm8","""2024-11-13T17:30:09.056Z""","695","materials/imgs/D79.png","arrowleft","","[""materials/imgs/D53.png"",""materials/imgs/D66.png""]","false","random","","",""
"","","","","","html-keyboard-response","320","430357","0.0-17.0-0.4-0.31","4w9dvjznm8","","4w9dvjznm8","""2024-11-13T17:30:09.056Z""","null","+","null","","","","","","",""
"","","","","","image-keyboard-response","321","431012","0.0-17.0-0.4-1.31","4w9dvjznm8","","4w9dvjznm8","""2024-11-13T17:30:09.056Z""","654","materials/imgs/D32.png","arrowright","","[""materials/imgs/D95.png"",""materials/imgs/D6.png""]","false","random","","",""
"","","","","","html-keyboard-response","322","431514","0.0-17.0-0.4-0.32","4w9dvjznm8","","4w9dvjznm8","""2024-11-13T17:30:09.056Z""","null","+","null","","","","","","",""
"","","","","","image-keyboard-response","323","434786","0.0-17.0-0.4-1.32","4w9dvjznm8","","4w9dvjznm8","""2024-11-13T17:30:09.056Z""","3269","materials/imgs/D94.png","arrowright","","[""materials/imgs/D3.png"",""materials/imgs/D17.png""]","false","random","","",""
"","","","","","html-keyboard-response","324","435288","0.0-17.0-0.4-0.33","4w9dvjznm8","","4w9dvjznm8","""2024-11-13T17:30:09.056Z""","null","+","null","","","","","","",""
"","","","","","image-keyboard-response","325","436398","0.0-17.0-0.4-1.33","4w9dvjznm8","","4w9dvjznm8","""2024-11-13T17:30:09.056Z""","1109","materials/imgs/D47.png","arrowright","","[""materials/imgs/D87.png"",""materials/imgs/D81.png""]","false","random","","",""
"","","","","","html-keyboard-response","326","436900","0.0-17.0-0.4-0.34","4w9dvjznm8","","4w9dvjznm8","""2024-11-13T17:30:09.056Z""","null","+","null","","","","","","",""
"","","","","","image-keyboard-response","327","437713","0.0-17.0-0.4-1.34","4w9dvjznm8","","4w9dvjznm8","""2024-11-13T17:30:09.056Z""","811","materials/imgs/D51.png","arrowleft","","[""materials/imgs/D82.png"",""materials/imgs/D32.png""]","false","random","","",""
"","","","","","html-keyboard-response","328","438214","0.0-17.0-1.4-0.4","4w9dvjznm8","","4w9dvjznm8","""2024-11-13T17:30:09.056Z""","null","+","null","","","","","","",""
"","","","","","image-keyboard-response","329","438735","0.0-17.0-1.4-1.4","4w9dvjznm8","","4w9dvjznm8","""2024-11-13T17:30:09.056Z""","520","materials/imgs/D46.png","arrowleft","","[""materials/imgs/D46.png"",""materials/imgs/D26.png""]","","check","materials/imgs/D46.png","0","true"
"","","","","","html-keyboard-response","330","439237","0.0-17.0-2.4-0.8","4w9dvjznm8","","4w9dvjznm8","""2024-11-13T17:30:09.056Z""","null","+","null","","","","","","",""
"","","","","","image-keyboard-response","331","439806","0.0-17.0-2.4-1.8","4w9dvjznm8","","4w9dvjznm8","""2024-11-13T17:30:09.056Z""","568","materials/imgs/D8.png","arrowleft","","[""materials/imgs/D101.png"",""materials/imgs/D52.png""]","false","validation","","",""
"","","","","","html-keyboard-response","332","440308","0.0-17.0-2.4-0.9","4w9dvjznm8","","4w9dvjznm8","""2024-11-13T17:30:09.056Z""","null","+","null","","","","","","",""
"","","","","","image-keyboard-response","333","441238","0.0-17.0-2.4-1.9","4w9dvjznm8","","4w9dvjznm8","""2024-11-13T17:30:09.056Z""","929","materials/imgs/D75.png","arrowleft","","[""materials/imgs/D96.png"",""materials/imgs/D4.png""]","false","validation","","",""
"","","","","","html-button-response","334","443197","0.0-18.0","4w9dvjznm8","","4w9dvjznm8","""2024-11-13T17:30:09.056Z""","1957","You have completed 75% of the trials. Please click 'Continue' when you are ready proceed.","0","","","","","","",""
"","","","","","html-keyboard-response","335","443697","0.0-19.0-0.0-0.0","4w9dvjznm8","","4w9dvjznm8","""2024-11-13T17:30:09.056Z""","null","+","null","","","","","","",""
"","","","","","image-keyboard-response","336","444782","0.0-19.0-0.0-1.0","4w9dvjznm8","","4w9dvjznm8","""2024-11-13T17:30:09.056Z""","1084","materials/imgs/D25.png","arrowleft","","[""materials/imgs/D87.png"",""materials/imgs/D79.png""]","false","random","","",""
"","","","","","html-keyboard-response","337","445284","0.0-19.0-0.0-0.1","4w9dvjznm8","","4w9dvjznm8","""2024-11-13T17:30:09.056Z""","null","+","null","","","","","","",""
"","","","","","image-keyboard-response","338","445973","0.0-19.0-0.0-1.1","4w9dvjznm8","","4w9dvjznm8","""2024-11-13T17:30:09.056Z""","688","materials/imgs/D111.png","arrowleft","","[""materials/imgs/D81.png"",""materials/imgs/D11.png""]","false","random","","",""
"","","","","","html-keyboard-response","339","446475","0.0-19.0-0.0-0.2","4w9dvjznm8","","4w9dvjznm8","""2024-11-13T17:30:09.056Z""","null","+","null","","","","","","",""
"","","","","","image-keyboard-response","340","447706","0.0-19.0-0.0-1.2","4w9dvjznm8","","4w9dvjznm8","""2024-11-13T17:30:09.056Z""","1227","materials/imgs/D82.png","arrowleft","","[""materials/imgs/D104.png"",""materials/imgs/D96.png""]","false","random","","",""
"","","","","","html-keyboard-response","341","448207","0.0-19.0-0.0-0.3","4w9dvjznm8","","4w9dvjznm8","""2024-11-13T17:30:09.056Z""","null","+","null","","","","","","",""
"","","","","","image-keyboard-response","342","449262","0.0-19.0-0.0-1.3","4w9dvjznm8","","4w9dvjznm8","""2024-11-13T17:30:09.056Z""","1052","materials/imgs/D14.png","arrowright","","[""materials/imgs/D74.png"",""materials/imgs/D11.png""]","false","random","","",""
"","","","","","html-keyboard-response","343","449764","0.0-19.0-0.0-0.4","4w9dvjznm8","","4w9dvjznm8","""2024-11-13T17:30:09.056Z""","null","+","null","","","","","","",""
"","","","","","image-keyboard-response","344","451190","0.0-19.0-0.0-1.4","4w9dvjznm8","","4w9dvjznm8","""2024-11-13T17:30:09.056Z""","1424","materials/imgs/D11.png","arrowright","","[""materials/imgs/D18.png"",""materials/imgs/D6.png""]","false","random","","",""
"","","","","","html-keyboard-response","345","451692","0.0-19.0-0.0-0.5","4w9dvjznm8","","4w9dvjznm8","""2024-11-13T17:30:09.056Z""","null","+","null","","","","","","",""
"","","","","","image-keyboard-response","346","454283","0.0-19.0-0.0-1.5","4w9dvjznm8","","4w9dvjznm8","""2024-11-13T17:30:09.056Z""","2590","materials/imgs/D106.png","arrowright","","[""materials/imgs/D9.png"",""materials/imgs/D82.png""]","false","random","","",""
"","","","","","html-keyboard-response","347","454786","0.0-19.0-0.0-0.6","4w9dvjznm8","","4w9dvjznm8","""2024-11-13T17:30:09.056Z""","null","+","null","","","","","","",""
"","","","","","image-keyboard-response","348","457379","0.0-19.0-0.0-1.6","4w9dvjznm8","","4w9dvjznm8","""2024-11-13T17:30:09.056Z""","2592","materials/imgs/D95.png","arrowleft","","[""materials/imgs/D111.png"",""materials/imgs/D29.png""]","false","random","","",""
"","","","","","html-keyboard-response","349","457881","0.0-19.0-1.0-0.0","4w9dvjznm8","","4w9dvjznm8","""2024-11-13T17:30:09.056Z""","null","+","null","","","","","","",""
"","","","","","image-keyboard-response","350","460896","0.0-19.0-1.0-1.0","4w9dvjznm8","","4w9dvjznm8","""2024-11-13T17:30:09.056Z""","3014","materials/imgs/D18.png","arrowright","","[""materials/imgs/D8.png"",""materials/imgs/D18.png""]","","check","materials/imgs/D18.png","1","true"
"","","","","","html-keyboard-response","351","461398","0.0-19.0-2.0-0.0","4w9dvjznm8","","4w9dvjznm8","""2024-11-13T17:30:09.056Z""","null","+","null","","","","","","",""
"","","","","","image-keyboard-response","352","462549","0.0-19.0-2.0-1.0","4w9dvjznm8","","4w9dvjznm8","""2024-11-13T17:30:09.056Z""","1149","materials/imgs/D32.png","arrowleft","","[""materials/imgs/D68.png"",""materials/imgs/D96.png""]","false","validation","","",""
"","","","","","html-keyboard-response","353","463051","0.0-19.0-2.0-0.1","4w9dvjznm8","","4w9dvjznm8","""2024-11-13T17:30:09.056Z""","null","+","null","","","","","","",""
"","","","","","image-keyboard-response","354","464475","0.0-19.0-2.0-1.1","4w9dvjznm8","","4w9dvjznm8","""2024-11-13T17:30:09.056Z""","1422","materials/imgs/D101.png","arrowright","","[""materials/imgs/D76.png"",""materials/imgs/D47.png""]","false","validation","","",""
"","","","","","html-keyboard-response","355","464978","0.0-19.0-0.1-0.7","4w9dvjznm8","","4w9dvjznm8","""2024-11-13T17:30:09.056Z""","null","+","null","","","","","","",""
"","","","","","image-keyboard-response","356","468606","0.0-19.0-0.1-1.7","4w9dvjznm8","","4w9dvjznm8","""2024-11-13T17:30:09.056Z""","3627","materials/imgs/D55.png","arrowleft","","[""materials/imgs/D56.png"",""materials/imgs/D48.png""]","false","random","","",""
"","","","","","html-keyboard-response","357","469108","0.0-19.0-0.1-0.8","4w9dvjznm8","","4w9dvjznm8","""2024-11-13T17:30:09.056Z""","null","+","null","","","","","","",""
"","","","","","image-keyboard-response","358","470629","0.0-19.0-0.1-1.8","4w9dvjznm8","","4w9dvjznm8","""2024-11-13T17:30:09.056Z""","1519","materials/imgs/D32.png","arrowright","","[""materials/imgs/D21.png"",""materials/imgs/D85.png""]","false","random","","",""
"","","","","","html-keyboard-response","359","471130","0.0-19.0-0.1-0.9","4w9dvjznm8","","4w9dvjznm8","""2024-11-13T17:30:09.056Z""","null","+","null","","","","","","",""
"","","","","","image-keyboard-response","360","472930","0.0-19.0-0.1-1.9","4w9dvjznm8","","4w9dvjznm8","""2024-11-13T17:30:09.056Z""","1799","materials/imgs/D78.png","arrowleft","","[""materials/imgs/D36.png"",""materials/imgs/D1.png""]","false","random","","",""
"","","","","","html-keyboard-response","361","473432","0.0-19.0-0.1-0.10","4w9dvjznm8","","4w9dvjznm8","""2024-11-13T17:30:09.056Z""","null","+","null","","","","","","",""
"","","","","","image-keyboard-response","362","476056","0.0-19.0-0.1-1.10","4w9dvjznm8","","4w9dvjznm8","""2024-11-13T17:30:09.056Z""","2623","materials/imgs/D34.png","arrowright","","[""materials/imgs/D106.png"",""materials/imgs/D77.png""]","false","random","","",""
"","","","","","html-keyboard-response","363","476558","0.0-19.0-0.1-0.11","4w9dvjznm8","","4w9dvjznm8","""2024-11-13T17:30:09.056Z""","null","+","null","","","","","","",""
"","","","","","image-keyboard-response","364","478085","0.0-19.0-0.1-1.11","4w9dvjznm8","","4w9dvjznm8","""2024-11-13T17:30:09.056Z""","1526","materials/imgs/D24.png","arrowright","","[""materials/imgs/D48.png"",""materials/imgs/D29.png""]","false","random","","",""
"","","","","","html-keyboard-response","365","478587","0.0-19.0-0.1-0.12","4w9dvjznm8","","4w9dvjznm8","""2024-11-13T17:30:09.056Z""","null","+","null","","","","","","",""
"","","","","","image-keyboard-response","366","479187","0.0-19.0-0.1-1.12","4w9dvjznm8","","4w9dvjznm8","""2024-11-13T17:30:09.056Z""","599","materials/imgs/D84.png","arrowleft","","[""materials/imgs/D80.png"",""materials/imgs/D51.png""]","false","random","","",""
"","","","","","html-keyboard-response","367","479689","0.0-19.0-0.1-0.13","4w9dvjznm8","","4w9dvjznm8","""2024-11-13T17:30:09.056Z""","null","+","null","","","","","","",""
"","","","","","image-keyboard-response","368","480439","0.0-19.0-0.1-1.13","4w9dvjznm8","","4w9dvjznm8","""2024-11-13T17:30:09.056Z""","749","materials/imgs/D26.png","arrowleft","","[""materials/imgs/D96.png"",""materials/imgs/D57.png""]","false","random","","",""
"","","","","","html-keyboard-response","369","480941","0.0-19.0-1.1-0.1","4w9dvjznm8","","4w9dvjznm8","""2024-11-13T17:30:09.056Z""","null","+","null","","","","","","",""
"","","","","","image-keyboard-response","370","481603","0.0-19.0-1.1-1.1","4w9dvjznm8","","4w9dvjznm8","""2024-11-13T17:30:09.056Z""","661","materials/imgs/D64.png","arrowleft","","[""materials/imgs/D64.png"",""materials/imgs/D53.png""]","","check","materials/imgs/D64.png","0","true"
"","","","","","html-keyboard-response","371","482105","0.0-19.0-2.1-0.2","4w9dvjznm8","","4w9dvjznm8","""2024-11-13T17:30:09.056Z""","null","+","null","","","","","","",""
"","","","","","image-keyboard-response","372","483043","0.0-19.0-2.1-1.2","4w9dvjznm8","","4w9dvjznm8","""2024-11-13T17:30:09.056Z""","937","materials/imgs/D52.png","arrowleft","","[""materials/imgs/D9.png"",""materials/imgs/D19.png""]","false","validation","","",""
"","","","","","html-keyboard-response","373","483544","0.0-19.0-2.1-0.3","4w9dvjznm8","","4w9dvjznm8","""2024-11-13T17:30:09.056Z""","null","+","null","","","","","","",""
"","","","","","image-keyboard-response","374","484630","0.0-19.0-2.1-1.3","4w9dvjznm8","","4w9dvjznm8","""2024-11-13T17:30:09.056Z""","1084","materials/imgs/D103.png","arrowright","","[""materials/imgs/D76.png"",""materials/imgs/D106.png""]","false","validation","","",""
"","","","","","html-keyboard-response","375","485132","0.0-19.0-0.2-0.14","4w9dvjznm8","","4w9dvjznm8","""2024-11-13T17:30:09.056Z""","null","+","null","","","","","","",""
"","","","","","image-keyboard-response","376","486428","0.0-19.0-0.2-1.14","4w9dvjznm8","","4w9dvjznm8","""2024-11-13T17:30:09.056Z""","1294","materials/imgs/D57.png","arrowleft","","[""materials/imgs/D52.png"",""materials/imgs/D74.png""]","false","random","","",""
"","","","","","html-keyboard-response","377","486930","0.0-19.0-0.2-0.15","4w9dvjznm8","","4w9dvjznm8","""2024-11-13T17:30:09.056Z""","null","+","null","","","","","","",""
"","","","","","image-keyboard-response","378","487914","0.0-19.0-0.2-1.15","4w9dvjznm8","","4w9dvjznm8","""2024-11-13T17:30:09.056Z""","982","materials/imgs/D92.png","arrowright","","[""materials/imgs/D68.png"",""materials/imgs/D82.png""]","false","random","","",""
"","","","","","html-keyboard-response","379","488415","0.0-19.0-0.2-0.16","4w9dvjznm8","","4w9dvjznm8","""2024-11-13T17:30:09.056Z""","null","+","null","","","","","","",""
"","","","","","image-keyboard-response","380","489294","0.0-19.0-0.2-1.16","4w9dvjznm8","","4w9dvjznm8","""2024-11-13T17:30:09.056Z""","877","materials/imgs/D64.png","arrowleft","","[""materials/imgs/D65.png"",""materials/imgs/D25.png""]","false","random","","",""
"","","","","","html-keyboard-response","381","489796","0.0-19.0-0.2-0.17","4w9dvjznm8","","4w9dvjznm8","""2024-11-13T17:30:09.056Z""","null","+","null","","","","","","",""
"","","","","","image-keyboard-response","382","490544","0.0-19.0-0.2-1.17","4w9dvjznm8","","4w9dvjznm8","""2024-11-13T17:30:09.056Z""","746","materials/imgs/D22.png","arrowleft","","[""materials/imgs/D55.png"",""materials/imgs/D95.png""]","false","random","","",""
"","","","","","html-keyboard-response","383","491045","0.0-19.0-0.2-0.18","4w9dvjznm8","","4w9dvjznm8","""2024-11-13T17:30:09.056Z""","null","+","null","","","","","","",""
"","","","","","image-keyboard-response","384","492053","0.0-19.0-0.2-1.18","4w9dvjznm8","","4w9dvjznm8","""2024-11-13T17:30:09.056Z""","1006","materials/imgs/D21.png","arrowright","","[""materials/imgs/D111.png"",""materials/imgs/D87.png""]","false","random","","",""
"","","","","","html-keyboard-response","385","492555","0.0-19.0-0.2-0.19","4w9dvjznm8","","4w9dvjznm8","""2024-11-13T17:30:09.056Z""","null","+","null","","","","","","",""
"","","","","","image-keyboard-response","386","493511","0.0-19.0-0.2-1.19","4w9dvjznm8","","4w9dvjznm8","""2024-11-13T17:30:09.056Z""","954","materials/imgs/D81.png","arrowleft","","[""materials/imgs/D32.png"",""materials/imgs/D20.png""]","false","random","","",""
"","","","","","html-keyboard-response","387","494013","0.0-19.0-0.2-0.20","4w9dvjznm8","","4w9dvjznm8","""2024-11-13T17:30:09.056Z""","null","+","null","","","","","","",""
"","","","","","image-keyboard-response","388","495999","0.0-19.0-0.2-1.20","4w9dvjznm8","","4w9dvjznm8","""2024-11-13T17:30:09.056Z""","1984","materials/imgs/D4.png","arrowright","","[""materials/imgs/D101.png"",""materials/imgs/D26.png""]","false","random","","",""
"","","","","","html-keyboard-response","389","496500","0.0-19.0-1.2-0.2","4w9dvjznm8","","4w9dvjznm8","""2024-11-13T17:30:09.056Z""","null","+","null","","","","","","",""
"","","","","","image-keyboard-response","390","497062","0.0-19.0-1.2-1.2","4w9dvjznm8","","4w9dvjznm8","""2024-11-13T17:30:09.056Z""","562","materials/imgs/D76.png","arrowleft","","[""materials/imgs/D76.png"",""materials/imgs/D78.png""]","","check","materials/imgs/D76.png","0","true"
"","","","","","html-keyboard-response","391","497564","0.0-19.0-2.2-0.4","4w9dvjznm8","","4w9dvjznm8","""2024-11-13T17:30:09.056Z""","null","+","null","","","","","","",""
"","","","","","image-keyboard-response","392","498879","0.0-19.0-2.2-1.4","4w9dvjznm8","","4w9dvjznm8","""2024-11-13T17:30:09.056Z""","1313","materials/imgs/D6.png","arrowleft","","[""materials/imgs/D26.png"",""materials/imgs/D76.png""]","false","validation","","",""
"","","","","","html-keyboard-response","393","499381","0.0-19.0-2.2-0.5","4w9dvjznm8","","4w9dvjznm8","""2024-11-13T17:30:09.056Z""","null","+","null","","","","","","",""
"","","","","","image-keyboard-response","394","500429","0.0-19.0-2.2-1.5","4w9dvjznm8","","4w9dvjznm8","""2024-11-13T17:30:09.056Z""","1046","materials/imgs/D52.png","arrowleft","","[""materials/imgs/D9.png"",""materials/imgs/D19.png""]","false","validation","","",""
"","","","","","html-keyboard-response","395","500931","0.0-19.0-0.3-0.21","4w9dvjznm8","","4w9dvjznm8","""2024-11-13T17:30:09.056Z""","null","+","null","","","","","","",""
"","","","","","image-keyboard-response","396","502923","0.0-19.0-0.3-1.21","4w9dvjznm8","","4w9dvjznm8","""2024-11-13T17:30:09.056Z""","1991","materials/imgs/D68.png","arrowright","","[""materials/imgs/D4.png"",""materials/imgs/D6.png""]","false","random","","",""
"","","","","","html-keyboard-response","397","503425","0.0-19.0-0.3-0.22","4w9dvjznm8","","4w9dvjznm8","""2024-11-13T17:30:09.056Z""","null","+","null","","","","","","",""
"","","","","","image-keyboard-response","398","504260","0.0-19.0-0.3-1.22","4w9dvjznm8","","4w9dvjznm8","""2024-11-13T17:30:09.056Z""","835","materials/imgs/D95.png","arrowright","","[""materials/imgs/D106.png"",""materials/imgs/D26.png""]","false","random","","",""
"","","","","","html-keyboard-response","399","504762","0.0-19.0-0.3-0.23","4w9dvjznm8","","4w9dvjznm8","""2024-11-13T17:30:09.056Z""","null","+","null","","","","","","",""
"","","","","","image-keyboard-response","400","506666","0.0-19.0-0.3-1.23","4w9dvjznm8","","4w9dvjznm8","""2024-11-13T17:30:09.056Z""","1902","materials/imgs/D19.png","arrowright","","[""materials/imgs/D65.png"",""materials/imgs/D1.png""]","false","random","","",""
"","","","","","html-keyboard-response","401","507168","0.0-19.0-0.3-0.24","4w9dvjznm8","","4w9dvjznm8","""2024-11-13T17:30:09.056Z""","null","+","null","","","","","","",""
"","","","","","image-keyboard-response","402","508576","0.0-19.0-0.3-1.24","4w9dvjznm8","","4w9dvjznm8","""2024-11-13T17:30:09.056Z""","1406","materials/imgs/D75.png","arrowleft","","[""materials/imgs/D29.png"",""materials/imgs/D65.png""]","false","random","","",""
"","","","","","html-keyboard-response","403","509078","0.0-19.0-0.3-0.25","4w9dvjznm8","","4w9dvjznm8","""2024-11-13T17:30:09.056Z""","null","+","null","","","","","","",""
"","","","","","image-keyboard-response","404","510788","0.0-19.0-0.3-1.25","4w9dvjznm8","","4w9dvjznm8","""2024-11-13T17:30:09.056Z""","1708","materials/imgs/D102.png","arrowright","","[""materials/imgs/D95.png"",""materials/imgs/D57.png""]","false","random","","",""
"","","","","","html-keyboard-response","405","511290","0.0-19.0-0.3-0.26","4w9dvjznm8","","4w9dvjznm8","""2024-11-13T17:30:09.056Z""","null","+","null","","","","","","",""
"","","","","","image-keyboard-response","406","513104","0.0-19.0-0.3-1.26","4w9dvjznm8","","4w9dvjznm8","""2024-11-13T17:30:09.056Z""","1814","materials/imgs/D111.png","arrowright","","[""materials/imgs/D46.png"",""materials/imgs/D1.png""]","false","random","","",""
"","","","","","html-keyboard-response","407","513606","0.0-19.0-0.3-0.27","4w9dvjznm8","","4w9dvjznm8","""2024-11-13T17:30:09.056Z""","null","+","null","","","","","","",""
"","","","","","image-keyboard-response","408","514679","0.0-19.0-0.3-1.27","4w9dvjznm8","","4w9dvjznm8","""2024-11-13T17:30:09.056Z""","1072","materials/imgs/D51.png","arrowleft","","[""materials/imgs/D102.png"",""materials/imgs/D75.png""]","false","random","","",""
"","","","","","html-keyboard-response","409","515181","0.0-19.0-1.3-0.3","4w9dvjznm8","","4w9dvjznm8","""2024-11-13T17:30:09.056Z""","null","+","null","","","","","","",""
"","","","","","image-keyboard-response","410","515883","0.0-19.0-1.3-1.3","4w9dvjznm8","","4w9dvjznm8","""2024-11-13T17:30:09.056Z""","700","materials/imgs/D18.png","arrowright","","[""materials/imgs/D8.png"",""materials/imgs/D18.png""]","","check","materials/imgs/D18.png","1","true"
"","","","","","html-keyboard-response","411","516384","0.0-19.0-2.3-0.6","4w9dvjznm8","","4w9dvjznm8","""2024-11-13T17:30:09.056Z""","null","+","null","","","","","","",""
"","","","","","image-keyboard-response","412","517749","0.0-19.0-2.3-1.6","4w9dvjznm8","","4w9dvjznm8","""2024-11-13T17:30:09.056Z""","1364","materials/imgs/D51.png","arrowright","","[""materials/imgs/D92.png"",""materials/imgs/D20.png""]","false","validation","","",""
"","","","","","html-keyboard-response","413","518251","0.0-19.0-2.3-0.7","4w9dvjznm8","","4w9dvjznm8","""2024-11-13T17:30:09.056Z""","null","+","null","","","","","","",""
"","","","","","image-keyboard-response","414","518919","0.0-19.0-2.3-1.7","4w9dvjznm8","","4w9dvjznm8","""2024-11-13T17:30:09.056Z""","667","materials/imgs/D16.png","arrowleft","","[""materials/imgs/D52.png"",""materials/imgs/D25.png""]","false","validation","","",""
"","","","","","html-keyboard-response","415","519421","0.0-19.0-0.4-0.28","4w9dvjznm8","","4w9dvjznm8","""2024-11-13T17:30:09.056Z""","null","+","null","","","","","","",""
"","","","","","image-keyboard-response","416","520971","0.0-19.0-0.4-1.28","4w9dvjznm8","","4w9dvjznm8","""2024-11-13T17:30:09.056Z""","1549","materials/imgs/D84.png","arrowleft","","[""materials/imgs/D104.png"",""materials/imgs/D81.png""]","false","random","","",""
"","","","","","html-keyboard-response","417","521473","0.0-19.0-0.4-0.29","4w9dvjznm8","","4w9dvjznm8","""2024-11-13T17:30:09.056Z""","null","+","null","","","","","","",""
"","","","","","image-keyboard-response","418","522815","0.0-19.0-0.4-1.29","4w9dvjznm8","","4w9dvjznm8","""2024-11-13T17:30:09.056Z""","1340","materials/imgs/D51.png","arrowleft","","[""materials/imgs/D64.png"",""materials/imgs/D6.png""]","false","random","","",""
"","","","","","html-keyboard-response","419","523317","0.0-19.0-0.4-0.30","4w9dvjznm8","","4w9dvjznm8","""2024-11-13T17:30:09.056Z""","null","+","null","","","","","","",""
"","","","","","image-keyboard-response","420","524621","0.0-19.0-0.4-1.30","4w9dvjznm8","","4w9dvjznm8","""2024-11-13T17:30:09.056Z""","1303","materials/imgs/D4.png","arrowleft","","[""materials/imgs/D25.png"",""materials/imgs/D56.png""]","false","random","","",""
"","","","","","html-keyboard-response","421","525123","0.0-19.0-0.4-0.31","4w9dvjznm8","","4w9dvjznm8","""2024-11-13T17:30:09.056Z""","null","+","null","","","","","","",""
"","","","","","image-keyboard-response","422","526073","0.0-19.0-0.4-1.31","4w9dvjznm8","","4w9dvjznm8","""2024-11-13T17:30:09.056Z""","948","materials/imgs/D53.png","arrowleft","","[""materials/imgs/D29.png"",""materials/imgs/D74.png""]","false","random","","",""
"","","","","","html-keyboard-response","423","526575","0.0-19.0-0.4-0.32","4w9dvjznm8","","4w9dvjznm8","""2024-11-13T17:30:09.056Z""","null","+","null","","","","","","",""
"","","","","","image-keyboard-response","424","528211","0.0-19.0-0.4-1.32","4w9dvjznm8","","4w9dvjznm8","""2024-11-13T17:30:09.056Z""","1634","materials/imgs/D17.png","arrowright","","[""materials/imgs/D52.png"",""materials/imgs/D78.png""]","false","random","","",""
"","","","","","html-keyboard-response","425","528713","0.0-19.0-0.4-0.33","4w9dvjznm8","","4w9dvjznm8","""2024-11-13T17:30:09.056Z""","null","+","null","","","","","","",""
"","","","","","image-keyboard-response","426","530794","0.0-19.0-0.4-1.33","4w9dvjznm8","","4w9dvjznm8","""2024-11-13T17:30:09.056Z""","2079","materials/imgs/D36.png","arrowleft","","[""materials/imgs/D18.png"",""materials/imgs/D56.png""]","false","random","","",""
"","","","","","html-keyboard-response","427","531295","0.0-19.0-0.4-0.34","4w9dvjznm8","","4w9dvjznm8","""2024-11-13T17:30:09.056Z""","null","+","null","","","","","","",""
"","","","","","image-keyboard-response","428","532865","0.0-19.0-0.4-1.34","4w9dvjznm8","","4w9dvjznm8","""2024-11-13T17:30:09.056Z""","1568","materials/imgs/D65.png","arrowright","","[""materials/imgs/D81.png"",""materials/imgs/D17.png""]","false","random","","",""
"","","","","","html-keyboard-response","429","533367","0.0-19.0-1.4-0.4","4w9dvjznm8","","4w9dvjznm8","""2024-11-13T17:30:09.056Z""","null","+","null","","","","","","",""
"","","","","","image-keyboard-response","430","534451","0.0-19.0-1.4-1.4","4w9dvjznm8","","4w9dvjznm8","""2024-11-13T17:30:09.056Z""","1083","materials/imgs/D101.png","arrowright","","[""materials/imgs/D106.png"",""materials/imgs/D101.png""]","","check","materials/imgs/D101.png","1","true"
"","","","","","html-keyboard-response","431","534953","0.0-19.0-2.4-0.8","4w9dvjznm8","","4w9dvjznm8","""2024-11-13T17:30:09.056Z""","null","+","null","","","","","","",""
"","","","","","image-keyboard-response","432","536659","0.0-19.0-2.4-1.8","4w9dvjznm8","","4w9dvjznm8","""2024-11-13T17:30:09.056Z""","1704","materials/imgs/D92.png","arrowright","","[""materials/imgs/D56.png"",""materials/imgs/D77.png""]","false","validation","","",""
"","","","","","html-keyboard-response","433","537161","0.0-19.0-2.4-0.9","4w9dvjznm8","","4w9dvjznm8","""2024-11-13T17:30:09.056Z""","null","+","null","","","","","","",""
"","","","","","image-keyboard-response","434","538135","0.0-19.0-2.4-1.9","4w9dvjznm8","","4w9dvjznm8","""2024-11-13T17:30:09.056Z""","973","materials/imgs/D26.png","arrowright","","[""materials/imgs/D36.png"",""materials/imgs/D92.png""]","false","validation","","",""
