"success","timeout","failed_images","failed_audio","failed_video","trial_type","trial_index","time_elapsed","internal_node_id","subject_id","sona_id","subjectID","dateInfo","rt","stimulus","response","question_order","choices","speedy","sampleAlg","selected_image","selected_index","correct"
"true","false","[]","[]","[]","preload","0","236","0.0-0.0","5r122fzgvg","","5r122fzgvg","""2024-11-13T20:08:12.789Z""","","","","","","","","","",""
"true","","","","","fullscreen","1","2877","0.0-1.0","5r122fzgvg","","5r122fzgvg","""2024-11-13T20:08:12.789Z""","","","","","","","","","",""
"","","","","","html-keyboard-response","2","2890","0.0-2.0","5r122fzgvg","","5r122fzgvg","""2024-11-13T20:08:12.789Z""","null","","null","","","","","","",""
"","","","","","html-button-response","3","6953","0.0-3.0","5r122fzgvg","","5r122fzgvg","""2024-11-13T20:08:12.789Z""","4060","<div style='text-align:center; font-size:20px; line-height:25px; width: 1200px;'>
                Welcome to our experiment! <br>
                <br>At the bottom of this screen, you will see a button that says 'Begin Experiment.
                <br>Please only click that button when you are ready to complete the 25 minute experiment in one sitting. <br>
                <br> Once you click that button, it will not be possible to restart the experiment. <br><br>","0","","","","","","",""
"true","","","","","fullscreen","4","11167","0.0-4.0","5r122fzgvg","","5r122fzgvg","""2024-11-13T20:08:12.789Z""","","","","","","","","","",""
"","","","","","survey-multi-select","5","15150","0.0-5.0","5r122fzgvg","","5r122fzgvg","""2024-11-13T20:08:12.789Z""","3979","","{""Consent"":[""<strong>I consent</strong>""]}","[0]","","","","","",""
"","","","","","html-button-response","6","17188","0.0-6.0","5r122fzgvg","","5r122fzgvg","""2024-11-13T20:08:12.789Z""","2036","Welcome! <p> This experiment involves two parts: demographic information, followed by the experimental task.<p> It will take about 25 minutes to complete both parts.","0","","","","","","",""
"","","","","","survey-text","7","24135","0.0-7.0","5r122fzgvg","","5r122fzgvg","""2024-11-13T20:08:12.789Z""","6934","","{""Age"":""18"",""Gender"":""Female"",""Race/ethnicity"":""White""}","","","","","","",""
"","","","","","html-button-response","8","44811","0.0-8.0","5r122fzgvg","","5r122fzgvg","""2024-11-13T20:08:12.789Z""","20674","<div style='text-align: center;'>
      <p>In each trial of this task, you will see three texture images: one target item on top, and two choices beneath the target item.</p>
      <p><strong>Please select the item that is most like the target item.</strong></p>
      <p>To select the option on the <strong>LEFT</strong>, press the <strong>LEFT ARROW</strong> key. 
      To select the option on the <strong>RIGHT</strong>, press the <strong>RIGHT ARROW</strong> key.</p>
                  <!-- Target Image at the Top -->
      <div style='margin: 20px;'>
        <img src='materials/imgs/instruction_images/InstructionImg1D78.png' alt='Target Image' style='width:200px; height:auto;' />
        <p><em>Target Image</em></p>
      </div>

      <!-- Two Choice Images Below -->
      <div style='display: flex; justify-content: center;'>
        <div style='margin-right: 50px;'>
          <img src='materials/imgs/instruction_images/InstructionImg2D34.png' alt='Choice Image 1' style='width:150px; height:auto;' />
          <p><em><strong>LEFT ARROW</strong></em></p>
        </div>
        <div style='margin-left: 50px;'>
          <img src='materials/imgs/instruction_images/InstructionImg3D80.png' alt='Choice Image 2' style='width:150px; height:auto;' />
          <p><em><strong>RIGHT ARROW</strong></em></p>
        </div>
      </div>
    </div>

      <p>When you are ready to proceed, please click 'Continue' to begin practice.</p>","0","","","","","","",""
"","","","","","html-keyboard-response","9","47314","0.0-9.0","5r122fzgvg","","5r122fzgvg","""2024-11-13T20:08:12.789Z""","null","+","null","","","","","","",""
"","","","","","html-keyboard-response","10","47815","0.0-10.0-0.0-0.0","5r122fzgvg","","5r122fzgvg","""2024-11-13T20:08:12.789Z""","null","+","null","","","","","","",""
"","","","","","image-keyboard-response","11","49726","0.0-10.0-0.0-1.0","5r122fzgvg","","5r122fzgvg","""2024-11-13T20:08:12.789Z""","1903","materials/imgs/D49.png","arrowright","","[""materials/imgs/D29.png"",""materials/imgs/D77.png""]","false","random","","",""
"","","","","","html-keyboard-response","12","50229","0.0-10.0-0.0-0.1","5r122fzgvg","","5r122fzgvg","""2024-11-13T20:08:12.789Z""","null","+","null","","","","","","",""
"","","","","","image-keyboard-response","13","52199","0.0-10.0-0.0-1.1","5r122fzgvg","","5r122fzgvg","""2024-11-13T20:08:12.789Z""","1964","materials/imgs/D55.png","arrowleft","","[""materials/imgs/D81.png"",""materials/imgs/D74.png""]","false","random","","",""
"","","","","","html-keyboard-response","14","52701","0.0-10.0-0.0-0.2","5r122fzgvg","","5r122fzgvg","""2024-11-13T20:08:12.789Z""","null","+","null","","","","","","",""
"","","","","","image-keyboard-response","15","53570","0.0-10.0-0.0-1.2","5r122fzgvg","","5r122fzgvg","""2024-11-13T20:08:12.789Z""","862","materials/imgs/D68.png","arrowright","","[""materials/imgs/D57.png"",""materials/imgs/D79.png""]","false","random","","",""
"","","","","","html-keyboard-response","16","54072","0.0-10.0-0.0-0.3","5r122fzgvg","","5r122fzgvg","""2024-11-13T20:08:12.789Z""","null","+","null","","","","","","",""
"","","","","","image-keyboard-response","17","57853","0.0-10.0-0.0-1.3","5r122fzgvg","","5r122fzgvg","""2024-11-13T20:08:12.789Z""","3773","materials/imgs/D64.png","arrowright","","[""materials/imgs/D111.png"",""materials/imgs/D101.png""]","false","random","","",""
"","","","","","html-keyboard-response","18","58355","0.0-10.0-0.0-0.4","5r122fzgvg","","5r122fzgvg","""2024-11-13T20:08:12.789Z""","null","+","null","","","","","","",""
"","","","","","image-keyboard-response","19","59793","0.0-10.0-0.0-1.4","5r122fzgvg","","5r122fzgvg","""2024-11-13T20:08:12.789Z""","1429","materials/imgs/D96.png","arrowright","","[""materials/imgs/D111.png"",""materials/imgs/D103.png""]","false","random","","",""
"","","","","","html-keyboard-response","20","60295","0.0-10.0-0.0-0.5","5r122fzgvg","","5r122fzgvg","""2024-11-13T20:08:12.789Z""","null","+","null","","","","","","",""
"","","","","","image-keyboard-response","21","62900","0.0-10.0-0.0-1.5","5r122fzgvg","","5r122fzgvg","""2024-11-13T20:08:12.789Z""","2603","materials/imgs/D103.png","arrowright","","[""materials/imgs/D68.png"",""materials/imgs/D83.png""]","false","random","","",""
"","","","","","html-keyboard-response","22","63402","0.0-10.0-0.0-0.6","5r122fzgvg","","5r122fzgvg","""2024-11-13T20:08:12.789Z""","null","+","null","","","","","","",""
"","","","","","image-keyboard-response","23","67248","0.0-10.0-0.0-1.6","5r122fzgvg","","5r122fzgvg","""2024-11-13T20:08:12.789Z""","3839","materials/imgs/D95.png","arrowleft","","[""materials/imgs/D35.png"",""materials/imgs/D51.png""]","false","random","","",""
"","","","","","html-keyboard-response","24","67751","0.0-10.0-0.0-0.7","5r122fzgvg","","5r122fzgvg","""2024-11-13T20:08:12.789Z""","null","+","null","","","","","","",""
"","","","","","image-keyboard-response","25","70148","0.0-10.0-0.0-1.7","5r122fzgvg","","5r122fzgvg","""2024-11-13T20:08:12.789Z""","2391","materials/imgs/D105.png","arrowright","","[""materials/imgs/D18.png"",""materials/imgs/D24.png""]","false","random","","",""
"","","","","","html-keyboard-response","26","70651","0.0-10.0-0.0-0.8","5r122fzgvg","","5r122fzgvg","""2024-11-13T20:08:12.789Z""","null","+","null","","","","","","",""
"","","","","","image-keyboard-response","27","71402","0.0-10.0-0.0-1.8","5r122fzgvg","","5r122fzgvg","""2024-11-13T20:08:12.789Z""","744","materials/imgs/D80.png","arrowright","","[""materials/imgs/D68.png"",""materials/imgs/D57.png""]","false","random","","",""
"","","","","","html-keyboard-response","28","71904","0.0-10.0-0.0-0.9","5r122fzgvg","","5r122fzgvg","""2024-11-13T20:08:12.789Z""","null","+","null","","","","","","",""
"","","","","","image-keyboard-response","29","74809","0.0-10.0-0.0-1.9","5r122fzgvg","","5r122fzgvg","""2024-11-13T20:08:12.789Z""","2896","materials/imgs/D56.png","arrowright","","[""materials/imgs/D29.png"",""materials/imgs/D19.png""]","false","random","","",""
"","","","","","html-button-response","30","79989","0.0-11.0","5r122fzgvg","","5r122fzgvg","""2024-11-13T20:08:12.789Z""","5178","<p>Great job!</p>
      <p>You are now ready to begin the experiment.</p>
      <p>There will be around 200 trials. You will have opportunities to take breaks at three stages of the trials.</p>
      <p>When you are ready to begin please click 'Continue'.</p>","0","","","","","","",""
"","","","","","html-keyboard-response","31","82492","0.0-12.0","5r122fzgvg","","5r122fzgvg","""2024-11-13T20:08:12.789Z""","null","+","null","","","","","","",""
"","","","","","html-keyboard-response","32","82994","0.0-13.0-0.0-0.0","5r122fzgvg","","5r122fzgvg","""2024-11-13T20:08:12.789Z""","null","+","null","","","","","","",""
"","","","","","image-keyboard-response","33","83992","0.0-13.0-0.0-1.0","5r122fzgvg","","5r122fzgvg","""2024-11-13T20:08:12.789Z""","990","materials/imgs/D6.png","arrowleft","","[""materials/imgs/D79.png"",""materials/imgs/D48.png""]","false","random","","",""
"","","","","","html-keyboard-response","34","84495","0.0-13.0-0.0-0.1","5r122fzgvg","","5r122fzgvg","""2024-11-13T20:08:12.789Z""","null","+","null","","","","","","",""
"","","","","","image-keyboard-response","35","85237","0.0-13.0-0.0-1.1","5r122fzgvg","","5r122fzgvg","""2024-11-13T20:08:12.789Z""","740","materials/imgs/D95.png","arrowright","","[""materials/imgs/D79.png"",""materials/imgs/D36.png""]","false","random","","",""
"","","","","","html-keyboard-response","36","85740","0.0-13.0-0.0-0.2","5r122fzgvg","","5r122fzgvg","""2024-11-13T20:08:12.789Z""","null","+","null","","","","","","",""
"","","","","","image-keyboard-response","37","86480","0.0-13.0-0.0-1.2","5r122fzgvg","","5r122fzgvg","""2024-11-13T20:08:12.789Z""","739","materials/imgs/D68.png","arrowright","","[""materials/imgs/D66.png"",""materials/imgs/D17.png""]","false","random","","",""
"","","","","","html-keyboard-response","38","86982","0.0-13.0-0.0-0.3","5r122fzgvg","","5r122fzgvg","""2024-11-13T20:08:12.789Z""","null","+","null","","","","","","",""
"","","","","","image-keyboard-response","39","87860","0.0-13.0-0.0-1.3","5r122fzgvg","","5r122fzgvg","""2024-11-13T20:08:12.789Z""","870","materials/imgs/D102.png","arrowright","","[""materials/imgs/D24.png"",""materials/imgs/D19.png""]","false","random","","",""
"","","","","","html-keyboard-response","40","88362","0.0-13.0-0.0-0.4","5r122fzgvg","","5r122fzgvg","""2024-11-13T20:08:12.789Z""","null","+","null","","","","","","",""
"","","","","","image-keyboard-response","41","90156","0.0-13.0-0.0-1.4","5r122fzgvg","","5r122fzgvg","""2024-11-13T20:08:12.789Z""","1792","materials/imgs/D83.png","arrowright","","[""materials/imgs/D18.png"",""materials/imgs/D29.png""]","false","random","","",""
"","","","","","html-keyboard-response","42","90658","0.0-13.0-0.0-0.5","5r122fzgvg","","5r122fzgvg","""2024-11-13T20:08:12.789Z""","null","+","null","","","","","","",""
"","","","","","image-keyboard-response","43","92155","0.0-13.0-0.0-1.5","5r122fzgvg","","5r122fzgvg","""2024-11-13T20:08:12.789Z""","1495","materials/imgs/D35.png","arrowright","","[""materials/imgs/D52.png"",""materials/imgs/D22.png""]","false","random","","",""
"","","","","","html-keyboard-response","44","92658","0.0-13.0-0.0-0.6","5r122fzgvg","","5r122fzgvg","""2024-11-13T20:08:12.789Z""","null","+","null","","","","","","",""
"","","","","","image-keyboard-response","45","94130","0.0-13.0-0.0-1.6","5r122fzgvg","","5r122fzgvg","""2024-11-13T20:08:12.789Z""","1465","materials/imgs/D9.png","arrowright","","[""materials/imgs/D37.png"",""materials/imgs/D85.png""]","false","random","","",""
"","","","","","html-keyboard-response","46","94632","0.0-13.0-1.0-0.0","5r122fzgvg","","5r122fzgvg","""2024-11-13T20:08:12.789Z""","null","+","null","","","","","","",""
"","","","","","image-keyboard-response","47","95519","0.0-13.0-1.0-1.0","5r122fzgvg","","5r122fzgvg","""2024-11-13T20:08:12.789Z""","881","materials/imgs/D76.png","arrowleft","","[""materials/imgs/D76.png"",""materials/imgs/D78.png""]","","check","materials/imgs/D76.png","0","true"
"","","","","","html-keyboard-response","48","96022","0.0-13.0-2.0-0.0","5r122fzgvg","","5r122fzgvg","""2024-11-13T20:08:12.789Z""","null","+","null","","","","","","",""
"","","","","","image-keyboard-response","49","97551","0.0-13.0-2.0-1.0","5r122fzgvg","","5r122fzgvg","""2024-11-13T20:08:12.789Z""","1524","materials/imgs/D25.png","arrowright","","[""materials/imgs/D103.png"",""materials/imgs/D64.png""]","false","validation","","",""
"","","","","","html-keyboard-response","50","98053","0.0-13.0-2.0-0.1","5r122fzgvg","","5r122fzgvg","""2024-11-13T20:08:12.789Z""","null","+","null","","","","","","",""
"","","","","","image-keyboard-response","51","99281","0.0-13.0-2.0-1.1","5r122fzgvg","","5r122fzgvg","""2024-11-13T20:08:12.789Z""","1225","materials/imgs/D36.png","arrowright","","[""materials/imgs/D47.png"",""materials/imgs/D49.png""]","false","validation","","",""
"","","","","","html-keyboard-response","52","99783","0.0-13.0-0.1-0.7","5r122fzgvg","","5r122fzgvg","""2024-11-13T20:08:12.789Z""","null","+","null","","","","","","",""
"","","","","","image-keyboard-response","53","100684","0.0-13.0-0.1-1.7","5r122fzgvg","","5r122fzgvg","""2024-11-13T20:08:12.789Z""","899","materials/imgs/D111.png","arrowright","","[""materials/imgs/D4.png"",""materials/imgs/D34.png""]","false","random","","",""
"","","","","","html-keyboard-response","54","101186","0.0-13.0-0.1-0.8","5r122fzgvg","","5r122fzgvg","""2024-11-13T20:08:12.789Z""","null","+","null","","","","","","",""
"","","","","","image-keyboard-response","55","101896","0.0-13.0-0.1-1.8","5r122fzgvg","","5r122fzgvg","""2024-11-13T20:08:12.789Z""","708","materials/imgs/D76.png","arrowright","","[""materials/imgs/D101.png"",""materials/imgs/D94.png""]","false","random","","",""
"","","","","","html-keyboard-response","56","102398","0.0-13.0-0.1-0.9","5r122fzgvg","","5r122fzgvg","""2024-11-13T20:08:12.789Z""","null","+","null","","","","","","",""
"","","","","","image-keyboard-response","57","103265","0.0-13.0-0.1-1.9","5r122fzgvg","","5r122fzgvg","""2024-11-13T20:08:12.789Z""","865","materials/imgs/D4.png","arrowright","","[""materials/imgs/D18.png"",""materials/imgs/D49.png""]","false","random","","",""
"","","","","","html-keyboard-response","58","103767","0.0-13.0-0.1-0.10","5r122fzgvg","","5r122fzgvg","""2024-11-13T20:08:12.789Z""","null","+","null","","","","","","",""
"","","","","","image-keyboard-response","59","104780","0.0-13.0-0.1-1.10","5r122fzgvg","","5r122fzgvg","""2024-11-13T20:08:12.789Z""","1005","materials/imgs/D26.png","arrowright","","[""materials/imgs/D22.png"",""materials/imgs/D101.png""]","false","random","","",""
"","","","","","html-keyboard-response","60","105282","0.0-13.0-0.1-0.11","5r122fzgvg","","5r122fzgvg","""2024-11-13T20:08:12.789Z""","null","+","null","","","","","","",""
"","","","","","image-keyboard-response","61","106176","0.0-13.0-0.1-1.11","5r122fzgvg","","5r122fzgvg","""2024-11-13T20:08:12.789Z""","892","materials/imgs/D111.png","arrowleft","","[""materials/imgs/D65.png"",""materials/imgs/D83.png""]","false","random","","",""
"","","","","","html-keyboard-response","62","106678","0.0-13.0-0.1-0.12","5r122fzgvg","","5r122fzgvg","""2024-11-13T20:08:12.789Z""","null","+","null","","","","","","",""
"","","","","","image-keyboard-response","63","108220","0.0-13.0-0.1-1.12","5r122fzgvg","","5r122fzgvg","""2024-11-13T20:08:12.789Z""","1535","materials/imgs/D87.png","arrowright","","[""materials/imgs/D68.png"",""materials/imgs/D79.png""]","false","random","","",""
"","","","","","html-keyboard-response","64","108721","0.0-13.0-0.1-0.13","5r122fzgvg","","5r122fzgvg","""2024-11-13T20:08:12.789Z""","null","+","null","","","","","","",""
"","","","","","image-keyboard-response","65","110108","0.0-13.0-0.1-1.13","5r122fzgvg","","5r122fzgvg","""2024-11-13T20:08:12.789Z""","1384","materials/imgs/D22.png","arrowright","","[""materials/imgs/D111.png"",""materials/imgs/D14.png""]","false","random","","",""
"","","","","","html-keyboard-response","66","110610","0.0-13.0-1.1-0.1","5r122fzgvg","","5r122fzgvg","""2024-11-13T20:08:12.789Z""","null","+","null","","","","","","",""
"","","","","","image-keyboard-response","67","111201","0.0-13.0-1.1-1.1","5r122fzgvg","","5r122fzgvg","""2024-11-13T20:08:12.789Z""","590","materials/imgs/D26.png","arrowleft","","[""materials/imgs/D26.png"",""materials/imgs/D46.png""]","","check","materials/imgs/D26.png","0","true"
"","","","","","html-keyboard-response","68","111703","0.0-13.0-2.1-0.2","5r122fzgvg","","5r122fzgvg","""2024-11-13T20:08:12.789Z""","null","+","null","","","","","","",""
"","","","","","image-keyboard-response","69","114418","0.0-13.0-2.1-1.2","5r122fzgvg","","5r122fzgvg","""2024-11-13T20:08:12.789Z""","2713","materials/imgs/D56.png","arrowleft","","[""materials/imgs/D25.png"",""materials/imgs/D105.png""]","false","validation","","",""
"","","","","","html-keyboard-response","70","114920","0.0-13.0-2.1-0.3","5r122fzgvg","","5r122fzgvg","""2024-11-13T20:08:12.789Z""","null","+","null","","","","","","",""
"","","","","","image-keyboard-response","71","115781","0.0-13.0-2.1-1.3","5r122fzgvg","","5r122fzgvg","""2024-11-13T20:08:12.789Z""","859","materials/imgs/D79.png","arrowleft","","[""materials/imgs/D51.png"",""materials/imgs/D64.png""]","false","validation","","",""
"","","","","","html-keyboard-response","72","116284","0.0-13.0-0.2-0.14","5r122fzgvg","","5r122fzgvg","""2024-11-13T20:08:12.789Z""","null","+","null","","","","","","",""
"","","","","","image-keyboard-response","73","117234","0.0-13.0-0.2-1.14","5r122fzgvg","","5r122fzgvg","""2024-11-13T20:08:12.789Z""","948","materials/imgs/D24.png","arrowright","","[""materials/imgs/D74.png"",""materials/imgs/D3.png""]","false","random","","",""
"","","","","","html-keyboard-response","74","117736","0.0-13.0-0.2-0.15","5r122fzgvg","","5r122fzgvg","""2024-11-13T20:08:12.789Z""","null","+","null","","","","","","",""
"","","","","","image-keyboard-response","75","121875","0.0-13.0-0.2-1.15","5r122fzgvg","","5r122fzgvg","""2024-11-13T20:08:12.789Z""","4132","materials/imgs/D11.png","arrowright","","[""materials/imgs/D101.png"",""materials/imgs/D111.png""]","false","random","","",""
"","","","","","html-keyboard-response","76","122377","0.0-13.0-0.2-0.16","5r122fzgvg","","5r122fzgvg","""2024-11-13T20:08:12.789Z""","null","+","null","","","","","","",""
"","","","","","image-keyboard-response","77","123241","0.0-13.0-0.2-1.16","5r122fzgvg","","5r122fzgvg","""2024-11-13T20:08:12.789Z""","862","materials/imgs/D36.png","arrowright","","[""materials/imgs/D105.png"",""materials/imgs/D29.png""]","false","random","","",""
"","","","","","html-keyboard-response","78","123743","0.0-13.0-0.2-0.17","5r122fzgvg","","5r122fzgvg","""2024-11-13T20:08:12.789Z""","null","+","null","","","","","","",""
"","","","","","image-keyboard-response","79","124464","0.0-13.0-0.2-1.17","5r122fzgvg","","5r122fzgvg","""2024-11-13T20:08:12.789Z""","719","materials/imgs/D102.png","arrowright","","[""materials/imgs/D37.png"",""materials/imgs/D47.png""]","false","random","","",""
"","","","","","html-keyboard-response","80","124966","0.0-13.0-0.2-0.18","5r122fzgvg","","5r122fzgvg","""2024-11-13T20:08:12.789Z""","null","+","null","","","","","","",""
"","","","","","image-keyboard-response","81","125696","0.0-13.0-0.2-1.18","5r122fzgvg","","5r122fzgvg","""2024-11-13T20:08:12.789Z""","728","materials/imgs/D83.png","arrowright","","[""materials/imgs/D9.png"",""materials/imgs/D95.png""]","false","random","","",""
"","","","","","html-keyboard-response","82","126198","0.0-13.0-0.2-0.19","5r122fzgvg","","5r122fzgvg","""2024-11-13T20:08:12.789Z""","null","+","null","","","","","","",""
"","","","","","image-keyboard-response","83","127191","0.0-13.0-0.2-1.19","5r122fzgvg","","5r122fzgvg","""2024-11-13T20:08:12.789Z""","991","materials/imgs/D68.png","arrowright","","[""materials/imgs/D11.png"",""materials/imgs/D92.png""]","false","random","","",""
"","","","","","html-keyboard-response","84","127693","0.0-13.0-0.2-0.20","5r122fzgvg","","5r122fzgvg","""2024-11-13T20:08:12.789Z""","null","+","null","","","","","","",""
"","","","","","image-keyboard-response","85","128646","0.0-13.0-0.2-1.20","5r122fzgvg","","5r122fzgvg","""2024-11-13T20:08:12.789Z""","951","materials/imgs/D36.png","arrowright","","[""materials/imgs/D1.png"",""materials/imgs/D75.png""]","false","random","","",""
"","","","","","html-keyboard-response","86","129148","0.0-13.0-1.2-0.2","5r122fzgvg","","5r122fzgvg","""2024-11-13T20:08:12.789Z""","null","+","null","","","","","","",""
"","","","","","image-keyboard-response","87","129970","0.0-13.0-1.2-1.2","5r122fzgvg","","5r122fzgvg","""2024-11-13T20:08:12.789Z""","820","materials/imgs/D76.png","arrowleft","","[""materials/imgs/D76.png"",""materials/imgs/D78.png""]","","check","materials/imgs/D76.png","0","true"
"","","","","","html-keyboard-response","88","130472","0.0-13.0-2.2-0.4","5r122fzgvg","","5r122fzgvg","""2024-11-13T20:08:12.789Z""","null","+","null","","","","","","",""
"","","","","","image-keyboard-response","89","131710","0.0-13.0-2.2-1.4","5r122fzgvg","","5r122fzgvg","""2024-11-13T20:08:12.789Z""","1231","materials/imgs/D32.png","arrowleft","","[""materials/imgs/D68.png"",""materials/imgs/D96.png""]","false","validation","","",""
"","","","","","html-keyboard-response","90","132211","0.0-13.0-2.2-0.5","5r122fzgvg","","5r122fzgvg","""2024-11-13T20:08:12.789Z""","null","+","null","","","","","","",""
"","","","","","image-keyboard-response","91","132977","0.0-13.0-2.2-1.5","5r122fzgvg","","5r122fzgvg","""2024-11-13T20:08:12.789Z""","765","materials/imgs/D11.png","arrowleft","","[""materials/imgs/D83.png"",""materials/imgs/D48.png""]","false","validation","","",""
"","","","","","html-keyboard-response","92","133480","0.0-13.0-0.3-0.21","5r122fzgvg","","5r122fzgvg","""2024-11-13T20:08:12.789Z""","null","+","null","","","","","","",""
"","","","","","image-keyboard-response","93","134906","0.0-13.0-0.3-1.21","5r122fzgvg","","5r122fzgvg","""2024-11-13T20:08:12.789Z""","1425","materials/imgs/D105.png","arrowright","","[""materials/imgs/D6.png"",""materials/imgs/D3.png""]","false","random","","",""
"","","","","","html-keyboard-response","94","135409","0.0-13.0-0.3-0.22","5r122fzgvg","","5r122fzgvg","""2024-11-13T20:08:12.789Z""","null","+","null","","","","","","",""
"","","","","","image-keyboard-response","95","135880","0.0-13.0-0.3-1.22","5r122fzgvg","","5r122fzgvg","""2024-11-13T20:08:12.789Z""","470","materials/imgs/D105.png","arrowright","","[""materials/imgs/D74.png"",""materials/imgs/D85.png""]","true","random","","",""
"","","","","","html-keyboard-response","96","139653","0.0-13.0-0.3-2.22-0.22","5r122fzgvg","","5r122fzgvg","""2024-11-13T20:08:12.789Z""","3771","<p><strong>You're going too fast.</strong><p>Please slow down and assess each triplet.<p>Press 'y' to continue.</p></p>","y","","","","","","",""
"","","","","","html-keyboard-response","97","140155","0.0-13.0-0.3-0.23","5r122fzgvg","","5r122fzgvg","""2024-11-13T20:08:12.789Z""","null","+","null","","","","","","",""
"","","","","","image-keyboard-response","98","141355","0.0-13.0-0.3-1.23","5r122fzgvg","","5r122fzgvg","""2024-11-13T20:08:12.789Z""","1198","materials/imgs/D11.png","arrowright","","[""materials/imgs/D87.png"",""materials/imgs/D83.png""]","false","random","","",""
"","","","","","html-keyboard-response","99","141857","0.0-13.0-0.3-0.24","5r122fzgvg","","5r122fzgvg","""2024-11-13T20:08:12.789Z""","null","+","null","","","","","","",""
"","","","","","image-keyboard-response","100","142748","0.0-13.0-0.3-1.24","5r122fzgvg","","5r122fzgvg","""2024-11-13T20:08:12.789Z""","883","materials/imgs/D106.png","arrowright","","[""materials/imgs/D20.png"",""materials/imgs/D78.png""]","false","random","","",""
"","","","","","html-keyboard-response","101","143251","0.0-13.0-0.3-0.25","5r122fzgvg","","5r122fzgvg","""2024-11-13T20:08:12.789Z""","null","+","null","","","","","","",""
"","","","","","image-keyboard-response","102","143997","0.0-13.0-0.3-1.25","5r122fzgvg","","5r122fzgvg","""2024-11-13T20:08:12.789Z""","745","materials/imgs/D32.png","arrowright","","[""materials/imgs/D21.png"",""materials/imgs/D78.png""]","false","random","","",""
"","","","","","html-keyboard-response","103","144499","0.0-13.0-0.3-0.26","5r122fzgvg","","5r122fzgvg","""2024-11-13T20:08:12.789Z""","null","+","null","","","","","","",""
"","","","","","image-keyboard-response","104","146595","0.0-13.0-0.3-1.26","5r122fzgvg","","5r122fzgvg","""2024-11-13T20:08:12.789Z""","2095","materials/imgs/D85.png","arrowleft","","[""materials/imgs/D52.png"",""materials/imgs/D56.png""]","false","random","","",""
"","","","","","html-keyboard-response","105","147097","0.0-13.0-0.3-0.27","5r122fzgvg","","5r122fzgvg","""2024-11-13T20:08:12.789Z""","null","+","null","","","","","","",""
"","","","","","image-keyboard-response","106","147967","0.0-13.0-0.3-1.27","5r122fzgvg","","5r122fzgvg","""2024-11-13T20:08:12.789Z""","868","materials/imgs/D22.png","arrowright","","[""materials/imgs/D9.png"",""materials/imgs/D82.png""]","false","random","","",""
"","","","","","html-keyboard-response","107","148469","0.0-13.0-1.3-0.3","5r122fzgvg","","5r122fzgvg","""2024-11-13T20:08:12.789Z""","null","+","null","","","","","","",""
"","","","","","image-keyboard-response","108","149159","0.0-13.0-1.3-1.3","5r122fzgvg","","5r122fzgvg","""2024-11-13T20:08:12.789Z""","689","materials/imgs/D46.png","arrowleft","","[""materials/imgs/D46.png"",""materials/imgs/D26.png""]","","check","materials/imgs/D46.png","0","true"
"","","","","","html-keyboard-response","109","149661","0.0-13.0-2.3-0.6","5r122fzgvg","","5r122fzgvg","""2024-11-13T20:08:12.789Z""","null","+","null","","","","","","",""
"","","","","","image-keyboard-response","110","151162","0.0-13.0-2.3-1.6","5r122fzgvg","","5r122fzgvg","""2024-11-13T20:08:12.789Z""","1500","materials/imgs/D37.png","arrowright","","[""materials/imgs/D84.png"",""materials/imgs/D111.png""]","false","validation","","",""
"","","","","","html-keyboard-response","111","151664","0.0-13.0-2.3-0.7","5r122fzgvg","","5r122fzgvg","""2024-11-13T20:08:12.789Z""","null","+","null","","","","","","",""
"","","","","","image-keyboard-response","112","153342","0.0-13.0-2.3-1.7","5r122fzgvg","","5r122fzgvg","""2024-11-13T20:08:12.789Z""","1671","materials/imgs/D8.png","arrowright","","[""materials/imgs/D101.png"",""materials/imgs/D52.png""]","false","validation","","",""
"","","","","","html-keyboard-response","113","153844","0.0-13.0-0.4-0.28","5r122fzgvg","","5r122fzgvg","""2024-11-13T20:08:12.789Z""","null","+","null","","","","","","",""
"","","","","","image-keyboard-response","114","154487","0.0-13.0-0.4-1.28","5r122fzgvg","","5r122fzgvg","""2024-11-13T20:08:12.789Z""","641","materials/imgs/D82.png","arrowright","","[""materials/imgs/D92.png"",""materials/imgs/D80.png""]","false","random","","",""
"","","","","","html-keyboard-response","115","154989","0.0-13.0-0.4-0.29","5r122fzgvg","","5r122fzgvg","""2024-11-13T20:08:12.789Z""","null","+","null","","","","","","",""
"","","","","","image-keyboard-response","116","157087","0.0-13.0-0.4-1.29","5r122fzgvg","","5r122fzgvg","""2024-11-13T20:08:12.789Z""","2096","materials/imgs/D25.png","arrowright","","[""materials/imgs/D3.png"",""materials/imgs/D84.png""]","false","random","","",""
"","","","","","html-keyboard-response","117","157589","0.0-13.0-0.4-0.30","5r122fzgvg","","5r122fzgvg","""2024-11-13T20:08:12.789Z""","null","+","null","","","","","","",""
"","","","","","image-keyboard-response","118","159009","0.0-13.0-0.4-1.30","5r122fzgvg","","5r122fzgvg","""2024-11-13T20:08:12.789Z""","1418","materials/imgs/D46.png","arrowright","","[""materials/imgs/D92.png"",""materials/imgs/D68.png""]","false","random","","",""
"","","","","","html-keyboard-response","119","159511","0.0-13.0-0.4-0.31","5r122fzgvg","","5r122fzgvg","""2024-11-13T20:08:12.789Z""","null","+","null","","","","","","",""
"","","","","","image-keyboard-response","120","163366","0.0-13.0-0.4-1.31","5r122fzgvg","","5r122fzgvg","""2024-11-13T20:08:12.789Z""","3853","materials/imgs/D8.png","arrowright","","[""materials/imgs/D68.png"",""materials/imgs/D47.png""]","false","random","","",""
"","","","","","html-keyboard-response","121","163868","0.0-13.0-0.4-0.32","5r122fzgvg","","5r122fzgvg","""2024-11-13T20:08:12.789Z""","null","+","null","","","","","","",""
"","","","","","image-keyboard-response","122","164401","0.0-13.0-0.4-1.32","5r122fzgvg","","5r122fzgvg","""2024-11-13T20:08:12.789Z""","531","materials/imgs/D92.png","arrowright","","[""materials/imgs/D8.png"",""materials/imgs/D57.png""]","false","random","","",""
"","","","","","html-keyboard-response","123","164903","0.0-13.0-0.4-0.33","5r122fzgvg","","5r122fzgvg","""2024-11-13T20:08:12.789Z""","null","+","null","","","","","","",""
"","","","","","image-keyboard-response","124","165634","0.0-13.0-0.4-1.33","5r122fzgvg","","5r122fzgvg","""2024-11-13T20:08:12.789Z""","729","materials/imgs/D25.png","arrowright","","[""materials/imgs/D29.png"",""materials/imgs/D94.png""]","false","random","","",""
"","","","","","html-keyboard-response","125","166136","0.0-13.0-0.4-0.34","5r122fzgvg","","5r122fzgvg","""2024-11-13T20:08:12.789Z""","null","+","null","","","","","","",""
"","","","","","image-keyboard-response","126","166863","0.0-13.0-0.4-1.34","5r122fzgvg","","5r122fzgvg","""2024-11-13T20:08:12.789Z""","722","materials/imgs/D53.png","arrowleft","","[""materials/imgs/D79.png"",""materials/imgs/D8.png""]","false","random","","",""
"","","","","","html-keyboard-response","127","167365","0.0-13.0-1.4-0.4","5r122fzgvg","","5r122fzgvg","""2024-11-13T20:08:12.789Z""","null","+","null","","","","","","",""
"","","","","","image-keyboard-response","128","167953","0.0-13.0-1.4-1.4","5r122fzgvg","","5r122fzgvg","""2024-11-13T20:08:12.789Z""","586","materials/imgs/D26.png","arrowleft","","[""materials/imgs/D26.png"",""materials/imgs/D46.png""]","","check","materials/imgs/D26.png","0","true"
"","","","","","html-keyboard-response","129","168455","0.0-13.0-2.4-0.8","5r122fzgvg","","5r122fzgvg","""2024-11-13T20:08:12.789Z""","null","+","null","","","","","","",""
"","","","","","image-keyboard-response","130","169238","0.0-13.0-2.4-1.8","5r122fzgvg","","5r122fzgvg","""2024-11-13T20:08:12.789Z""","781","materials/imgs/D85.png","arrowleft","","[""materials/imgs/D6.png"",""materials/imgs/D111.png""]","false","validation","","",""
"","","","","","html-keyboard-response","131","169740","0.0-13.0-2.4-0.9","5r122fzgvg","","5r122fzgvg","""2024-11-13T20:08:12.789Z""","null","+","null","","","","","","",""
"","","","","","image-keyboard-response","132","170814","0.0-13.0-2.4-1.9","5r122fzgvg","","5r122fzgvg","""2024-11-13T20:08:12.789Z""","1074","materials/imgs/D6.png","arrowright","","[""materials/imgs/D26.png"",""materials/imgs/D76.png""]","false","validation","","",""
"","","","","","html-button-response","133","172856","0.0-14.0","5r122fzgvg","","5r122fzgvg","""2024-11-13T20:08:12.789Z""","2040","You have completed 25% of the trials. Please click 'Continue' when you are ready proceed.","0","","","","","","",""
"","","","","","html-keyboard-response","134","173357","0.0-15.0-0.0-0.0","5r122fzgvg","","5r122fzgvg","""2024-11-13T20:08:12.789Z""","null","+","null","","","","","","",""
"","","","","","image-keyboard-response","135","174908","0.0-15.0-0.0-1.0","5r122fzgvg","","5r122fzgvg","""2024-11-13T20:08:12.789Z""","1550","materials/imgs/D75.png","arrowright","","[""materials/imgs/D94.png"",""materials/imgs/D51.png""]","false","random","","",""
"","","","","","html-keyboard-response","136","175410","0.0-15.0-0.0-0.1","5r122fzgvg","","5r122fzgvg","""2024-11-13T20:08:12.789Z""","null","+","null","","","","","","",""
"","","","","","image-keyboard-response","137","176892","0.0-15.0-0.0-1.1","5r122fzgvg","","5r122fzgvg","""2024-11-13T20:08:12.789Z""","1478","materials/imgs/D106.png","arrowleft","","[""materials/imgs/D34.png"",""materials/imgs/D111.png""]","false","random","","",""
"","","","","","html-keyboard-response","138","177395","0.0-15.0-0.0-0.2","5r122fzgvg","","5r122fzgvg","""2024-11-13T20:08:12.789Z""","null","+","null","","","","","","",""
"","","","","","image-keyboard-response","139","178555","0.0-15.0-0.0-1.2","5r122fzgvg","","5r122fzgvg","""2024-11-13T20:08:12.789Z""","1158","materials/imgs/D96.png","arrowleft","","[""materials/imgs/D20.png"",""materials/imgs/D51.png""]","false","random","","",""
"","","","","","html-keyboard-response","140","179057","0.0-15.0-0.0-0.3","5r122fzgvg","","5r122fzgvg","""2024-11-13T20:08:12.789Z""","null","+","null","","","","","","",""
"","","","","","image-keyboard-response","141","179834","0.0-15.0-0.0-1.3","5r122fzgvg","","5r122fzgvg","""2024-11-13T20:08:12.789Z""","775","materials/imgs/D64.png","arrowright","","[""materials/imgs/D17.png"",""materials/imgs/D68.png""]","false","random","","",""
"","","","","","html-keyboard-response","142","180336","0.0-15.0-0.0-0.4","5r122fzgvg","","5r122fzgvg","""2024-11-13T20:08:12.789Z""","null","+","null","","","","","","",""
"","","","","","image-keyboard-response","143","181202","0.0-15.0-0.0-1.4","5r122fzgvg","","5r122fzgvg","""2024-11-13T20:08:12.789Z""","864","materials/imgs/D19.png","arrowleft","","[""materials/imgs/D81.png"",""materials/imgs/D68.png""]","false","random","","",""
"","","","","","html-keyboard-response","144","181704","0.0-15.0-0.0-0.5","5r122fzgvg","","5r122fzgvg","""2024-11-13T20:08:12.789Z""","null","+","null","","","","","","",""
"","","","","","image-keyboard-response","145","182547","0.0-15.0-0.0-1.5","5r122fzgvg","","5r122fzgvg","""2024-11-13T20:08:12.789Z""","842","materials/imgs/D102.png","arrowleft","","[""materials/imgs/D66.png"",""materials/imgs/D57.png""]","false","random","","",""
"","","","","","html-keyboard-response","146","183049","0.0-15.0-0.0-0.6","5r122fzgvg","","5r122fzgvg","""2024-11-13T20:08:12.789Z""","null","+","null","","","","","","",""
"","","","","","image-keyboard-response","147","183742","0.0-15.0-0.0-1.6","5r122fzgvg","","5r122fzgvg","""2024-11-13T20:08:12.789Z""","691","materials/imgs/D52.png","arrowleft","","[""materials/imgs/D20.png"",""materials/imgs/D9.png""]","false","random","","",""
"","","","","","html-keyboard-response","148","184244","0.0-15.0-1.0-0.0","5r122fzgvg","","5r122fzgvg","""2024-11-13T20:08:12.789Z""","null","+","null","","","","","","",""
"","","","","","image-keyboard-response","149","184823","0.0-15.0-1.0-1.0","5r122fzgvg","","5r122fzgvg","""2024-11-13T20:08:12.789Z""","578","materials/imgs/D53.png","arrowright","","[""materials/imgs/D64.png"",""materials/imgs/D53.png""]","","check","materials/imgs/D53.png","1","true"
"","","","","","html-keyboard-response","150","185325","0.0-15.0-2.0-0.0","5r122fzgvg","","5r122fzgvg","""2024-11-13T20:08:12.789Z""","null","+","null","","","","","","",""
"","","","","","image-keyboard-response","151","186827","0.0-15.0-2.0-1.0","5r122fzgvg","","5r122fzgvg","""2024-11-13T20:08:12.789Z""","1501","materials/imgs/D65.png","arrowleft","","[""materials/imgs/D4.png"",""materials/imgs/D16.png""]","false","validation","","",""
"","","","","","html-keyboard-response","152","187329","0.0-15.0-2.0-0.1","5r122fzgvg","","5r122fzgvg","""2024-11-13T20:08:12.789Z""","null","+","null","","","","","","",""
"","","","","","image-keyboard-response","153","188129","0.0-15.0-2.0-1.1","5r122fzgvg","","5r122fzgvg","""2024-11-13T20:08:12.789Z""","797","materials/imgs/D11.png","arrowleft","","[""materials/imgs/D83.png"",""materials/imgs/D48.png""]","false","validation","","",""
"","","","","","html-keyboard-response","154","188631","0.0-15.0-0.1-0.7","5r122fzgvg","","5r122fzgvg","""2024-11-13T20:08:12.789Z""","null","+","null","","","","","","",""
"","","","","","image-keyboard-response","155","189492","0.0-15.0-0.1-1.7","5r122fzgvg","","5r122fzgvg","""2024-11-13T20:08:12.789Z""","859","materials/imgs/D105.png","arrowleft","","[""materials/imgs/D78.png"",""materials/imgs/D24.png""]","false","random","","",""
"","","","","","html-keyboard-response","156","189994","0.0-15.0-0.1-0.8","5r122fzgvg","","5r122fzgvg","""2024-11-13T20:08:12.789Z""","null","+","null","","","","","","",""
"","","","","","image-keyboard-response","157","193035","0.0-15.0-0.1-1.8","5r122fzgvg","","5r122fzgvg","""2024-11-13T20:08:12.789Z""","3039","materials/imgs/D106.png","arrowleft","","[""materials/imgs/D34.png"",""materials/imgs/D22.png""]","false","random","","",""
"","","","","","html-keyboard-response","158","193538","0.0-15.0-0.1-0.9","5r122fzgvg","","5r122fzgvg","""2024-11-13T20:08:12.789Z""","null","+","null","","","","","","",""
"","","","","","image-keyboard-response","159","194385","0.0-15.0-0.1-1.9","5r122fzgvg","","5r122fzgvg","""2024-11-13T20:08:12.789Z""","845","materials/imgs/D21.png","arrowright","","[""materials/imgs/D47.png"",""materials/imgs/D35.png""]","false","random","","",""
"","","","","","html-keyboard-response","160","194887","0.0-15.0-0.1-0.10","5r122fzgvg","","5r122fzgvg","""2024-11-13T20:08:12.789Z""","null","+","null","","","","","","",""
"","","","","","image-keyboard-response","161","196927","0.0-15.0-0.1-1.10","5r122fzgvg","","5r122fzgvg","""2024-11-13T20:08:12.789Z""","2037","materials/imgs/D6.png","arrowright","","[""materials/imgs/D64.png"",""materials/imgs/D46.png""]","false","random","","",""
"","","","","","html-keyboard-response","162","197429","0.0-15.0-0.1-0.11","5r122fzgvg","","5r122fzgvg","""2024-11-13T20:08:12.789Z""","null","+","null","","","","","","",""
"","","","","","image-keyboard-response","163","198763","0.0-15.0-0.1-1.11","5r122fzgvg","","5r122fzgvg","""2024-11-13T20:08:12.789Z""","1332","materials/imgs/D18.png","arrowright","","[""materials/imgs/D106.png"",""materials/imgs/D82.png""]","false","random","","",""
"","","","","","html-keyboard-response","164","199265","0.0-15.0-0.1-0.12","5r122fzgvg","","5r122fzgvg","""2024-11-13T20:08:12.789Z""","null","+","null","","","","","","",""
"","","","","","image-keyboard-response","165","200240","0.0-15.0-0.1-1.12","5r122fzgvg","","5r122fzgvg","""2024-11-13T20:08:12.789Z""","974","materials/imgs/D79.png","arrowleft","","[""materials/imgs/D84.png"",""materials/imgs/D111.png""]","false","random","","",""
"","","","","","html-keyboard-response","166","200742","0.0-15.0-0.1-0.13","5r122fzgvg","","5r122fzgvg","""2024-11-13T20:08:12.789Z""","null","+","null","","","","","","",""
"","","","","","image-keyboard-response","167","201768","0.0-15.0-0.1-1.13","5r122fzgvg","","5r122fzgvg","""2024-11-13T20:08:12.789Z""","1025","materials/imgs/D78.png","arrowleft","","[""materials/imgs/D76.png"",""materials/imgs/D83.png""]","false","random","","",""
"","","","","","html-keyboard-response","168","202270","0.0-15.0-1.1-0.1","5r122fzgvg","","5r122fzgvg","""2024-11-13T20:08:12.789Z""","null","+","null","","","","","","",""
"","","","","","image-keyboard-response","169","203166","0.0-15.0-1.1-1.1","5r122fzgvg","","5r122fzgvg","""2024-11-13T20:08:12.789Z""","894","materials/imgs/D64.png","arrowleft","","[""materials/imgs/D64.png"",""materials/imgs/D53.png""]","","check","materials/imgs/D64.png","0","true"
"","","","","","html-keyboard-response","170","203668","0.0-15.0-2.1-0.2","5r122fzgvg","","5r122fzgvg","""2024-11-13T20:08:12.789Z""","null","+","null","","","","","","",""
"","","","","","image-keyboard-response","171","205803","0.0-15.0-2.1-1.2","5r122fzgvg","","5r122fzgvg","""2024-11-13T20:08:12.789Z""","2133","materials/imgs/D77.png","arrowright","","[""materials/imgs/D102.png"",""materials/imgs/D65.png""]","false","validation","","",""
"","","","","","html-keyboard-response","172","206305","0.0-15.0-2.1-0.3","5r122fzgvg","","5r122fzgvg","""2024-11-13T20:08:12.789Z""","null","+","null","","","","","","",""
"","","","","","image-keyboard-response","173","207993","0.0-15.0-2.1-1.3","5r122fzgvg","","5r122fzgvg","""2024-11-13T20:08:12.789Z""","1687","materials/imgs/D20.png","arrowleft","","[""materials/imgs/D84.png"",""materials/imgs/D85.png""]","false","validation","","",""
"","","","","","html-keyboard-response","174","208495","0.0-15.0-0.2-0.14","5r122fzgvg","","5r122fzgvg","""2024-11-13T20:08:12.789Z""","null","+","null","","","","","","",""
"","","","","","image-keyboard-response","175","209368","0.0-15.0-0.2-1.14","5r122fzgvg","","5r122fzgvg","""2024-11-13T20:08:12.789Z""","872","materials/imgs/D83.png","arrowright","","[""materials/imgs/D75.png"",""materials/imgs/D82.png""]","false","random","","",""
"","","","","","html-keyboard-response","176","209870","0.0-15.0-0.2-0.15","5r122fzgvg","","5r122fzgvg","""2024-11-13T20:08:12.789Z""","null","+","null","","","","","","",""
"","","","","","image-keyboard-response","177","211488","0.0-15.0-0.2-1.15","5r122fzgvg","","5r122fzgvg","""2024-11-13T20:08:12.789Z""","1616","materials/imgs/D87.png","arrowright","","[""materials/imgs/D4.png"",""materials/imgs/D92.png""]","false","random","","",""
"","","","","","html-keyboard-response","178","211990","0.0-15.0-0.2-0.16","5r122fzgvg","","5r122fzgvg","""2024-11-13T20:08:12.789Z""","null","+","null","","","","","","",""
"","","","","","image-keyboard-response","179","212897","0.0-15.0-0.2-1.16","5r122fzgvg","","5r122fzgvg","""2024-11-13T20:08:12.789Z""","906","materials/imgs/D74.png","arrowright","","[""materials/imgs/D14.png"",""materials/imgs/D84.png""]","false","random","","",""
"","","","","","html-keyboard-response","180","213399","0.0-15.0-0.2-0.17","5r122fzgvg","","5r122fzgvg","""2024-11-13T20:08:12.789Z""","null","+","null","","","","","","",""
"","","","","","image-keyboard-response","181","214605","0.0-15.0-0.2-1.17","5r122fzgvg","","5r122fzgvg","""2024-11-13T20:08:12.789Z""","1204","materials/imgs/D75.png","arrowright","","[""materials/imgs/D16.png"",""materials/imgs/D68.png""]","false","random","","",""
"","","","","","html-keyboard-response","182","215108","0.0-15.0-0.2-0.18","5r122fzgvg","","5r122fzgvg","""2024-11-13T20:08:12.789Z""","null","+","null","","","","","","",""
"","","","","","image-keyboard-response","183","216192","0.0-15.0-0.2-1.18","5r122fzgvg","","5r122fzgvg","""2024-11-13T20:08:12.789Z""","1082","materials/imgs/D25.png","arrowright","","[""materials/imgs/D9.png"",""materials/imgs/D80.png""]","false","random","","",""
"","","","","","html-keyboard-response","184","216694","0.0-15.0-0.2-0.19","5r122fzgvg","","5r122fzgvg","""2024-11-13T20:08:12.789Z""","null","+","null","","","","","","",""
"","","","","","image-keyboard-response","185","217476","0.0-15.0-0.2-1.19","5r122fzgvg","","5r122fzgvg","""2024-11-13T20:08:12.789Z""","780","materials/imgs/D9.png","arrowleft","","[""materials/imgs/D4.png"",""materials/imgs/D49.png""]","false","random","","",""
"","","","","","html-keyboard-response","186","217978","0.0-15.0-0.2-0.20","5r122fzgvg","","5r122fzgvg","""2024-11-13T20:08:12.789Z""","null","+","null","","","","","","",""
"","","","","","image-keyboard-response","187","218911","0.0-15.0-0.2-1.20","5r122fzgvg","","5r122fzgvg","""2024-11-13T20:08:12.789Z""","931","materials/imgs/D19.png","arrowleft","","[""materials/imgs/D24.png"",""materials/imgs/D56.png""]","false","random","","",""
"","","","","","html-keyboard-response","188","219413","0.0-15.0-1.2-0.2","5r122fzgvg","","5r122fzgvg","""2024-11-13T20:08:12.789Z""","null","+","null","","","","","","",""
"","","","","","image-keyboard-response","189","220054","0.0-15.0-1.2-1.2","5r122fzgvg","","5r122fzgvg","""2024-11-13T20:08:12.789Z""","639","materials/imgs/D64.png","arrowleft","","[""materials/imgs/D64.png"",""materials/imgs/D53.png""]","","check","materials/imgs/D64.png","0","true"
"","","","","","html-keyboard-response","190","220557","0.0-15.0-2.2-0.4","5r122fzgvg","","5r122fzgvg","""2024-11-13T20:08:12.789Z""","null","+","null","","","","","","",""
"","","","","","image-keyboard-response","191","221669","0.0-15.0-2.2-1.4","5r122fzgvg","","5r122fzgvg","""2024-11-13T20:08:12.789Z""","1111","materials/imgs/D18.png","arrowleft","","[""materials/imgs/D32.png"",""materials/imgs/D57.png""]","false","validation","","",""
"","","","","","html-keyboard-response","192","222171","0.0-15.0-2.2-0.5","5r122fzgvg","","5r122fzgvg","""2024-11-13T20:08:12.789Z""","null","+","null","","","","","","",""
"","","","","","image-keyboard-response","193","223177","0.0-15.0-2.2-1.5","5r122fzgvg","","5r122fzgvg","""2024-11-13T20:08:12.789Z""","1005","materials/imgs/D95.png","arrowright","","[""materials/imgs/D36.png"",""materials/imgs/D4.png""]","false","validation","","",""
"","","","","","html-keyboard-response","194","223679","0.0-15.0-0.3-0.21","5r122fzgvg","","5r122fzgvg","""2024-11-13T20:08:12.789Z""","null","+","null","","","","","","",""
"","","","","","image-keyboard-response","195","224665","0.0-15.0-0.3-1.21","5r122fzgvg","","5r122fzgvg","""2024-11-13T20:08:12.789Z""","984","materials/imgs/D103.png","arrowright","","[""materials/imgs/D20.png"",""materials/imgs/D47.png""]","false","random","","",""
"","","","","","html-keyboard-response","196","225166","0.0-15.0-0.3-0.22","5r122fzgvg","","5r122fzgvg","""2024-11-13T20:08:12.789Z""","null","+","null","","","","","","",""
"","","","","","image-keyboard-response","197","225966","0.0-15.0-0.3-1.22","5r122fzgvg","","5r122fzgvg","""2024-11-13T20:08:12.789Z""","799","materials/imgs/D37.png","arrowright","","[""materials/imgs/D48.png"",""materials/imgs/D103.png""]","false","random","","",""
"","","","","","html-keyboard-response","198","226468","0.0-15.0-0.3-0.23","5r122fzgvg","","5r122fzgvg","""2024-11-13T20:08:12.789Z""","null","+","null","","","","","","",""
"","","","","","image-keyboard-response","199","227305","0.0-15.0-0.3-1.23","5r122fzgvg","","5r122fzgvg","""2024-11-13T20:08:12.789Z""","834","materials/imgs/D95.png","arrowright","","[""materials/imgs/D82.png"",""materials/imgs/D75.png""]","false","random","","",""
"","","","","","html-keyboard-response","200","227807","0.0-15.0-0.3-0.24","5r122fzgvg","","5r122fzgvg","""2024-11-13T20:08:12.789Z""","null","+","null","","","","","","",""
"","","","","","image-keyboard-response","201","228814","0.0-15.0-0.3-1.24","5r122fzgvg","","5r122fzgvg","""2024-11-13T20:08:12.789Z""","1006","materials/imgs/D4.png","arrowright","","[""materials/imgs/D65.png"",""materials/imgs/D66.png""]","false","random","","",""
"","","","","","html-keyboard-response","202","229316","0.0-15.0-0.3-0.25","5r122fzgvg","","5r122fzgvg","""2024-11-13T20:08:12.789Z""","null","+","null","","","","","","",""
"","","","","","image-keyboard-response","203","230341","0.0-15.0-0.3-1.25","5r122fzgvg","","5r122fzgvg","""2024-11-13T20:08:12.789Z""","1024","materials/imgs/D4.png","arrowright","","[""materials/imgs/D46.png"",""materials/imgs/D17.png""]","false","random","","",""
"","","","","","html-keyboard-response","204","230843","0.0-15.0-0.3-0.26","5r122fzgvg","","5r122fzgvg","""2024-11-13T20:08:12.789Z""","null","+","null","","","","","","",""
"","","","","","image-keyboard-response","205","232068","0.0-15.0-0.3-1.26","5r122fzgvg","","5r122fzgvg","""2024-11-13T20:08:12.789Z""","1223","materials/imgs/D46.png","arrowleft","","[""materials/imgs/D83.png"",""materials/imgs/D80.png""]","false","random","","",""
"","","","","","html-keyboard-response","206","232570","0.0-15.0-0.3-0.27","5r122fzgvg","","5r122fzgvg","""2024-11-13T20:08:12.789Z""","null","+","null","","","","","","",""
"","","","","","image-keyboard-response","207","233294","0.0-15.0-0.3-1.27","5r122fzgvg","","5r122fzgvg","""2024-11-13T20:08:12.789Z""","722","materials/imgs/D75.png","arrowleft","","[""materials/imgs/D18.png"",""materials/imgs/D106.png""]","false","random","","",""
"","","","","","html-keyboard-response","208","233796","0.0-15.0-1.3-0.3","5r122fzgvg","","5r122fzgvg","""2024-11-13T20:08:12.789Z""","null","+","null","","","","","","",""
"","","","","","image-keyboard-response","209","234380","0.0-15.0-1.3-1.3","5r122fzgvg","","5r122fzgvg","""2024-11-13T20:08:12.789Z""","583","materials/imgs/D53.png","arrowright","","[""materials/imgs/D64.png"",""materials/imgs/D53.png""]","","check","materials/imgs/D53.png","1","true"
"","","","","","html-keyboard-response","210","234882","0.0-15.0-2.3-0.6","5r122fzgvg","","5r122fzgvg","""2024-11-13T20:08:12.789Z""","null","+","null","","","","","","",""
"","","","","","image-keyboard-response","211","235672","0.0-15.0-2.3-1.6","5r122fzgvg","","5r122fzgvg","""2024-11-13T20:08:12.789Z""","789","materials/imgs/D16.png","arrowleft","","[""materials/imgs/D52.png"",""materials/imgs/D25.png""]","false","validation","","",""
"","","","","","html-keyboard-response","212","236174","0.0-15.0-2.3-0.7","5r122fzgvg","","5r122fzgvg","""2024-11-13T20:08:12.789Z""","null","+","null","","","","","","",""
"","","","","","image-keyboard-response","213","237044","0.0-15.0-2.3-1.7","5r122fzgvg","","5r122fzgvg","""2024-11-13T20:08:12.789Z""","869","materials/imgs/D35.png","arrowright","","[""materials/imgs/D83.png"",""materials/imgs/D24.png""]","false","validation","","",""
"","","","","","html-keyboard-response","214","237546","0.0-15.0-0.4-0.28","5r122fzgvg","","5r122fzgvg","""2024-11-13T20:08:12.789Z""","null","+","null","","","","","","",""
"","","","","","image-keyboard-response","215","238947","0.0-15.0-0.4-1.28","5r122fzgvg","","5r122fzgvg","""2024-11-13T20:08:12.789Z""","1400","materials/imgs/D55.png","arrowright","","[""materials/imgs/D1.png"",""materials/imgs/D105.png""]","false","random","","",""
"","","","","","html-keyboard-response","216","239449","0.0-15.0-0.4-0.29","5r122fzgvg","","5r122fzgvg","""2024-11-13T20:08:12.789Z""","null","+","null","","","","","","",""
"","","","","","image-keyboard-response","217","240409","0.0-15.0-0.4-1.29","5r122fzgvg","","5r122fzgvg","""2024-11-13T20:08:12.789Z""","958","materials/imgs/D57.png","arrowleft","","[""materials/imgs/D103.png"",""materials/imgs/D25.png""]","false","random","","",""
"","","","","","html-keyboard-response","218","240911","0.0-15.0-0.4-0.30","5r122fzgvg","","5r122fzgvg","""2024-11-13T20:08:12.789Z""","null","+","null","","","","","","",""
"","","","","","image-keyboard-response","219","242702","0.0-15.0-0.4-1.30","5r122fzgvg","","5r122fzgvg","""2024-11-13T20:08:12.789Z""","1790","materials/imgs/D101.png","arrowleft","","[""materials/imgs/D105.png"",""materials/imgs/D85.png""]","false","random","","",""
"","","","","","html-keyboard-response","220","243204","0.0-15.0-0.4-0.31","5r122fzgvg","","5r122fzgvg","""2024-11-13T20:08:12.789Z""","null","+","null","","","","","","",""
"","","","","","image-keyboard-response","221","244090","0.0-15.0-0.4-1.31","5r122fzgvg","","5r122fzgvg","""2024-11-13T20:08:12.789Z""","884","materials/imgs/D53.png","arrowleft","","[""materials/imgs/D17.png"",""materials/imgs/D105.png""]","false","random","","",""
"","","","","","html-keyboard-response","222","244592","0.0-15.0-0.4-0.32","5r122fzgvg","","5r122fzgvg","""2024-11-13T20:08:12.789Z""","null","+","null","","","","","","",""
"","","","","","image-keyboard-response","223","245434","0.0-15.0-0.4-1.32","5r122fzgvg","","5r122fzgvg","""2024-11-13T20:08:12.789Z""","840","materials/imgs/D53.png","arrowright","","[""materials/imgs/D11.png"",""materials/imgs/D29.png""]","false","random","","",""
"","","","","","html-keyboard-response","224","245936","0.0-15.0-0.4-0.33","5r122fzgvg","","5r122fzgvg","""2024-11-13T20:08:12.789Z""","null","+","null","","","","","","",""
"","","","","","image-keyboard-response","225","246765","0.0-15.0-0.4-1.33","5r122fzgvg","","5r122fzgvg","""2024-11-13T20:08:12.789Z""","827","materials/imgs/D66.png","arrowright","","[""materials/imgs/D48.png"",""materials/imgs/D57.png""]","false","random","","",""
"","","","","","html-keyboard-response","226","247267","0.0-15.0-0.4-0.34","5r122fzgvg","","5r122fzgvg","""2024-11-13T20:08:12.789Z""","null","+","null","","","","","","",""
"","","","","","image-keyboard-response","227","248031","0.0-15.0-0.4-1.34","5r122fzgvg","","5r122fzgvg","""2024-11-13T20:08:12.789Z""","762","materials/imgs/D34.png","arrowleft","","[""materials/imgs/D102.png"",""materials/imgs/D79.png""]","false","random","","",""
"","","","","","html-keyboard-response","228","248533","0.0-15.0-1.4-0.4","5r122fzgvg","","5r122fzgvg","""2024-11-13T20:08:12.789Z""","null","+","null","","","","","","",""
"","","","","","image-keyboard-response","229","249410","0.0-15.0-1.4-1.4","5r122fzgvg","","5r122fzgvg","""2024-11-13T20:08:12.789Z""","876","materials/imgs/D18.png","arrowright","","[""materials/imgs/D8.png"",""materials/imgs/D18.png""]","","check","materials/imgs/D18.png","1","true"
"","","","","","html-keyboard-response","230","249912","0.0-15.0-2.4-0.8","5r122fzgvg","","5r122fzgvg","""2024-11-13T20:08:12.789Z""","null","+","null","","","","","","",""
"","","","","","image-keyboard-response","231","250491","0.0-15.0-2.4-1.8","5r122fzgvg","","5r122fzgvg","""2024-11-13T20:08:12.789Z""","577","materials/imgs/D9.png","arrowright","","[""materials/imgs/D103.png"",""materials/imgs/D4.png""]","false","validation","","",""
"","","","","","html-keyboard-response","232","250993","0.0-15.0-2.4-0.9","5r122fzgvg","","5r122fzgvg","""2024-11-13T20:08:12.789Z""","null","+","null","","","","","","",""
"","","","","","image-keyboard-response","233","251774","0.0-15.0-2.4-1.9","5r122fzgvg","","5r122fzgvg","""2024-11-13T20:08:12.789Z""","779","materials/imgs/D18.png","arrowleft","","[""materials/imgs/D32.png"",""materials/imgs/D57.png""]","false","validation","","",""
"","","","","","html-button-response","234","253232","0.0-16.0","5r122fzgvg","","5r122fzgvg","""2024-11-13T20:08:12.789Z""","1456","You have completed 50% of the trials. Please click 'Continue' when you are ready proceed.","0","","","","","","",""
"","","","","","html-keyboard-response","235","253732","0.0-17.0-0.0-0.0","5r122fzgvg","","5r122fzgvg","""2024-11-13T20:08:12.789Z""","null","+","null","","","","","","",""
"","","","","","image-keyboard-response","236","256465","0.0-17.0-0.0-1.0","5r122fzgvg","","5r122fzgvg","""2024-11-13T20:08:12.789Z""","2731","materials/imgs/D87.png","arrowleft","","[""materials/imgs/D76.png"",""materials/imgs/D94.png""]","false","random","","",""
"","","","","","html-keyboard-response","237","256967","0.0-17.0-0.0-0.1","5r122fzgvg","","5r122fzgvg","""2024-11-13T20:08:12.789Z""","null","+","null","","","","","","",""
"","","","","","image-keyboard-response","238","257623","0.0-17.0-0.0-1.1","5r122fzgvg","","5r122fzgvg","""2024-11-13T20:08:12.789Z""","654","materials/imgs/D105.png","arrowleft","","[""materials/imgs/D78.png"",""materials/imgs/D21.png""]","false","random","","",""
"","","","","","html-keyboard-response","239","258125","0.0-17.0-0.0-0.2","5r122fzgvg","","5r122fzgvg","""2024-11-13T20:08:12.789Z""","null","+","null","","","","","","",""
"","","","","","image-keyboard-response","240","258869","0.0-17.0-0.0-1.2","5r122fzgvg","","5r122fzgvg","""2024-11-13T20:08:12.789Z""","742","materials/imgs/D29.png","arrowleft","","[""materials/imgs/D87.png"",""materials/imgs/D34.png""]","false","random","","",""
"","","","","","html-keyboard-response","241","259371","0.0-17.0-0.0-0.3","5r122fzgvg","","5r122fzgvg","""2024-11-13T20:08:12.789Z""","null","+","null","","","","","","",""
"","","","","","image-keyboard-response","242","260096","0.0-17.0-0.0-1.3","5r122fzgvg","","5r122fzgvg","""2024-11-13T20:08:12.789Z""","724","materials/imgs/D25.png","arrowright","","[""materials/imgs/D53.png"",""materials/imgs/D19.png""]","false","random","","",""
"","","","","","html-keyboard-response","243","260598","0.0-17.0-0.0-0.4","5r122fzgvg","","5r122fzgvg","""2024-11-13T20:08:12.789Z""","null","+","null","","","","","","",""
"","","","","","image-keyboard-response","244","261895","0.0-17.0-0.0-1.4","5r122fzgvg","","5r122fzgvg","""2024-11-13T20:08:12.789Z""","1296","materials/imgs/D19.png","arrowleft","","[""materials/imgs/D17.png"",""materials/imgs/D77.png""]","false","random","","",""
"","","","","","html-keyboard-response","245","262397","0.0-17.0-0.0-0.5","5r122fzgvg","","5r122fzgvg","""2024-11-13T20:08:12.789Z""","null","+","null","","","","","","",""
"","","","","","image-keyboard-response","246","263173","0.0-17.0-0.0-1.5","5r122fzgvg","","5r122fzgvg","""2024-11-13T20:08:12.789Z""","774","materials/imgs/D105.png","arrowright","","[""materials/imgs/D48.png"",""materials/imgs/D84.png""]","false","random","","",""
"","","","","","html-keyboard-response","247","263674","0.0-17.0-0.0-0.6","5r122fzgvg","","5r122fzgvg","""2024-11-13T20:08:12.789Z""","null","+","null","","","","","","",""
"","","","","","image-keyboard-response","248","264855","0.0-17.0-0.0-1.6","5r122fzgvg","","5r122fzgvg","""2024-11-13T20:08:12.789Z""","1179","materials/imgs/D92.png","arrowleft","","[""materials/imgs/D102.png"",""materials/imgs/D64.png""]","false","random","","",""
"","","","","","html-keyboard-response","249","265357","0.0-17.0-1.0-0.0","5r122fzgvg","","5r122fzgvg","""2024-11-13T20:08:12.789Z""","null","+","null","","","","","","",""
"","","","","","image-keyboard-response","250","265964","0.0-17.0-1.0-1.0","5r122fzgvg","","5r122fzgvg","""2024-11-13T20:08:12.789Z""","606","materials/imgs/D8.png","arrowright","","[""materials/imgs/D18.png"",""materials/imgs/D8.png""]","","check","materials/imgs/D8.png","1","true"
"","","","","","html-keyboard-response","251","266465","0.0-17.0-2.0-0.0","5r122fzgvg","","5r122fzgvg","""2024-11-13T20:08:12.789Z""","null","+","null","","","","","","",""
"","","","","","image-keyboard-response","252","267135","0.0-17.0-2.0-1.0","5r122fzgvg","","5r122fzgvg","""2024-11-13T20:08:12.789Z""","669","materials/imgs/D82.png","arrowright","","[""materials/imgs/D83.png"",""materials/imgs/D22.png""]","false","validation","","",""
"","","","","","html-keyboard-response","253","267637","0.0-17.0-2.0-0.1","5r122fzgvg","","5r122fzgvg","""2024-11-13T20:08:12.789Z""","null","+","null","","","","","","",""
"","","","","","image-keyboard-response","254","268442","0.0-17.0-2.0-1.1","5r122fzgvg","","5r122fzgvg","""2024-11-13T20:08:12.789Z""","802","materials/imgs/D103.png","arrowright","","[""materials/imgs/D76.png"",""materials/imgs/D106.png""]","false","validation","","",""
"","","","","","html-keyboard-response","255","268944","0.0-17.0-0.1-0.7","5r122fzgvg","","5r122fzgvg","""2024-11-13T20:08:12.789Z""","null","+","null","","","","","","",""
"","","","","","image-keyboard-response","256","270110","0.0-17.0-0.1-1.7","5r122fzgvg","","5r122fzgvg","""2024-11-13T20:08:12.789Z""","1165","materials/imgs/D79.png","arrowleft","","[""materials/imgs/D82.png"",""materials/imgs/D36.png""]","false","random","","",""
"","","","","","html-keyboard-response","257","270612","0.0-17.0-0.1-0.8","5r122fzgvg","","5r122fzgvg","""2024-11-13T20:08:12.789Z""","null","+","null","","","","","","",""
"","","","","","image-keyboard-response","258","271282","0.0-17.0-0.1-1.8","5r122fzgvg","","5r122fzgvg","""2024-11-13T20:08:12.789Z""","667","materials/imgs/D111.png","arrowleft","","[""materials/imgs/D92.png"",""materials/imgs/D49.png""]","false","random","","",""
"","","","","","html-keyboard-response","259","271783","0.0-17.0-0.1-0.9","5r122fzgvg","","5r122fzgvg","""2024-11-13T20:08:12.789Z""","null","+","null","","","","","","",""
"","","","","","image-keyboard-response","260","273000","0.0-17.0-0.1-1.9","5r122fzgvg","","5r122fzgvg","""2024-11-13T20:08:12.789Z""","1216","materials/imgs/D75.png","arrowright","","[""materials/imgs/D25.png"",""materials/imgs/D78.png""]","false","random","","",""
"","","","","","html-keyboard-response","261","273502","0.0-17.0-0.1-0.10","5r122fzgvg","","5r122fzgvg","""2024-11-13T20:08:12.789Z""","null","+","null","","","","","","",""
"","","","","","image-keyboard-response","262","274332","0.0-17.0-0.1-1.10","5r122fzgvg","","5r122fzgvg","""2024-11-13T20:08:12.789Z""","828","materials/imgs/D76.png","arrowright","","[""materials/imgs/D77.png"",""materials/imgs/D14.png""]","false","random","","",""
"","","","","","html-keyboard-response","263","274834","0.0-17.0-0.1-0.11","5r122fzgvg","","5r122fzgvg","""2024-11-13T20:08:12.789Z""","null","+","null","","","","","","",""
"","","","","","image-keyboard-response","264","275584","0.0-17.0-0.1-1.11","5r122fzgvg","","5r122fzgvg","""2024-11-13T20:08:12.789Z""","748","materials/imgs/D85.png","arrowright","","[""materials/imgs/D87.png"",""materials/imgs/D6.png""]","false","random","","",""
"","","","","","html-keyboard-response","265","276086","0.0-17.0-0.1-0.12","5r122fzgvg","","5r122fzgvg","""2024-11-13T20:08:12.789Z""","null","+","null","","","","","","",""
"","","","","","image-keyboard-response","266","277011","0.0-17.0-0.1-1.12","5r122fzgvg","","5r122fzgvg","""2024-11-13T20:08:12.789Z""","923","materials/imgs/D95.png","arrowleft","","[""materials/imgs/D106.png"",""materials/imgs/D87.png""]","false","random","","",""
"","","","","","html-keyboard-response","267","277513","0.0-17.0-0.1-0.13","5r122fzgvg","","5r122fzgvg","""2024-11-13T20:08:12.789Z""","null","+","null","","","","","","",""
"","","","","","image-keyboard-response","268","278346","0.0-17.0-0.1-1.13","5r122fzgvg","","5r122fzgvg","""2024-11-13T20:08:12.789Z""","831","materials/imgs/D66.png","arrowright","","[""materials/imgs/D103.png"",""materials/imgs/D75.png""]","false","random","","",""
"","","","","","html-keyboard-response","269","278847","0.0-17.0-1.1-0.1","5r122fzgvg","","5r122fzgvg","""2024-11-13T20:08:12.789Z""","null","+","null","","","","","","",""
"","","","","","image-keyboard-response","270","279391","0.0-17.0-1.1-1.1","5r122fzgvg","","5r122fzgvg","""2024-11-13T20:08:12.789Z""","543","materials/imgs/D46.png","arrowleft","","[""materials/imgs/D46.png"",""materials/imgs/D26.png""]","","check","materials/imgs/D46.png","0","true"
"","","","","","html-keyboard-response","271","279893","0.0-17.0-2.1-0.2","5r122fzgvg","","5r122fzgvg","""2024-11-13T20:08:12.789Z""","null","+","null","","","","","","",""
"","","","","","image-keyboard-response","272","281203","0.0-17.0-2.1-1.2","5r122fzgvg","","5r122fzgvg","""2024-11-13T20:08:12.789Z""","1308","materials/imgs/D95.png","arrowright","","[""materials/imgs/D36.png"",""materials/imgs/D4.png""]","false","validation","","",""
"","","","","","html-keyboard-response","273","281705","0.0-17.0-2.1-0.3","5r122fzgvg","","5r122fzgvg","""2024-11-13T20:08:12.789Z""","null","+","null","","","","","","",""
"","","","","","image-keyboard-response","274","282469","0.0-17.0-2.1-1.3","5r122fzgvg","","5r122fzgvg","""2024-11-13T20:08:12.789Z""","764","materials/imgs/D20.png","arrowleft","","[""materials/imgs/D84.png"",""materials/imgs/D85.png""]","false","validation","","",""
"","","","","","html-keyboard-response","275","282971","0.0-17.0-0.2-0.14","5r122fzgvg","","5r122fzgvg","""2024-11-13T20:08:12.789Z""","null","+","null","","","","","","",""
"","","","","","image-keyboard-response","276","284037","0.0-17.0-0.2-1.14","5r122fzgvg","","5r122fzgvg","""2024-11-13T20:08:12.789Z""","1062","materials/imgs/D80.png","arrowright","","[""materials/imgs/D56.png"",""materials/imgs/D102.png""]","false","random","","",""
"","","","","","html-keyboard-response","277","284539","0.0-17.0-0.2-0.15","5r122fzgvg","","5r122fzgvg","""2024-11-13T20:08:12.789Z""","null","+","null","","","","","","",""
"","","","","","image-keyboard-response","278","285495","0.0-17.0-0.2-1.15","5r122fzgvg","","5r122fzgvg","""2024-11-13T20:08:12.789Z""","954","materials/imgs/D78.png","arrowright","","[""materials/imgs/D92.png"",""materials/imgs/D77.png""]","false","random","","",""
"","","","","","html-keyboard-response","279","285998","0.0-17.0-0.2-0.16","5r122fzgvg","","5r122fzgvg","""2024-11-13T20:08:12.789Z""","null","+","null","","","","","","",""
"","","","","","image-keyboard-response","280","286691","0.0-17.0-0.2-1.16","5r122fzgvg","","5r122fzgvg","""2024-11-13T20:08:12.789Z""","691","materials/imgs/D87.png","arrowright","","[""materials/imgs/D66.png"",""materials/imgs/D78.png""]","false","random","","",""
"","","","","","html-keyboard-response","281","287193","0.0-17.0-0.2-0.17","5r122fzgvg","","5r122fzgvg","""2024-11-13T20:08:12.789Z""","null","+","null","","","","","","",""
"","","","","","image-keyboard-response","282","288007","0.0-17.0-0.2-1.17","5r122fzgvg","","5r122fzgvg","""2024-11-13T20:08:12.789Z""","813","materials/imgs/D36.png","arrowright","","[""materials/imgs/D21.png"",""materials/imgs/D55.png""]","false","random","","",""
"","","","","","html-keyboard-response","283","288509","0.0-17.0-0.2-0.18","5r122fzgvg","","5r122fzgvg","""2024-11-13T20:08:12.789Z""","null","+","null","","","","","","",""
"","","","","","image-keyboard-response","284","289410","0.0-17.0-0.2-1.18","5r122fzgvg","","5r122fzgvg","""2024-11-13T20:08:12.789Z""","901","materials/imgs/D80.png","arrowright","","[""materials/imgs/D48.png"",""materials/imgs/D24.png""]","false","random","","",""
"","","","","","html-keyboard-response","285","289912","0.0-17.0-0.2-0.19","5r122fzgvg","","5r122fzgvg","""2024-11-13T20:08:12.789Z""","null","+","null","","","","","","",""
"","","","","","image-keyboard-response","286","290516","0.0-17.0-0.2-1.19","5r122fzgvg","","5r122fzgvg","""2024-11-13T20:08:12.789Z""","602","materials/imgs/D82.png","arrowright","","[""materials/imgs/D101.png"",""materials/imgs/D36.png""]","false","random","","",""
"","","","","","html-keyboard-response","287","291018","0.0-17.0-0.2-0.20","5r122fzgvg","","5r122fzgvg","""2024-11-13T20:08:12.789Z""","null","+","null","","","","","","",""
"","","","","","image-keyboard-response","288","291822","0.0-17.0-0.2-1.20","5r122fzgvg","","5r122fzgvg","""2024-11-13T20:08:12.789Z""","802","materials/imgs/D94.png","arrowleft","","[""materials/imgs/D64.png"",""materials/imgs/D24.png""]","false","random","","",""
"","","","","","html-keyboard-response","289","292324","0.0-17.0-1.2-0.2","5r122fzgvg","","5r122fzgvg","""2024-11-13T20:08:12.789Z""","null","+","null","","","","","","",""
"","","","","","image-keyboard-response","290","292939","0.0-17.0-1.2-1.2","5r122fzgvg","","5r122fzgvg","""2024-11-13T20:08:12.789Z""","613","materials/imgs/D8.png","arrowright","","[""materials/imgs/D18.png"",""materials/imgs/D8.png""]","","check","materials/imgs/D8.png","1","true"
"","","","","","html-keyboard-response","291","293441","0.0-17.0-2.2-0.4","5r122fzgvg","","5r122fzgvg","""2024-11-13T20:08:12.789Z""","null","+","null","","","","","","",""
"","","","","","image-keyboard-response","292","294199","0.0-17.0-2.2-1.4","5r122fzgvg","","5r122fzgvg","""2024-11-13T20:08:12.789Z""","758","materials/imgs/D4.png","arrowleft","","[""materials/imgs/D52.png"",""materials/imgs/D83.png""]","false","validation","","",""
"","","","","","html-keyboard-response","293","294701","0.0-17.0-2.2-0.5","5r122fzgvg","","5r122fzgvg","""2024-11-13T20:08:12.789Z""","null","+","null","","","","","","",""
"","","","","","image-keyboard-response","294","295447","0.0-17.0-2.2-1.5","5r122fzgvg","","5r122fzgvg","""2024-11-13T20:08:12.789Z""","744","materials/imgs/D47.png","arrowleft","","[""materials/imgs/D1.png"",""materials/imgs/D52.png""]","false","validation","","",""
"","","","","","html-keyboard-response","295","295949","0.0-17.0-0.3-0.21","5r122fzgvg","","5r122fzgvg","""2024-11-13T20:08:12.789Z""","null","+","null","","","","","","",""
"","","","","","image-keyboard-response","296","296813","0.0-17.0-0.3-1.21","5r122fzgvg","","5r122fzgvg","""2024-11-13T20:08:12.789Z""","862","materials/imgs/D25.png","arrowleft","","[""materials/imgs/D81.png"",""materials/imgs/D6.png""]","false","random","","",""
"","","","","","html-keyboard-response","297","297315","0.0-17.0-0.3-0.22","5r122fzgvg","","5r122fzgvg","""2024-11-13T20:08:12.789Z""","null","+","null","","","","","","",""
"","","","","","image-keyboard-response","298","297976","0.0-17.0-0.3-1.22","5r122fzgvg","","5r122fzgvg","""2024-11-13T20:08:12.789Z""","659","materials/imgs/D56.png","arrowright","","[""materials/imgs/D103.png"",""materials/imgs/D76.png""]","false","random","","",""
"","","","","","html-keyboard-response","299","298478","0.0-17.0-0.3-0.23","5r122fzgvg","","5r122fzgvg","""2024-11-13T20:08:12.789Z""","null","+","null","","","","","","",""
"","","","","","image-keyboard-response","300","299555","0.0-17.0-0.3-1.23","5r122fzgvg","","5r122fzgvg","""2024-11-13T20:08:12.789Z""","1075","materials/imgs/D102.png","arrowright","","[""materials/imgs/D85.png"",""materials/imgs/D11.png""]","false","random","","",""
"","","","","","html-keyboard-response","301","300057","0.0-17.0-0.3-0.24","5r122fzgvg","","5r122fzgvg","""2024-11-13T20:08:12.789Z""","null","+","null","","","","","","",""
"","","","","","image-keyboard-response","302","300756","0.0-17.0-0.3-1.24","5r122fzgvg","","5r122fzgvg","""2024-11-13T20:08:12.789Z""","697","materials/imgs/D84.png","arrowright","","[""materials/imgs/D66.png"",""materials/imgs/D82.png""]","false","random","","",""
"","","","","","html-keyboard-response","303","301259","0.0-17.0-0.3-0.25","5r122fzgvg","","5r122fzgvg","""2024-11-13T20:08:12.789Z""","null","+","null","","","","","","",""
"","","","","","image-keyboard-response","304","302062","0.0-17.0-0.3-1.25","5r122fzgvg","","5r122fzgvg","""2024-11-13T20:08:12.789Z""","800","materials/imgs/D64.png","arrowright","","[""materials/imgs/D32.png"",""materials/imgs/D35.png""]","false","random","","",""
"","","","","","html-keyboard-response","305","302564","0.0-17.0-0.3-0.26","5r122fzgvg","","5r122fzgvg","""2024-11-13T20:08:12.789Z""","null","+","null","","","","","","",""
"","","","","","image-keyboard-response","306","303416","0.0-17.0-0.3-1.26","5r122fzgvg","","5r122fzgvg","""2024-11-13T20:08:12.789Z""","849","materials/imgs/D35.png","arrowright","","[""materials/imgs/D77.png"",""materials/imgs/D111.png""]","false","random","","",""
"","","","","","html-keyboard-response","307","303918","0.0-17.0-0.3-0.27","5r122fzgvg","","5r122fzgvg","""2024-11-13T20:08:12.789Z""","null","+","null","","","","","","",""
"","","","","","image-keyboard-response","308","304679","0.0-17.0-0.3-1.27","5r122fzgvg","","5r122fzgvg","""2024-11-13T20:08:12.789Z""","760","materials/imgs/D17.png","arrowleft","","[""materials/imgs/D79.png"",""materials/imgs/D95.png""]","false","random","","",""
"","","","","","html-keyboard-response","309","305181","0.0-17.0-1.3-0.3","5r122fzgvg","","5r122fzgvg","""2024-11-13T20:08:12.789Z""","null","+","null","","","","","","",""
"","","","","","image-keyboard-response","310","305849","0.0-17.0-1.3-1.3","5r122fzgvg","","5r122fzgvg","""2024-11-13T20:08:12.789Z""","665","materials/imgs/D64.png","arrowleft","","[""materials/imgs/D64.png"",""materials/imgs/D53.png""]","","check","materials/imgs/D64.png","0","true"
"","","","","","html-keyboard-response","311","306351","0.0-17.0-2.3-0.6","5r122fzgvg","","5r122fzgvg","""2024-11-13T20:08:12.789Z""","null","+","null","","","","","","",""
"","","","","","image-keyboard-response","312","307109","0.0-17.0-2.3-1.6","5r122fzgvg","","5r122fzgvg","""2024-11-13T20:08:12.789Z""","757","materials/imgs/D101.png","arrowright","","[""materials/imgs/D76.png"",""materials/imgs/D47.png""]","false","validation","","",""
"","","","","","html-keyboard-response","313","307611","0.0-17.0-2.3-0.7","5r122fzgvg","","5r122fzgvg","""2024-11-13T20:08:12.789Z""","null","+","null","","","","","","",""
"","","","","","image-keyboard-response","314","308571","0.0-17.0-2.3-1.7","5r122fzgvg","","5r122fzgvg","""2024-11-13T20:08:12.789Z""","959","materials/imgs/D76.png","arrowleft","","[""materials/imgs/D83.png"",""materials/imgs/D6.png""]","false","validation","","",""
"","","","","","html-keyboard-response","315","309073","0.0-17.0-0.4-0.28","5r122fzgvg","","5r122fzgvg","""2024-11-13T20:08:12.789Z""","null","+","null","","","","","","",""
"","","","","","image-keyboard-response","316","310203","0.0-17.0-0.4-1.28","5r122fzgvg","","5r122fzgvg","""2024-11-13T20:08:12.789Z""","1129","materials/imgs/D51.png","arrowleft","","[""materials/imgs/D80.png"",""materials/imgs/D32.png""]","false","random","","",""
"","","","","","html-keyboard-response","317","310705","0.0-17.0-0.4-0.29","5r122fzgvg","","5r122fzgvg","""2024-11-13T20:08:12.789Z""","null","+","null","","","","","","",""
"","","","","","image-keyboard-response","318","312426","0.0-17.0-0.4-1.29","5r122fzgvg","","5r122fzgvg","""2024-11-13T20:08:12.789Z""","1720","materials/imgs/D52.png","arrowright","","[""materials/imgs/D64.png"",""materials/imgs/D94.png""]","false","random","","",""
"","","","","","html-keyboard-response","319","312928","0.0-17.0-0.4-0.30","5r122fzgvg","","5r122fzgvg","""2024-11-13T20:08:12.789Z""","null","+","null","","","","","","",""
"","","","","","image-keyboard-response","320","315302","0.0-17.0-0.4-1.30","5r122fzgvg","","5r122fzgvg","""2024-11-13T20:08:12.789Z""","2373","materials/imgs/D102.png","arrowright","","[""materials/imgs/D66.png"",""materials/imgs/D82.png""]","false","random","","",""
"","","","","","html-keyboard-response","321","315804","0.0-17.0-0.4-0.31","5r122fzgvg","","5r122fzgvg","""2024-11-13T20:08:12.789Z""","null","+","null","","","","","","",""
"","","","","","image-keyboard-response","322","317291","0.0-17.0-0.4-1.31","5r122fzgvg","","5r122fzgvg","""2024-11-13T20:08:12.789Z""","1485","materials/imgs/D11.png","arrowright","","[""materials/imgs/D14.png"",""materials/imgs/D55.png""]","false","random","","",""
"","","","","","html-keyboard-response","323","317793","0.0-17.0-0.4-0.32","5r122fzgvg","","5r122fzgvg","""2024-11-13T20:08:12.789Z""","null","+","null","","","","","","",""
"","","","","","image-keyboard-response","324","318538","0.0-17.0-0.4-1.32","5r122fzgvg","","5r122fzgvg","""2024-11-13T20:08:12.789Z""","743","materials/imgs/D65.png","arrowright","","[""materials/imgs/D85.png"",""materials/imgs/D47.png""]","false","random","","",""
"","","","","","html-keyboard-response","325","319040","0.0-17.0-0.4-0.33","5r122fzgvg","","5r122fzgvg","""2024-11-13T20:08:12.789Z""","null","+","null","","","","","","",""
"","","","","","image-keyboard-response","326","319809","0.0-17.0-0.4-1.33","5r122fzgvg","","5r122fzgvg","""2024-11-13T20:08:12.789Z""","767","materials/imgs/D92.png","arrowleft","","[""materials/imgs/D32.png"",""materials/imgs/D84.png""]","false","random","","",""
"","","","","","html-keyboard-response","327","320310","0.0-17.0-0.4-0.34","5r122fzgvg","","5r122fzgvg","""2024-11-13T20:08:12.789Z""","null","+","null","","","","","","",""
"","","","","","image-keyboard-response","328","321030","0.0-17.0-0.4-1.34","5r122fzgvg","","5r122fzgvg","""2024-11-13T20:08:12.789Z""","719","materials/imgs/D25.png","arrowright","","[""materials/imgs/D34.png"",""materials/imgs/D94.png""]","false","random","","",""
"","","","","","html-keyboard-response","329","321532","0.0-17.0-1.4-0.4","5r122fzgvg","","5r122fzgvg","""2024-11-13T20:08:12.789Z""","null","+","null","","","","","","",""
"","","","","","image-keyboard-response","330","322298","0.0-17.0-1.4-1.4","5r122fzgvg","","5r122fzgvg","""2024-11-13T20:08:12.789Z""","764","materials/imgs/D64.png","arrowleft","","[""materials/imgs/D64.png"",""materials/imgs/D53.png""]","","check","materials/imgs/D64.png","0","true"
"","","","","","html-keyboard-response","331","322800","0.0-17.0-2.4-0.8","5r122fzgvg","","5r122fzgvg","""2024-11-13T20:08:12.789Z""","null","+","null","","","","","","",""
"","","","","","image-keyboard-response","332","323546","0.0-17.0-2.4-1.8","5r122fzgvg","","5r122fzgvg","""2024-11-13T20:08:12.789Z""","744","materials/imgs/D19.png","arrowright","","[""materials/imgs/D111.png"",""materials/imgs/D56.png""]","false","validation","","",""
"","","","","","html-keyboard-response","333","324048","0.0-17.0-2.4-0.9","5r122fzgvg","","5r122fzgvg","""2024-11-13T20:08:12.789Z""","null","+","null","","","","","","",""
"","","","","","image-keyboard-response","334","324824","0.0-17.0-2.4-1.9","5r122fzgvg","","5r122fzgvg","""2024-11-13T20:08:12.789Z""","776","materials/imgs/D48.png","arrowright","","[""materials/imgs/D4.png"",""materials/imgs/D37.png""]","false","validation","","",""
"","","","","","html-button-response","335","326300","0.0-18.0","5r122fzgvg","","5r122fzgvg","""2024-11-13T20:08:12.789Z""","1475","You have completed 75% of the trials. Please click 'Continue' when you are ready proceed.","0","","","","","","",""
"","","","","","html-keyboard-response","336","326801","0.0-19.0-0.0-0.0","5r122fzgvg","","5r122fzgvg","""2024-11-13T20:08:12.789Z""","null","+","null","","","","","","",""
"","","","","","image-keyboard-response","337","328457","0.0-19.0-0.0-1.0","5r122fzgvg","","5r122fzgvg","""2024-11-13T20:08:12.789Z""","1655","materials/imgs/D65.png","arrowright","","[""materials/imgs/D6.png"",""materials/imgs/D21.png""]","false","random","","",""
"","","","","","html-keyboard-response","338","328959","0.0-19.0-0.0-0.1","5r122fzgvg","","5r122fzgvg","""2024-11-13T20:08:12.789Z""","null","+","null","","","","","","",""
"","","","","","image-keyboard-response","339","329547","0.0-19.0-0.0-1.1","5r122fzgvg","","5r122fzgvg","""2024-11-13T20:08:12.789Z""","586","materials/imgs/D92.png","arrowright","","[""materials/imgs/D1.png"",""materials/imgs/D57.png""]","false","random","","",""
"","","","","","html-keyboard-response","340","330049","0.0-19.0-0.0-0.2","5r122fzgvg","","5r122fzgvg","""2024-11-13T20:08:12.789Z""","null","+","null","","","","","","",""
"","","","","","image-keyboard-response","341","330959","0.0-19.0-0.0-1.2","5r122fzgvg","","5r122fzgvg","""2024-11-13T20:08:12.789Z""","908","materials/imgs/D49.png","arrowleft","","[""materials/imgs/D104.png"",""materials/imgs/D95.png""]","false","random","","",""
"","","","","","html-keyboard-response","342","331461","0.0-19.0-0.0-0.3","5r122fzgvg","","5r122fzgvg","""2024-11-13T20:08:12.789Z""","null","+","null","","","","","","",""
"","","","","","image-keyboard-response","343","332327","0.0-19.0-0.0-1.3","5r122fzgvg","","5r122fzgvg","""2024-11-13T20:08:12.789Z""","864","materials/imgs/D24.png","arrowleft","","[""materials/imgs/D65.png"",""materials/imgs/D25.png""]","false","random","","",""
"","","","","","html-keyboard-response","344","332829","0.0-19.0-0.0-0.4","5r122fzgvg","","5r122fzgvg","""2024-11-13T20:08:12.789Z""","null","+","null","","","","","","",""
"","","","","","image-keyboard-response","345","333555","0.0-19.0-0.0-1.4","5r122fzgvg","","5r122fzgvg","""2024-11-13T20:08:12.789Z""","724","materials/imgs/D105.png","arrowright","","[""materials/imgs/D18.png"",""materials/imgs/D36.png""]","false","random","","",""
"","","","","","html-keyboard-response","346","334057","0.0-19.0-0.0-0.5","5r122fzgvg","","5r122fzgvg","""2024-11-13T20:08:12.789Z""","null","+","null","","","","","","",""
"","","","","","image-keyboard-response","347","334941","0.0-19.0-0.0-1.5","5r122fzgvg","","5r122fzgvg","""2024-11-13T20:08:12.789Z""","882","materials/imgs/D66.png","arrowleft","","[""materials/imgs/D46.png"",""materials/imgs/D78.png""]","false","random","","",""
"","","","","","html-keyboard-response","348","335443","0.0-19.0-0.0-0.6","5r122fzgvg","","5r122fzgvg","""2024-11-13T20:08:12.789Z""","null","+","null","","","","","","",""
"","","","","","image-keyboard-response","349","335997","0.0-19.0-0.0-1.6","5r122fzgvg","","5r122fzgvg","""2024-11-13T20:08:12.789Z""","552","materials/imgs/D84.png","arrowright","","[""materials/imgs/D8.png"",""materials/imgs/D57.png""]","false","random","","",""
"","","","","","html-keyboard-response","350","336498","0.0-19.0-1.0-0.0","5r122fzgvg","","5r122fzgvg","""2024-11-13T20:08:12.789Z""","null","+","null","","","","","","",""
"","","","","","image-keyboard-response","351","337225","0.0-19.0-1.0-1.0","5r122fzgvg","","5r122fzgvg","""2024-11-13T20:08:12.789Z""","725","materials/imgs/D101.png","arrowright","","[""materials/imgs/D106.png"",""materials/imgs/D101.png""]","","check","materials/imgs/D101.png","1","true"
"","","","","","html-keyboard-response","352","337727","0.0-19.0-2.0-0.0","5r122fzgvg","","5r122fzgvg","""2024-11-13T20:08:12.789Z""","null","+","null","","","","","","",""
"","","","","","image-keyboard-response","353","338584","0.0-19.0-2.0-1.0","5r122fzgvg","","5r122fzgvg","""2024-11-13T20:08:12.789Z""","856","materials/imgs/D26.png","arrowright","","[""materials/imgs/D36.png"",""materials/imgs/D92.png""]","false","validation","","",""
"","","","","","html-keyboard-response","354","339086","0.0-19.0-2.0-0.1","5r122fzgvg","","5r122fzgvg","""2024-11-13T20:08:12.789Z""","null","+","null","","","","","","",""
"","","","","","image-keyboard-response","355","340012","0.0-19.0-2.0-1.1","5r122fzgvg","","5r122fzgvg","""2024-11-13T20:08:12.789Z""","926","materials/imgs/D111.png","arrowright","","[""materials/imgs/D82.png"",""materials/imgs/D95.png""]","false","validation","","",""
"","","","","","html-keyboard-response","356","340514","0.0-19.0-0.1-0.7","5r122fzgvg","","5r122fzgvg","""2024-11-13T20:08:12.789Z""","null","+","null","","","","","","",""
"","","","","","image-keyboard-response","357","341919","0.0-19.0-0.1-1.7","5r122fzgvg","","5r122fzgvg","""2024-11-13T20:08:12.789Z""","1403","materials/imgs/D6.png","arrowleft","","[""materials/imgs/D68.png"",""materials/imgs/D19.png""]","false","random","","",""
"","","","","","html-keyboard-response","358","342421","0.0-19.0-0.1-0.8","5r122fzgvg","","5r122fzgvg","""2024-11-13T20:08:12.789Z""","null","+","null","","","","","","",""
"","","","","","image-keyboard-response","359","343331","0.0-19.0-0.1-1.8","5r122fzgvg","","5r122fzgvg","""2024-11-13T20:08:12.789Z""","909","materials/imgs/D37.png","arrowright","","[""materials/imgs/D52.png"",""materials/imgs/D84.png""]","false","random","","",""
"","","","","","html-keyboard-response","360","343833","0.0-19.0-0.1-0.9","5r122fzgvg","","5r122fzgvg","""2024-11-13T20:08:12.789Z""","null","+","null","","","","","","",""
"","","","","","image-keyboard-response","361","344513","0.0-19.0-0.1-1.9","5r122fzgvg","","5r122fzgvg","""2024-11-13T20:08:12.789Z""","679","materials/imgs/D101.png","arrowleft","","[""materials/imgs/D47.png"",""materials/imgs/D49.png""]","false","random","","",""
"","","","","","html-keyboard-response","362","345015","0.0-19.0-0.1-0.10","5r122fzgvg","","5r122fzgvg","""2024-11-13T20:08:12.789Z""","null","+","null","","","","","","",""
"","","","","","image-keyboard-response","363","345658","0.0-19.0-0.1-1.10","5r122fzgvg","","5r122fzgvg","""2024-11-13T20:08:12.789Z""","642","materials/imgs/D46.png","arrowleft","","[""materials/imgs/D1.png"",""materials/imgs/D14.png""]","false","random","","",""
"","","","","","html-keyboard-response","364","346160","0.0-19.0-0.1-0.11","5r122fzgvg","","5r122fzgvg","""2024-11-13T20:08:12.789Z""","null","+","null","","","","","","",""
"","","","","","image-keyboard-response","365","346942","0.0-19.0-0.1-1.11","5r122fzgvg","","5r122fzgvg","""2024-11-13T20:08:12.789Z""","781","materials/imgs/D82.png","arrowright","","[""materials/imgs/D22.png"",""materials/imgs/D55.png""]","false","random","","",""
"","","","","","html-keyboard-response","366","347444","0.0-19.0-0.1-0.12","5r122fzgvg","","5r122fzgvg","""2024-11-13T20:08:12.789Z""","null","+","null","","","","","","",""
"","","","","","image-keyboard-response","367","348054","0.0-19.0-0.1-1.12","5r122fzgvg","","5r122fzgvg","""2024-11-13T20:08:12.789Z""","609","materials/imgs/D37.png","arrowleft","","[""materials/imgs/D1.png"",""materials/imgs/D36.png""]","false","random","","",""
"","","","","","html-keyboard-response","368","348555","0.0-19.0-0.1-0.13","5r122fzgvg","","5r122fzgvg","""2024-11-13T20:08:12.789Z""","null","+","null","","","","","","",""
"","","","","","image-keyboard-response","369","350255","0.0-19.0-0.1-1.13","5r122fzgvg","","5r122fzgvg","""2024-11-13T20:08:12.789Z""","1698","materials/imgs/D51.png","arrowleft","","[""materials/imgs/D83.png"",""materials/imgs/D82.png""]","false","random","","",""
"","","","","","html-keyboard-response","370","350757","0.0-19.0-1.1-0.1","5r122fzgvg","","5r122fzgvg","""2024-11-13T20:08:12.789Z""","null","+","null","","","","","","",""
"","","","","","image-keyboard-response","371","351290","0.0-19.0-1.1-1.1","5r122fzgvg","","5r122fzgvg","""2024-11-13T20:08:12.789Z""","531","materials/imgs/D101.png","arrowright","","[""materials/imgs/D106.png"",""materials/imgs/D101.png""]","","check","materials/imgs/D101.png","1","true"
"","","","","","html-keyboard-response","372","351792","0.0-19.0-2.1-0.2","5r122fzgvg","","5r122fzgvg","""2024-11-13T20:08:12.789Z""","null","+","null","","","","","","",""
"","","","","","image-keyboard-response","373","352371","0.0-19.0-2.1-1.2","5r122fzgvg","","5r122fzgvg","""2024-11-13T20:08:12.789Z""","578","materials/imgs/D35.png","arrowright","","[""materials/imgs/D83.png"",""materials/imgs/D24.png""]","false","validation","","",""
"","","","","","html-keyboard-response","374","352872","0.0-19.0-2.1-0.3","5r122fzgvg","","5r122fzgvg","""2024-11-13T20:08:12.789Z""","null","+","null","","","","","","",""
"","","","","","image-keyboard-response","375","353581","0.0-19.0-2.1-1.3","5r122fzgvg","","5r122fzgvg","""2024-11-13T20:08:12.789Z""","708","materials/imgs/D82.png","arrowright","","[""materials/imgs/D83.png"",""materials/imgs/D22.png""]","false","validation","","",""
"","","","","","html-keyboard-response","376","354083","0.0-19.0-0.2-0.14","5r122fzgvg","","5r122fzgvg","""2024-11-13T20:08:12.789Z""","null","+","null","","","","","","",""
"","","","","","image-keyboard-response","377","354669","0.0-19.0-0.2-1.14","5r122fzgvg","","5r122fzgvg","""2024-11-13T20:08:12.789Z""","584","materials/imgs/D19.png","arrowright","","[""materials/imgs/D65.png"",""materials/imgs/D9.png""]","false","random","","",""
"","","","","","html-keyboard-response","378","355171","0.0-19.0-0.2-0.15","5r122fzgvg","","5r122fzgvg","""2024-11-13T20:08:12.789Z""","null","+","null","","","","","","",""
"","","","","","image-keyboard-response","379","355855","0.0-19.0-0.2-1.15","5r122fzgvg","","5r122fzgvg","""2024-11-13T20:08:12.789Z""","683","materials/imgs/D81.png","arrowleft","","[""materials/imgs/D77.png"",""materials/imgs/D94.png""]","false","random","","",""
"","","","","","html-keyboard-response","380","356357","0.0-19.0-0.2-0.16","5r122fzgvg","","5r122fzgvg","""2024-11-13T20:08:12.789Z""","null","+","null","","","","","","",""
"","","","","","image-keyboard-response","381","357342","0.0-19.0-0.2-1.16","5r122fzgvg","","5r122fzgvg","""2024-11-13T20:08:12.789Z""","983","materials/imgs/D66.png","arrowright","","[""materials/imgs/D21.png"",""materials/imgs/D105.png""]","false","random","","",""
"","","","","","html-keyboard-response","382","357843","0.0-19.0-0.2-0.17","5r122fzgvg","","5r122fzgvg","""2024-11-13T20:08:12.789Z""","null","+","null","","","","","","",""
"","","","","","image-keyboard-response","383","358767","0.0-19.0-0.2-1.17","5r122fzgvg","","5r122fzgvg","""2024-11-13T20:08:12.789Z""","922","materials/imgs/D92.png","arrowleft","","[""materials/imgs/D37.png"",""materials/imgs/D102.png""]","false","random","","",""
"","","","","","html-keyboard-response","384","359269","0.0-19.0-0.2-0.18","5r122fzgvg","","5r122fzgvg","""2024-11-13T20:08:12.789Z""","null","+","null","","","","","","",""
"","","","","","image-keyboard-response","385","361878","0.0-19.0-0.2-1.18","5r122fzgvg","","5r122fzgvg","""2024-11-13T20:08:12.789Z""","2607","materials/imgs/D103.png","arrowleft","","[""materials/imgs/D25.png"",""materials/imgs/D26.png""]","false","random","","",""
"","","","","","html-keyboard-response","386","362380","0.0-19.0-0.2-0.19","5r122fzgvg","","5r122fzgvg","""2024-11-13T20:08:12.789Z""","null","+","null","","","","","","",""
"","","","","","image-keyboard-response","387","363154","0.0-19.0-0.2-1.19","5r122fzgvg","","5r122fzgvg","""2024-11-13T20:08:12.789Z""","772","materials/imgs/D106.png","arrowleft","","[""materials/imgs/D49.png"",""materials/imgs/D102.png""]","false","random","","",""
"","","","","","html-keyboard-response","388","363657","0.0-19.0-0.2-0.20","5r122fzgvg","","5r122fzgvg","""2024-11-13T20:08:12.789Z""","null","+","null","","","","","","",""
"","","","","","image-keyboard-response","389","365022","0.0-19.0-0.2-1.20","5r122fzgvg","","5r122fzgvg","""2024-11-13T20:08:12.789Z""","1363","materials/imgs/D78.png","arrowleft","","[""materials/imgs/D87.png"",""materials/imgs/D94.png""]","false","random","","",""
"","","","","","html-keyboard-response","390","365524","0.0-19.0-1.2-0.2","5r122fzgvg","","5r122fzgvg","""2024-11-13T20:08:12.789Z""","null","+","null","","","","","","",""
"","","","","","image-keyboard-response","391","366084","0.0-19.0-1.2-1.2","5r122fzgvg","","5r122fzgvg","""2024-11-13T20:08:12.789Z""","557","materials/imgs/D8.png","arrowright","","[""materials/imgs/D18.png"",""materials/imgs/D8.png""]","","check","materials/imgs/D8.png","1","true"
"","","","","","html-keyboard-response","392","366586","0.0-19.0-2.2-0.4","5r122fzgvg","","5r122fzgvg","""2024-11-13T20:08:12.789Z""","null","+","null","","","","","","",""
"","","","","","image-keyboard-response","393","367634","0.0-19.0-2.2-1.4","5r122fzgvg","","5r122fzgvg","""2024-11-13T20:08:12.789Z""","1047","materials/imgs/D64.png","arrowleft","","[""materials/imgs/D6.png"",""materials/imgs/D81.png""]","false","validation","","",""
"","","","","","html-keyboard-response","394","368137","0.0-19.0-2.2-0.5","5r122fzgvg","","5r122fzgvg","""2024-11-13T20:08:12.789Z""","null","+","null","","","","","","",""
"","","","","","image-keyboard-response","395","368760","0.0-19.0-2.2-1.5","5r122fzgvg","","5r122fzgvg","""2024-11-13T20:08:12.789Z""","622","materials/imgs/D6.png","arrowleft","","[""materials/imgs/D26.png"",""materials/imgs/D76.png""]","false","validation","","",""
"","","","","","html-keyboard-response","396","369262","0.0-19.0-0.3-0.21","5r122fzgvg","","5r122fzgvg","""2024-11-13T20:08:12.789Z""","null","+","null","","","","","","",""
"","","","","","image-keyboard-response","397","370525","0.0-19.0-0.3-1.21","5r122fzgvg","","5r122fzgvg","""2024-11-13T20:08:12.789Z""","1261","materials/imgs/D85.png","arrowleft","","[""materials/imgs/D1.png"",""materials/imgs/D46.png""]","false","random","","",""
"","","","","","html-keyboard-response","398","371027","0.0-19.0-0.3-0.22","5r122fzgvg","","5r122fzgvg","""2024-11-13T20:08:12.789Z""","null","+","null","","","","","","",""
"","","","","","image-keyboard-response","399","371642","0.0-19.0-0.3-1.22","5r122fzgvg","","5r122fzgvg","""2024-11-13T20:08:12.789Z""","613","materials/imgs/D55.png","arrowright","","[""materials/imgs/D64.png"",""materials/imgs/D65.png""]","false","random","","",""
"","","","","","html-keyboard-response","400","372144","0.0-19.0-0.3-0.23","5r122fzgvg","","5r122fzgvg","""2024-11-13T20:08:12.789Z""","null","+","null","","","","","","",""
"","","","","","image-keyboard-response","401","373425","0.0-19.0-0.3-1.23","5r122fzgvg","","5r122fzgvg","""2024-11-13T20:08:12.789Z""","1279","materials/imgs/D20.png","arrowleft","","[""materials/imgs/D68.png"",""materials/imgs/D96.png""]","false","random","","",""
"","","","","","html-keyboard-response","402","373927","0.0-19.0-0.3-0.24","5r122fzgvg","","5r122fzgvg","""2024-11-13T20:08:12.789Z""","null","+","null","","","","","","",""
"","","","","","image-keyboard-response","403","374887","0.0-19.0-0.3-1.24","5r122fzgvg","","5r122fzgvg","""2024-11-13T20:08:12.789Z""","958","materials/imgs/D18.png","arrowleft","","[""materials/imgs/D102.png"",""materials/imgs/D95.png""]","false","random","","",""
"","","","","","html-keyboard-response","404","375388","0.0-19.0-0.3-0.25","5r122fzgvg","","5r122fzgvg","""2024-11-13T20:08:12.789Z""","null","+","null","","","","","","",""
"","","","","","image-keyboard-response","405","376063","0.0-19.0-0.3-1.25","5r122fzgvg","","5r122fzgvg","""2024-11-13T20:08:12.789Z""","673","materials/imgs/D11.png","arrowright","","[""materials/imgs/D78.png"",""materials/imgs/D51.png""]","false","random","","",""
"","","","","","html-keyboard-response","406","376564","0.0-19.0-0.3-0.26","5r122fzgvg","","5r122fzgvg","""2024-11-13T20:08:12.789Z""","null","+","null","","","","","","",""
"","","","","","image-keyboard-response","407","377246","0.0-19.0-0.3-1.26","5r122fzgvg","","5r122fzgvg","""2024-11-13T20:08:12.789Z""","681","materials/imgs/D14.png","arrowleft","","[""materials/imgs/D57.png"",""materials/imgs/D102.png""]","false","random","","",""
"","","","","","html-keyboard-response","408","377748","0.0-19.0-0.3-0.27","5r122fzgvg","","5r122fzgvg","""2024-11-13T20:08:12.789Z""","null","+","null","","","","","","",""
"","","","","","image-keyboard-response","409","378342","0.0-19.0-0.3-1.27","5r122fzgvg","","5r122fzgvg","""2024-11-13T20:08:12.789Z""","592","materials/imgs/D49.png","arrowright","","[""materials/imgs/D87.png"",""materials/imgs/D55.png""]","false","random","","",""
"","","","","","html-keyboard-response","410","378844","0.0-19.0-1.3-0.3","5r122fzgvg","","5r122fzgvg","""2024-11-13T20:08:12.789Z""","null","+","null","","","","","","",""
"","","","","","image-keyboard-response","411","379400","0.0-19.0-1.3-1.3","5r122fzgvg","","5r122fzgvg","""2024-11-13T20:08:12.789Z""","554","materials/imgs/D18.png","arrowright","","[""materials/imgs/D8.png"",""materials/imgs/D18.png""]","","check","materials/imgs/D18.png","1","true"
"","","","","","html-keyboard-response","412","379902","0.0-19.0-2.3-0.6","5r122fzgvg","","5r122fzgvg","""2024-11-13T20:08:12.789Z""","null","+","null","","","","","","",""
"","","","","","image-keyboard-response","413","380461","0.0-19.0-2.3-1.6","5r122fzgvg","","5r122fzgvg","""2024-11-13T20:08:12.789Z""","558","materials/imgs/D53.png","arrowleft","","[""materials/imgs/D77.png"",""materials/imgs/D75.png""]","false","validation","","",""
"","","","","","html-keyboard-response","414","380963","0.0-19.0-2.3-0.7","5r122fzgvg","","5r122fzgvg","""2024-11-13T20:08:12.789Z""","null","+","null","","","","","","",""
"","","","","","image-keyboard-response","415","381705","0.0-19.0-2.3-1.7","5r122fzgvg","","5r122fzgvg","""2024-11-13T20:08:12.789Z""","741","materials/imgs/D8.png","arrowleft","","[""materials/imgs/D101.png"",""materials/imgs/D52.png""]","false","validation","","",""
"","","","","","html-keyboard-response","416","382207","0.0-19.0-0.4-0.28","5r122fzgvg","","5r122fzgvg","""2024-11-13T20:08:12.789Z""","null","+","null","","","","","","",""
"","","","","","image-keyboard-response","417","384232","0.0-19.0-0.4-1.28","5r122fzgvg","","5r122fzgvg","""2024-11-13T20:08:12.789Z""","2023","materials/imgs/D104.png","arrowright","","[""materials/imgs/D18.png"",""materials/imgs/D105.png""]","false","random","","",""
"","","","","","html-keyboard-response","418","384734","0.0-19.0-0.4-0.29","5r122fzgvg","","5r122fzgvg","""2024-11-13T20:08:12.789Z""","null","+","null","","","","","","",""
"","","","","","image-keyboard-response","419","385654","0.0-19.0-0.4-1.29","5r122fzgvg","","5r122fzgvg","""2024-11-13T20:08:12.789Z""","919","materials/imgs/D75.png","arrowleft","","[""materials/imgs/D19.png"",""materials/imgs/D26.png""]","false","random","","",""
"","","","","","html-keyboard-response","420","386156","0.0-19.0-0.4-0.30","5r122fzgvg","","5r122fzgvg","""2024-11-13T20:08:12.789Z""","null","+","null","","","","","","",""
"","","","","","image-keyboard-response","421","387049","0.0-19.0-0.4-1.30","5r122fzgvg","","5r122fzgvg","""2024-11-13T20:08:12.789Z""","891","materials/imgs/D20.png","arrowleft","","[""materials/imgs/D95.png"",""materials/imgs/D81.png""]","false","random","","",""
"","","","","","html-keyboard-response","422","387552","0.0-19.0-0.4-0.31","5r122fzgvg","","5r122fzgvg","""2024-11-13T20:08:12.789Z""","null","+","null","","","","","","",""
"","","","","","image-keyboard-response","423","388271","0.0-19.0-0.4-1.31","5r122fzgvg","","5r122fzgvg","""2024-11-13T20:08:12.789Z""","717","materials/imgs/D32.png","arrowleft","","[""materials/imgs/D22.png"",""materials/imgs/D76.png""]","false","random","","",""
"","","","","","html-keyboard-response","424","388773","0.0-19.0-0.4-0.32","5r122fzgvg","","5r122fzgvg","""2024-11-13T20:08:12.789Z""","null","+","null","","","","","","",""
"","","","","","image-keyboard-response","425","389600","0.0-19.0-0.4-1.32","5r122fzgvg","","5r122fzgvg","""2024-11-13T20:08:12.789Z""","824","materials/imgs/D76.png","arrowright","","[""materials/imgs/D52.png"",""materials/imgs/D85.png""]","false","random","","",""
"","","","","","html-keyboard-response","426","390102","0.0-19.0-0.4-0.33","5r122fzgvg","","5r122fzgvg","""2024-11-13T20:08:12.789Z""","null","+","null","","","","","","",""
"","","","","","image-keyboard-response","427","390875","0.0-19.0-0.4-1.33","5r122fzgvg","","5r122fzgvg","""2024-11-13T20:08:12.789Z""","772","materials/imgs/D102.png","arrowleft","","[""materials/imgs/D78.png"",""materials/imgs/D57.png""]","false","random","","",""
"","","","","","html-keyboard-response","428","391377","0.0-19.0-0.4-0.34","5r122fzgvg","","5r122fzgvg","""2024-11-13T20:08:12.789Z""","null","+","null","","","","","","",""
"","","","","","image-keyboard-response","429","392717","0.0-19.0-0.4-1.34","5r122fzgvg","","5r122fzgvg","""2024-11-13T20:08:12.789Z""","1338","materials/imgs/D76.png","arrowleft","","[""materials/imgs/D17.png"",""materials/imgs/D56.png""]","false","random","","",""
"","","","","","html-keyboard-response","430","393219","0.0-19.0-1.4-0.4","5r122fzgvg","","5r122fzgvg","""2024-11-13T20:08:12.789Z""","null","+","null","","","","","","",""
"","","","","","image-keyboard-response","431","393816","0.0-19.0-1.4-1.4","5r122fzgvg","","5r122fzgvg","""2024-11-13T20:08:12.789Z""","596","materials/imgs/D76.png","arrowleft","","[""materials/imgs/D76.png"",""materials/imgs/D78.png""]","","check","materials/imgs/D76.png","0","true"
"","","","","","html-keyboard-response","432","394318","0.0-19.0-2.4-0.8","5r122fzgvg","","5r122fzgvg","""2024-11-13T20:08:12.789Z""","null","+","null","","","","","","",""
"","","","","","image-keyboard-response","433","395325","0.0-19.0-2.4-1.8","5r122fzgvg","","5r122fzgvg","""2024-11-13T20:08:12.789Z""","1005","materials/imgs/D49.png","arrowright","","[""materials/imgs/D8.png"",""materials/imgs/D101.png""]","false","validation","","",""
"","","","","","html-keyboard-response","434","395827","0.0-19.0-2.4-0.9","5r122fzgvg","","5r122fzgvg","""2024-11-13T20:08:12.789Z""","null","+","null","","","","","","",""
"","","","","","image-keyboard-response","435","396965","0.0-19.0-2.4-1.9","5r122fzgvg","","5r122fzgvg","""2024-11-13T20:08:12.789Z""","1137","materials/imgs/D4.png","arrowright","","[""materials/imgs/D52.png"",""materials/imgs/D83.png""]","false","validation","","",""
