"success","timeout","failed_images","failed_audio","failed_video","trial_type","trial_index","time_elapsed","internal_node_id","subject_id","sona_id","subjectID","dateInfo","rt","stimulus","response","question_order","choices","speedy","sampleAlg","selected_image","selected_index","correct"
"true","false","[]","[]","[]","preload","0","134","0.0-0.0","6hanjktrxc","","6hanjktrxc","""2024-11-13T18:51:42.036Z""","","","","","","","","","",""
"true","","","","","fullscreen","1","2749","0.0-1.0","6hanjktrxc","","6hanjktrxc","""2024-11-13T18:51:42.036Z""","","","","","","","","","",""
"","","","","","html-keyboard-response","2","2762","0.0-2.0","6hanjktrxc","","6hanjktrxc","""2024-11-13T18:51:42.036Z""","null","","null","","","","","","",""
"","","","","","html-button-response","3","11536","0.0-3.0","6hanjktrxc","","6hanjktrxc","""2024-11-13T18:51:42.036Z""","8773","<div style='text-align:center; font-size:20px; line-height:25px; width: 1200px;'>
                Welcome to our experiment! <br>
                <br>At the bottom of this screen, you will see a button that says 'Begin Experiment.
                <br>Please only click that button when you are ready to complete the 25 minute experiment in one sitting. <br>
                <br> Once you click that button, it will not be possible to restart the experiment. <br><br>","0","","","","","","",""
"true","","","","","fullscreen","4","15191","0.0-4.0","6hanjktrxc","","6hanjktrxc","""2024-11-13T18:51:42.036Z""","","","","","","","","","",""
"","","","","","survey-multi-select","5","96795","0.0-5.0","6hanjktrxc","","6hanjktrxc","""2024-11-13T18:51:42.036Z""","81598","","{""Consent"":[""<strong>I consent</strong>""]}","[0]","","","","","",""
"","","","","","html-button-response","6","101154","0.0-6.0","6hanjktrxc","","6hanjktrxc","""2024-11-13T18:51:42.036Z""","4357","Welcome! <p> This experiment involves two parts: demographic information, followed by the experimental task.<p> It will take about 25 minutes to complete both parts.","0","","","","","","",""
"","","","","","survey-text","7","107834","0.0-7.0","6hanjktrxc","","6hanjktrxc","""2024-11-13T18:51:42.036Z""","6676","","{""Age"":""21"",""Gender"":""Female"",""Race/ethnicity"":""White""}","","","","","","",""
"","","","","","html-button-response","8","122248","0.0-8.0","6hanjktrxc","","6hanjktrxc","""2024-11-13T18:51:42.036Z""","14414","<div style='text-align: center;'>
      <p>In each trial of this task, you will see three texture images: one target item on top, and two choices beneath the target item.</p>
      <p><strong>Please select the item that is most like the target item.</strong></p>
      <p>To select the option on the <strong>LEFT</strong>, press the <strong>LEFT ARROW</strong> key. 
      To select the option on the <strong>RIGHT</strong>, press the <strong>RIGHT ARROW</strong> key.</p>
                  <!-- Target Image at the Top -->
      <div style='margin: 20px;'>
        <img src='materials/imgs/instruction_images/InstructionImg1D78.png' alt='Target Image' style='width:200px; height:auto;' />
        <p><em>Target Image</em></p>
      </div>

      <!-- Two Choice Images Below -->
      <div style='display: flex; justify-content: center;'>
        <div style='margin-right: 50px;'>
          <img src='materials/imgs/instruction_images/InstructionImg2D34.png' alt='Choice Image 1' style='width:150px; height:auto;' />
          <p><em><strong>LEFT ARROW</strong></em></p>
        </div>
        <div style='margin-left: 50px;'>
          <img src='materials/imgs/instruction_images/InstructionImg3D80.png' alt='Choice Image 2' style='width:150px; height:auto;' />
          <p><em><strong>RIGHT ARROW</strong></em></p>
        </div>
      </div>
    </div>

      <p>When you are ready to proceed, please click 'Continue' to begin practice.</p>","0","","","","","","",""
"","","","","","html-keyboard-response","9","124753","0.0-9.0","6hanjktrxc","","6hanjktrxc","""2024-11-13T18:51:42.036Z""","null","+","null","","","","","","",""
"","","","","","html-keyboard-response","10","125256","0.0-10.0-0.0-0.0","6hanjktrxc","","6hanjktrxc","""2024-11-13T18:51:42.036Z""","null","+","null","","","","","","",""
"","","","","","image-keyboard-response","11","128762","0.0-10.0-0.0-1.0","6hanjktrxc","","6hanjktrxc","""2024-11-13T18:51:42.036Z""","3499","materials/imgs/D85.png","arrowright","","[""materials/imgs/D24.png"",""materials/imgs/D3.png""]","false","random","","",""
"","","","","","html-keyboard-response","12","129264","0.0-10.0-0.0-0.1","6hanjktrxc","","6hanjktrxc","""2024-11-13T18:51:42.036Z""","null","+","null","","","","","","",""
"","","","","","image-keyboard-response","13","130850","0.0-10.0-0.0-1.1","6hanjktrxc","","6hanjktrxc","""2024-11-13T18:51:42.036Z""","1584","materials/imgs/D1.png","arrowleft","","[""materials/imgs/D96.png"",""materials/imgs/D105.png""]","false","random","","",""
"","","","","","html-keyboard-response","14","131351","0.0-10.0-0.0-0.2","6hanjktrxc","","6hanjktrxc","""2024-11-13T18:51:42.036Z""","null","+","null","","","","","","",""
"","","","","","image-keyboard-response","15","133224","0.0-10.0-0.0-1.2","6hanjktrxc","","6hanjktrxc","""2024-11-13T18:51:42.036Z""","1870","materials/imgs/D32.png","arrowright","","[""materials/imgs/D26.png"",""materials/imgs/D111.png""]","false","random","","",""
"","","","","","html-keyboard-response","16","133726","0.0-10.0-0.0-0.3","6hanjktrxc","","6hanjktrxc","""2024-11-13T18:51:42.036Z""","null","+","null","","","","","","",""
"","","","","","image-keyboard-response","17","134992","0.0-10.0-0.0-1.3","6hanjktrxc","","6hanjktrxc","""2024-11-13T18:51:42.036Z""","1265","materials/imgs/D101.png","arrowleft","","[""materials/imgs/D56.png"",""materials/imgs/D80.png""]","false","random","","",""
"","","","","","html-keyboard-response","18","135494","0.0-10.0-0.0-0.4","6hanjktrxc","","6hanjktrxc","""2024-11-13T18:51:42.036Z""","null","+","null","","","","","","",""
"","","","","","image-keyboard-response","19","137192","0.0-10.0-0.0-1.4","6hanjktrxc","","6hanjktrxc","""2024-11-13T18:51:42.036Z""","1694","materials/imgs/D3.png","arrowright","","[""materials/imgs/D48.png"",""materials/imgs/D32.png""]","false","random","","",""
"","","","","","html-keyboard-response","20","137694","0.0-10.0-0.0-0.5","6hanjktrxc","","6hanjktrxc","""2024-11-13T18:51:42.036Z""","null","+","null","","","","","","",""
"","","","","","image-keyboard-response","21","140429","0.0-10.0-0.0-1.5","6hanjktrxc","","6hanjktrxc","""2024-11-13T18:51:42.036Z""","2734","materials/imgs/D17.png","arrowright","","[""materials/imgs/D84.png"",""materials/imgs/D103.png""]","false","random","","",""
"","","","","","html-keyboard-response","22","140931","0.0-10.0-0.0-0.6","6hanjktrxc","","6hanjktrxc","""2024-11-13T18:51:42.036Z""","null","+","null","","","","","","",""
"","","","","","image-keyboard-response","23","144068","0.0-10.0-0.0-1.6","6hanjktrxc","","6hanjktrxc","""2024-11-13T18:51:42.036Z""","3135","materials/imgs/D64.png","arrowleft","","[""materials/imgs/D52.png"",""materials/imgs/D101.png""]","false","random","","",""
"","","","","","html-keyboard-response","24","144570","0.0-10.0-0.0-0.7","6hanjktrxc","","6hanjktrxc","""2024-11-13T18:51:42.036Z""","null","+","null","","","","","","",""
"","","","","","image-keyboard-response","25","146982","0.0-10.0-0.0-1.7","6hanjktrxc","","6hanjktrxc","""2024-11-13T18:51:42.036Z""","2401","materials/imgs/D64.png","arrowright","","[""materials/imgs/D79.png"",""materials/imgs/D78.png""]","false","random","","",""
"","","","","","html-keyboard-response","26","147484","0.0-10.0-0.0-0.8","6hanjktrxc","","6hanjktrxc","""2024-11-13T18:51:42.036Z""","null","+","null","","","","","","",""
"","","","","","image-keyboard-response","27","150292","0.0-10.0-0.0-1.8","6hanjktrxc","","6hanjktrxc","""2024-11-13T18:51:42.036Z""","2806","materials/imgs/D77.png","arrowleft","","[""materials/imgs/D46.png"",""materials/imgs/D94.png""]","false","random","","",""
"","","","","","html-keyboard-response","28","150793","0.0-10.0-0.0-0.9","6hanjktrxc","","6hanjktrxc","""2024-11-13T18:51:42.036Z""","null","+","null","","","","","","",""
"","","","","","image-keyboard-response","29","154091","0.0-10.0-0.0-1.9","6hanjktrxc","","6hanjktrxc","""2024-11-13T18:51:42.036Z""","3296","materials/imgs/D34.png","arrowright","","[""materials/imgs/D49.png"",""materials/imgs/D83.png""]","false","random","","",""
"","","","","","html-button-response","30","158786","0.0-11.0","6hanjktrxc","","6hanjktrxc","""2024-11-13T18:51:42.036Z""","4693","<p>Great job!</p>
      <p>You are now ready to begin the experiment.</p>
      <p>There will be around 200 trials. You will have opportunities to take breaks at three stages of the trials.</p>
      <p>When you are ready to begin please click 'Continue'.</p>","0","","","","","","",""
"","","","","","html-keyboard-response","31","161289","0.0-12.0","6hanjktrxc","","6hanjktrxc","""2024-11-13T18:51:42.036Z""","null","+","null","","","","","","",""
"","","","","","html-keyboard-response","32","161792","0.0-13.0-0.0-0.0","6hanjktrxc","","6hanjktrxc","""2024-11-13T18:51:42.036Z""","null","+","null","","","","","","",""
"","","","","","image-keyboard-response","33","166316","0.0-13.0-0.0-1.0","6hanjktrxc","","6hanjktrxc","""2024-11-13T18:51:42.036Z""","4521","materials/imgs/D104.png","arrowright","","[""materials/imgs/D53.png"",""materials/imgs/D79.png""]","false","random","","",""
"","","","","","html-keyboard-response","34","166817","0.0-13.0-0.0-0.1","6hanjktrxc","","6hanjktrxc","""2024-11-13T18:51:42.036Z""","null","+","null","","","","","","",""
"","","","","","image-keyboard-response","35","168169","0.0-13.0-0.0-1.1","6hanjktrxc","","6hanjktrxc","""2024-11-13T18:51:42.036Z""","1349","materials/imgs/D94.png","arrowright","","[""materials/imgs/D49.png"",""materials/imgs/D1.png""]","false","random","","",""
"","","","","","html-keyboard-response","36","168670","0.0-13.0-0.0-0.2","6hanjktrxc","","6hanjktrxc","""2024-11-13T18:51:42.036Z""","null","+","null","","","","","","",""
"","","","","","image-keyboard-response","37","170141","0.0-13.0-0.0-1.2","6hanjktrxc","","6hanjktrxc","""2024-11-13T18:51:42.036Z""","1468","materials/imgs/D34.png","arrowright","","[""materials/imgs/D49.png"",""materials/imgs/D74.png""]","false","random","","",""
"","","","","","html-keyboard-response","38","170642","0.0-13.0-0.0-0.3","6hanjktrxc","","6hanjktrxc","""2024-11-13T18:51:42.036Z""","null","+","null","","","","","","",""
"","","","","","image-keyboard-response","39","172042","0.0-13.0-0.0-1.3","6hanjktrxc","","6hanjktrxc","""2024-11-13T18:51:42.036Z""","1398","materials/imgs/D17.png","arrowright","","[""materials/imgs/D87.png"",""materials/imgs/D79.png""]","false","random","","",""
"","","","","","html-keyboard-response","40","172544","0.0-13.0-0.0-0.4","6hanjktrxc","","6hanjktrxc","""2024-11-13T18:51:42.036Z""","null","+","null","","","","","","",""
"","","","","","image-keyboard-response","41","174319","0.0-13.0-0.0-1.4","6hanjktrxc","","6hanjktrxc","""2024-11-13T18:51:42.036Z""","1773","materials/imgs/D24.png","arrowright","","[""materials/imgs/D105.png"",""materials/imgs/D53.png""]","false","random","","",""
"","","","","","html-keyboard-response","42","174820","0.0-13.0-0.0-0.5","6hanjktrxc","","6hanjktrxc","""2024-11-13T18:51:42.036Z""","null","+","null","","","","","","",""
"","","","","","image-keyboard-response","43","176914","0.0-13.0-0.0-1.5","6hanjktrxc","","6hanjktrxc","""2024-11-13T18:51:42.036Z""","2092","materials/imgs/D68.png","arrowright","","[""materials/imgs/D74.png"",""materials/imgs/D52.png""]","false","random","","",""
"","","","","","html-keyboard-response","44","177415","0.0-13.0-0.0-0.6","6hanjktrxc","","6hanjktrxc","""2024-11-13T18:51:42.036Z""","null","+","null","","","","","","",""
"","","","","","image-keyboard-response","45","178674","0.0-13.0-0.0-1.6","6hanjktrxc","","6hanjktrxc","""2024-11-13T18:51:42.036Z""","1258","materials/imgs/D106.png","arrowright","","[""materials/imgs/D81.png"",""materials/imgs/D16.png""]","false","random","","",""
"","","","","","html-keyboard-response","46","179176","0.0-13.0-1.0-0.0","6hanjktrxc","","6hanjktrxc","""2024-11-13T18:51:42.036Z""","null","+","null","","","","","","",""
"","","","","","image-keyboard-response","47","180180","0.0-13.0-1.0-1.0","6hanjktrxc","","6hanjktrxc","""2024-11-13T18:51:42.036Z""","1003","materials/imgs/D106.png","arrowleft","","[""materials/imgs/D106.png"",""materials/imgs/D101.png""]","","check","materials/imgs/D106.png","0","true"
"","","","","","html-keyboard-response","48","180682","0.0-13.0-2.0-0.0","6hanjktrxc","","6hanjktrxc","""2024-11-13T18:51:42.036Z""","null","+","null","","","","","","",""
"","","","","","image-keyboard-response","49","183928","0.0-13.0-2.0-1.0","6hanjktrxc","","6hanjktrxc","""2024-11-13T18:51:42.036Z""","3244","materials/imgs/D18.png","arrowleft","","[""materials/imgs/D32.png"",""materials/imgs/D57.png""]","false","validation","","",""
"","","","","","html-keyboard-response","50","184430","0.0-13.0-2.0-0.1","6hanjktrxc","","6hanjktrxc","""2024-11-13T18:51:42.036Z""","null","+","null","","","","","","",""
"","","","","","image-keyboard-response","51","185866","0.0-13.0-2.0-1.1","6hanjktrxc","","6hanjktrxc","""2024-11-13T18:51:42.036Z""","1433","materials/imgs/D18.png","arrowleft","","[""materials/imgs/D32.png"",""materials/imgs/D57.png""]","false","validation","","",""
"","","","","","html-keyboard-response","52","186368","0.0-13.0-0.1-0.7","6hanjktrxc","","6hanjktrxc","""2024-11-13T18:51:42.036Z""","null","+","null","","","","","","",""
"","","","","","image-keyboard-response","53","188294","0.0-13.0-0.1-1.7","6hanjktrxc","","6hanjktrxc","""2024-11-13T18:51:42.036Z""","1923","materials/imgs/D106.png","arrowleft","","[""materials/imgs/D77.png"",""materials/imgs/D1.png""]","false","random","","",""
"","","","","","html-keyboard-response","54","188795","0.0-13.0-0.1-0.8","6hanjktrxc","","6hanjktrxc","""2024-11-13T18:51:42.036Z""","null","+","null","","","","","","",""
"","","","","","image-keyboard-response","55","191583","0.0-13.0-0.1-1.8","6hanjktrxc","","6hanjktrxc","""2024-11-13T18:51:42.036Z""","2785","materials/imgs/D34.png","arrowright","","[""materials/imgs/D101.png"",""materials/imgs/D9.png""]","false","random","","",""
"","","","","","html-keyboard-response","56","192085","0.0-13.0-0.1-0.9","6hanjktrxc","","6hanjktrxc","""2024-11-13T18:51:42.036Z""","null","+","null","","","","","","",""
"","","","","","image-keyboard-response","57","195289","0.0-13.0-0.1-1.9","6hanjktrxc","","6hanjktrxc","""2024-11-13T18:51:42.036Z""","3202","materials/imgs/D20.png","arrowleft","","[""materials/imgs/D76.png"",""materials/imgs/D18.png""]","false","random","","",""
"","","","","","html-keyboard-response","58","195790","0.0-13.0-0.1-0.10","6hanjktrxc","","6hanjktrxc","""2024-11-13T18:51:42.036Z""","null","+","null","","","","","","",""
"","","","","","image-keyboard-response","59","196757","0.0-13.0-0.1-1.10","6hanjktrxc","","6hanjktrxc","""2024-11-13T18:51:42.036Z""","965","materials/imgs/D48.png","arrowleft","","[""materials/imgs/D8.png"",""materials/imgs/D52.png""]","false","random","","",""
"","","","","","html-keyboard-response","60","197258","0.0-13.0-0.1-0.11","6hanjktrxc","","6hanjktrxc","""2024-11-13T18:51:42.036Z""","null","+","null","","","","","","",""
"","","","","","image-keyboard-response","61","199692","0.0-13.0-0.1-1.11","6hanjktrxc","","6hanjktrxc","""2024-11-13T18:51:42.036Z""","2432","materials/imgs/D36.png","arrowleft","","[""materials/imgs/D8.png"",""materials/imgs/D74.png""]","false","random","","",""
"","","","","","html-keyboard-response","62","200193","0.0-13.0-0.1-0.12","6hanjktrxc","","6hanjktrxc","""2024-11-13T18:51:42.036Z""","null","+","null","","","","","","",""
"","","","","","image-keyboard-response","63","201689","0.0-13.0-0.1-1.12","6hanjktrxc","","6hanjktrxc","""2024-11-13T18:51:42.036Z""","1493","materials/imgs/D24.png","arrowleft","","[""materials/imgs/D6.png"",""materials/imgs/D101.png""]","false","random","","",""
"","","","","","html-keyboard-response","64","202190","0.0-13.0-0.1-0.13","6hanjktrxc","","6hanjktrxc","""2024-11-13T18:51:42.036Z""","null","+","null","","","","","","",""
"","","","","","image-keyboard-response","65","203636","0.0-13.0-0.1-1.13","6hanjktrxc","","6hanjktrxc","""2024-11-13T18:51:42.036Z""","1443","materials/imgs/D49.png","arrowright","","[""materials/imgs/D8.png"",""materials/imgs/D24.png""]","false","random","","",""
"","","","","","html-keyboard-response","66","204137","0.0-13.0-1.1-0.1","6hanjktrxc","","6hanjktrxc","""2024-11-13T18:51:42.036Z""","null","+","null","","","","","","",""
"","","","","","image-keyboard-response","67","204846","0.0-13.0-1.1-1.1","6hanjktrxc","","6hanjktrxc","""2024-11-13T18:51:42.036Z""","706","materials/imgs/D106.png","arrowleft","","[""materials/imgs/D106.png"",""materials/imgs/D101.png""]","","check","materials/imgs/D106.png","0","true"
"","","","","","html-keyboard-response","68","205347","0.0-13.0-2.1-0.2","6hanjktrxc","","6hanjktrxc","""2024-11-13T18:51:42.036Z""","null","+","null","","","","","","",""
"","","","","","image-keyboard-response","69","207974","0.0-13.0-2.1-1.2","6hanjktrxc","","6hanjktrxc","""2024-11-13T18:51:42.036Z""","2625","materials/imgs/D51.png","arrowright","","[""materials/imgs/D92.png"",""materials/imgs/D20.png""]","false","validation","","",""
"","","","","","html-keyboard-response","70","208475","0.0-13.0-2.1-0.3","6hanjktrxc","","6hanjktrxc","""2024-11-13T18:51:42.036Z""","null","+","null","","","","","","",""
"","","","","","image-keyboard-response","71","210056","0.0-13.0-2.1-1.3","6hanjktrxc","","6hanjktrxc","""2024-11-13T18:51:42.036Z""","1579","materials/imgs/D22.png","arrowleft","","[""materials/imgs/D4.png"",""materials/imgs/D25.png""]","false","validation","","",""
"","","","","","html-keyboard-response","72","210557","0.0-13.0-0.2-0.14","6hanjktrxc","","6hanjktrxc","""2024-11-13T18:51:42.036Z""","null","+","null","","","","","","",""
"","","","","","image-keyboard-response","73","211454","0.0-13.0-0.2-1.14","6hanjktrxc","","6hanjktrxc","""2024-11-13T18:51:42.036Z""","895","materials/imgs/D21.png","arrowright","","[""materials/imgs/D47.png"",""materials/imgs/D22.png""]","false","random","","",""
"","","","","","html-keyboard-response","74","211955","0.0-13.0-0.2-0.15","6hanjktrxc","","6hanjktrxc","""2024-11-13T18:51:42.036Z""","null","+","null","","","","","","",""
"","","","","","image-keyboard-response","75","214684","0.0-13.0-0.2-1.15","6hanjktrxc","","6hanjktrxc","""2024-11-13T18:51:42.036Z""","2726","materials/imgs/D25.png","arrowleft","","[""materials/imgs/D47.png"",""materials/imgs/D103.png""]","false","random","","",""
"","","","","","html-keyboard-response","76","215185","0.0-13.0-0.2-0.16","6hanjktrxc","","6hanjktrxc","""2024-11-13T18:51:42.036Z""","null","+","null","","","","","","",""
"","","","","","image-keyboard-response","77","217605","0.0-13.0-0.2-1.16","6hanjktrxc","","6hanjktrxc","""2024-11-13T18:51:42.036Z""","2417","materials/imgs/D17.png","arrowleft","","[""materials/imgs/D78.png"",""materials/imgs/D4.png""]","false","random","","",""
"","","","","","html-keyboard-response","78","218107","0.0-13.0-0.2-0.17","6hanjktrxc","","6hanjktrxc","""2024-11-13T18:51:42.036Z""","null","+","null","","","","","","",""
"","","","","","image-keyboard-response","79","219221","0.0-13.0-0.2-1.17","6hanjktrxc","","6hanjktrxc","""2024-11-13T18:51:42.036Z""","1111","materials/imgs/D55.png","arrowright","","[""materials/imgs/D25.png"",""materials/imgs/D53.png""]","false","random","","",""
"","","","","","html-keyboard-response","80","219722","0.0-13.0-0.2-0.18","6hanjktrxc","","6hanjktrxc","""2024-11-13T18:51:42.036Z""","null","+","null","","","","","","",""
"","","","","","image-keyboard-response","81","221196","0.0-13.0-0.2-1.18","6hanjktrxc","","6hanjktrxc","""2024-11-13T18:51:42.036Z""","1471","materials/imgs/D16.png","arrowright","","[""materials/imgs/D8.png"",""materials/imgs/D24.png""]","false","random","","",""
"","","","","","html-keyboard-response","82","221697","0.0-13.0-0.2-0.19","6hanjktrxc","","6hanjktrxc","""2024-11-13T18:51:42.036Z""","null","+","null","","","","","","",""
"","","","","","image-keyboard-response","83","223794","0.0-13.0-0.2-1.19","6hanjktrxc","","6hanjktrxc","""2024-11-13T18:51:42.036Z""","2094","materials/imgs/D77.png","arrowright","","[""materials/imgs/D18.png"",""materials/imgs/D19.png""]","false","random","","",""
"","","","","","html-keyboard-response","84","224296","0.0-13.0-0.2-0.20","6hanjktrxc","","6hanjktrxc","""2024-11-13T18:51:42.036Z""","null","+","null","","","","","","",""
"","","","","","image-keyboard-response","85","226162","0.0-13.0-0.2-1.20","6hanjktrxc","","6hanjktrxc","""2024-11-13T18:51:42.036Z""","1863","materials/imgs/D36.png","arrowright","","[""materials/imgs/D87.png"",""materials/imgs/D24.png""]","false","random","","",""
"","","","","","html-keyboard-response","86","226663","0.0-13.0-1.2-0.2","6hanjktrxc","","6hanjktrxc","""2024-11-13T18:51:42.036Z""","null","+","null","","","","","","",""
"","","","","","image-keyboard-response","87","227779","0.0-13.0-1.2-1.2","6hanjktrxc","","6hanjktrxc","""2024-11-13T18:51:42.036Z""","1113","materials/imgs/D64.png","arrowleft","","[""materials/imgs/D64.png"",""materials/imgs/D53.png""]","","check","materials/imgs/D64.png","0","true"
"","","","","","html-keyboard-response","88","228280","0.0-13.0-2.2-0.4","6hanjktrxc","","6hanjktrxc","""2024-11-13T18:51:42.036Z""","null","+","null","","","","","","",""
"","","","","","image-keyboard-response","89","230473","0.0-13.0-2.2-1.4","6hanjktrxc","","6hanjktrxc","""2024-11-13T18:51:42.036Z""","2190","materials/imgs/D52.png","arrowleft","","[""materials/imgs/D9.png"",""materials/imgs/D19.png""]","false","validation","","",""
"","","","","","html-keyboard-response","90","230974","0.0-13.0-2.2-0.5","6hanjktrxc","","6hanjktrxc","""2024-11-13T18:51:42.036Z""","null","+","null","","","","","","",""
"","","","","","image-keyboard-response","91","232874","0.0-13.0-2.2-1.5","6hanjktrxc","","6hanjktrxc","""2024-11-13T18:51:42.036Z""","1898","materials/imgs/D106.png","arrowleft","","[""materials/imgs/D57.png"",""materials/imgs/D18.png""]","false","validation","","",""
"","","","","","html-keyboard-response","92","233375","0.0-13.0-0.3-0.21","6hanjktrxc","","6hanjktrxc","""2024-11-13T18:51:42.036Z""","null","+","null","","","","","","",""
"","","","","","image-keyboard-response","93","235699","0.0-13.0-0.3-1.21","6hanjktrxc","","6hanjktrxc","""2024-11-13T18:51:42.036Z""","2321","materials/imgs/D51.png","arrowright","","[""materials/imgs/D95.png"",""materials/imgs/D32.png""]","false","random","","",""
"","","","","","html-keyboard-response","94","236201","0.0-13.0-0.3-0.22","6hanjktrxc","","6hanjktrxc","""2024-11-13T18:51:42.036Z""","null","+","null","","","","","","",""
"","","","","","image-keyboard-response","95","237734","0.0-13.0-0.3-1.22","6hanjktrxc","","6hanjktrxc","""2024-11-13T18:51:42.036Z""","1531","materials/imgs/D74.png","arrowright","","[""materials/imgs/D106.png"",""materials/imgs/D20.png""]","false","random","","",""
"","","","","","html-keyboard-response","96","238235","0.0-13.0-0.3-0.23","6hanjktrxc","","6hanjktrxc","""2024-11-13T18:51:42.036Z""","null","+","null","","","","","","",""
"","","","","","image-keyboard-response","97","241113","0.0-13.0-0.3-1.23","6hanjktrxc","","6hanjktrxc","""2024-11-13T18:51:42.036Z""","2876","materials/imgs/D68.png","arrowleft","","[""materials/imgs/D82.png"",""materials/imgs/D96.png""]","false","random","","",""
"","","","","","html-keyboard-response","98","241614","0.0-13.0-0.3-0.24","6hanjktrxc","","6hanjktrxc","""2024-11-13T18:51:42.036Z""","null","+","null","","","","","","",""
"","","","","","image-keyboard-response","99","242601","0.0-13.0-0.3-1.24","6hanjktrxc","","6hanjktrxc","""2024-11-13T18:51:42.036Z""","985","materials/imgs/D75.png","arrowright","","[""materials/imgs/D49.png"",""materials/imgs/D57.png""]","false","random","","",""
"","","","","","html-keyboard-response","100","243103","0.0-13.0-0.3-0.25","6hanjktrxc","","6hanjktrxc","""2024-11-13T18:51:42.036Z""","null","+","null","","","","","","",""
"","","","","","image-keyboard-response","101","244271","0.0-13.0-0.3-1.25","6hanjktrxc","","6hanjktrxc","""2024-11-13T18:51:42.036Z""","1165","materials/imgs/D8.png","arrowleft","","[""materials/imgs/D111.png"",""materials/imgs/D103.png""]","false","random","","",""
"","","","","","html-keyboard-response","102","244771","0.0-13.0-0.3-0.26","6hanjktrxc","","6hanjktrxc","""2024-11-13T18:51:42.036Z""","null","+","null","","","","","","",""
"","","","","","image-keyboard-response","103","246737","0.0-13.0-0.3-1.26","6hanjktrxc","","6hanjktrxc","""2024-11-13T18:51:42.036Z""","1963","materials/imgs/D76.png","arrowleft","","[""materials/imgs/D83.png"",""materials/imgs/D36.png""]","false","random","","",""
"","","","","","html-keyboard-response","104","247238","0.0-13.0-0.3-0.27","6hanjktrxc","","6hanjktrxc","""2024-11-13T18:51:42.036Z""","null","+","null","","","","","","",""
"","","","","","image-keyboard-response","105","254249","0.0-13.0-0.3-1.27","6hanjktrxc","","6hanjktrxc","""2024-11-13T18:51:42.036Z""","7008","materials/imgs/D3.png","arrowleft","","[""materials/imgs/D9.png"",""materials/imgs/D1.png""]","false","random","","",""
"","","","","","html-keyboard-response","106","254752","0.0-13.0-1.3-0.3","6hanjktrxc","","6hanjktrxc","""2024-11-13T18:51:42.036Z""","null","+","null","","","","","","",""
"","","","","","image-keyboard-response","107","256148","0.0-13.0-1.3-1.3","6hanjktrxc","","6hanjktrxc","""2024-11-13T18:51:42.036Z""","1394","materials/imgs/D18.png","arrowright","","[""materials/imgs/D8.png"",""materials/imgs/D18.png""]","","check","materials/imgs/D18.png","1","true"
"","","","","","html-keyboard-response","108","256649","0.0-13.0-2.3-0.6","6hanjktrxc","","6hanjktrxc","""2024-11-13T18:51:42.036Z""","null","+","null","","","","","","",""
"","","","","","image-keyboard-response","109","257807","0.0-13.0-2.3-1.6","6hanjktrxc","","6hanjktrxc","""2024-11-13T18:51:42.036Z""","1156","materials/imgs/D57.png","arrowright","","[""materials/imgs/D111.png"",""materials/imgs/D4.png""]","false","validation","","",""
"","","","","","html-keyboard-response","110","258309","0.0-13.0-2.3-0.7","6hanjktrxc","","6hanjktrxc","""2024-11-13T18:51:42.036Z""","null","+","null","","","","","","",""
"","","","","","image-keyboard-response","111","259230","0.0-13.0-2.3-1.7","6hanjktrxc","","6hanjktrxc","""2024-11-13T18:51:42.036Z""","919","materials/imgs/D53.png","arrowleft","","[""materials/imgs/D77.png"",""materials/imgs/D75.png""]","false","validation","","",""
"","","","","","html-keyboard-response","112","259732","0.0-13.0-0.4-0.28","6hanjktrxc","","6hanjktrxc","""2024-11-13T18:51:42.036Z""","null","+","null","","","","","","",""
"","","","","","image-keyboard-response","113","261933","0.0-13.0-0.4-1.28","6hanjktrxc","","6hanjktrxc","""2024-11-13T18:51:42.036Z""","2199","materials/imgs/D66.png","arrowright","","[""materials/imgs/D106.png"",""materials/imgs/D53.png""]","false","random","","",""
"","","","","","html-keyboard-response","114","262434","0.0-13.0-0.4-0.29","6hanjktrxc","","6hanjktrxc","""2024-11-13T18:51:42.036Z""","null","+","null","","","","","","",""
"","","","","","image-keyboard-response","115","264517","0.0-13.0-0.4-1.29","6hanjktrxc","","6hanjktrxc","""2024-11-13T18:51:42.036Z""","2080","materials/imgs/D76.png","arrowleft","","[""materials/imgs/D66.png"",""materials/imgs/D53.png""]","false","random","","",""
"","","","","","html-keyboard-response","116","265019","0.0-13.0-0.4-0.30","6hanjktrxc","","6hanjktrxc","""2024-11-13T18:51:42.036Z""","null","+","null","","","","","","",""
"","","","","","image-keyboard-response","117","266882","0.0-13.0-0.4-1.30","6hanjktrxc","","6hanjktrxc","""2024-11-13T18:51:42.036Z""","1861","materials/imgs/D19.png","arrowright","","[""materials/imgs/D101.png"",""materials/imgs/D78.png""]","false","random","","",""
"","","","","","html-keyboard-response","118","267384","0.0-13.0-0.4-0.31","6hanjktrxc","","6hanjktrxc","""2024-11-13T18:51:42.036Z""","null","+","null","","","","","","",""
"","","","","","image-keyboard-response","119","268539","0.0-13.0-0.4-1.31","6hanjktrxc","","6hanjktrxc","""2024-11-13T18:51:42.036Z""","1152","materials/imgs/D20.png","arrowright","","[""materials/imgs/D36.png"",""materials/imgs/D22.png""]","false","random","","",""
"","","","","","html-keyboard-response","120","269040","0.0-13.0-0.4-0.32","6hanjktrxc","","6hanjktrxc","""2024-11-13T18:51:42.036Z""","null","+","null","","","","","","",""
"","","","","","image-keyboard-response","121","270344","0.0-13.0-0.4-1.32","6hanjktrxc","","6hanjktrxc","""2024-11-13T18:51:42.036Z""","1302","materials/imgs/D104.png","arrowright","","[""materials/imgs/D56.png"",""materials/imgs/D55.png""]","false","random","","",""
"","","","","","html-keyboard-response","122","270846","0.0-13.0-0.4-0.33","6hanjktrxc","","6hanjktrxc","""2024-11-13T18:51:42.036Z""","null","+","null","","","","","","",""
"","","","","","image-keyboard-response","123","276038","0.0-13.0-0.4-1.33","6hanjktrxc","","6hanjktrxc","""2024-11-13T18:51:42.036Z""","5190","materials/imgs/D87.png","arrowleft","","[""materials/imgs/D95.png"",""materials/imgs/D8.png""]","false","random","","",""
"","","","","","html-keyboard-response","124","276539","0.0-13.0-0.4-0.34","6hanjktrxc","","6hanjktrxc","""2024-11-13T18:51:42.036Z""","null","+","null","","","","","","",""
"","","","","","image-keyboard-response","125","279489","0.0-13.0-0.4-1.34","6hanjktrxc","","6hanjktrxc","""2024-11-13T18:51:42.036Z""","2947","materials/imgs/D56.png","arrowleft","","[""materials/imgs/D20.png"",""materials/imgs/D78.png""]","false","random","","",""
"","","","","","html-keyboard-response","126","279991","0.0-13.0-1.4-0.4","6hanjktrxc","","6hanjktrxc","""2024-11-13T18:51:42.036Z""","null","+","null","","","","","","",""
"","","","","","image-keyboard-response","127","280881","0.0-13.0-1.4-1.4","6hanjktrxc","","6hanjktrxc","""2024-11-13T18:51:42.036Z""","889","materials/imgs/D46.png","arrowleft","","[""materials/imgs/D46.png"",""materials/imgs/D26.png""]","","check","materials/imgs/D46.png","0","true"
"","","","","","html-keyboard-response","128","281382","0.0-13.0-2.4-0.8","6hanjktrxc","","6hanjktrxc","""2024-11-13T18:51:42.036Z""","null","+","null","","","","","","",""
"","","","","","image-keyboard-response","129","282719","0.0-13.0-2.4-1.8","6hanjktrxc","","6hanjktrxc","""2024-11-13T18:51:42.036Z""","1334","materials/imgs/D16.png","arrowleft","","[""materials/imgs/D52.png"",""materials/imgs/D25.png""]","false","validation","","",""
"","","","","","html-keyboard-response","130","283220","0.0-13.0-2.4-0.9","6hanjktrxc","","6hanjktrxc","""2024-11-13T18:51:42.036Z""","null","+","null","","","","","","",""
"","","","","","image-keyboard-response","131","285739","0.0-13.0-2.4-1.9","6hanjktrxc","","6hanjktrxc","""2024-11-13T18:51:42.036Z""","2516","materials/imgs/D6.png","arrowleft","","[""materials/imgs/D26.png"",""materials/imgs/D76.png""]","false","validation","","",""
"","","","","","html-button-response","132","288391","0.0-14.0","6hanjktrxc","","6hanjktrxc","""2024-11-13T18:51:42.036Z""","2651","You have completed 25% of the trials. Please click 'Continue' when you are ready proceed.","0","","","","","","",""
"","","","","","html-keyboard-response","133","288892","0.0-15.0-0.0-0.0","6hanjktrxc","","6hanjktrxc","""2024-11-13T18:51:42.036Z""","null","+","null","","","","","","",""
"","","","","","image-keyboard-response","134","289936","0.0-15.0-0.0-1.0","6hanjktrxc","","6hanjktrxc","""2024-11-13T18:51:42.036Z""","1044","materials/imgs/D29.png","arrowleft","","[""materials/imgs/D32.png"",""materials/imgs/D34.png""]","false","random","","",""
"","","","","","html-keyboard-response","135","290437","0.0-15.0-0.0-0.1","6hanjktrxc","","6hanjktrxc","""2024-11-13T18:51:42.036Z""","null","+","null","","","","","","",""
"","","","","","image-keyboard-response","136","292288","0.0-15.0-0.0-1.1","6hanjktrxc","","6hanjktrxc","""2024-11-13T18:51:42.036Z""","1848","materials/imgs/D25.png","arrowright","","[""materials/imgs/D9.png"",""materials/imgs/D53.png""]","false","random","","",""
"","","","","","html-keyboard-response","137","292790","0.0-15.0-0.0-0.2","6hanjktrxc","","6hanjktrxc","""2024-11-13T18:51:42.036Z""","null","+","null","","","","","","",""
"","","","","","image-keyboard-response","138","294174","0.0-15.0-0.0-1.2","6hanjktrxc","","6hanjktrxc","""2024-11-13T18:51:42.036Z""","1381","materials/imgs/D94.png","arrowright","","[""materials/imgs/D46.png"",""materials/imgs/D111.png""]","false","random","","",""
"","","","","","html-keyboard-response","139","294675","0.0-15.0-0.0-0.3","6hanjktrxc","","6hanjktrxc","""2024-11-13T18:51:42.036Z""","null","+","null","","","","","","",""
"","","","","","image-keyboard-response","140","296267","0.0-15.0-0.0-1.3","6hanjktrxc","","6hanjktrxc","""2024-11-13T18:51:42.036Z""","1590","materials/imgs/D80.png","arrowleft","","[""materials/imgs/D102.png"",""materials/imgs/D1.png""]","false","random","","",""
"","","","","","html-keyboard-response","141","296768","0.0-15.0-0.0-0.4","6hanjktrxc","","6hanjktrxc","""2024-11-13T18:51:42.036Z""","null","+","null","","","","","","",""
"","","","","","image-keyboard-response","142","298115","0.0-15.0-0.0-1.4","6hanjktrxc","","6hanjktrxc","""2024-11-13T18:51:42.036Z""","1344","materials/imgs/D25.png","arrowleft","","[""materials/imgs/D96.png"",""materials/imgs/D52.png""]","false","random","","",""
"","","","","","html-keyboard-response","143","298617","0.0-15.0-0.0-0.5","6hanjktrxc","","6hanjktrxc","""2024-11-13T18:51:42.036Z""","null","+","null","","","","","","",""
"","","","","","image-keyboard-response","144","299496","0.0-15.0-0.0-1.5","6hanjktrxc","","6hanjktrxc","""2024-11-13T18:51:42.036Z""","871","materials/imgs/D78.png","arrowleft","","[""materials/imgs/D106.png"",""materials/imgs/D94.png""]","false","random","","",""
"","","","","","html-keyboard-response","145","299997","0.0-15.0-0.0-0.6","6hanjktrxc","","6hanjktrxc","""2024-11-13T18:51:42.036Z""","null","+","null","","","","","","",""
"","","","","","image-keyboard-response","146","304411","0.0-15.0-0.0-1.6","6hanjktrxc","","6hanjktrxc","""2024-11-13T18:51:42.036Z""","4412","materials/imgs/D82.png","arrowleft","","[""materials/imgs/D18.png"",""materials/imgs/D74.png""]","false","random","","",""
"","","","","","html-keyboard-response","147","304913","0.0-15.0-1.0-0.0","6hanjktrxc","","6hanjktrxc","""2024-11-13T18:51:42.036Z""","null","+","null","","","","","","",""
"","","","","","image-keyboard-response","148","305525","0.0-15.0-1.0-1.0","6hanjktrxc","","6hanjktrxc","""2024-11-13T18:51:42.036Z""","611","materials/imgs/D26.png","arrowleft","","[""materials/imgs/D26.png"",""materials/imgs/D46.png""]","","check","materials/imgs/D26.png","0","true"
"","","","","","html-keyboard-response","149","306027","0.0-15.0-2.0-0.0","6hanjktrxc","","6hanjktrxc","""2024-11-13T18:51:42.036Z""","null","+","null","","","","","","",""
"","","","","","image-keyboard-response","150","307036","0.0-15.0-2.0-1.0","6hanjktrxc","","6hanjktrxc","""2024-11-13T18:51:42.036Z""","1008","materials/imgs/D85.png","arrowleft","","[""materials/imgs/D6.png"",""materials/imgs/D111.png""]","false","validation","","",""
"","","","","","html-keyboard-response","151","307538","0.0-15.0-2.0-0.1","6hanjktrxc","","6hanjktrxc","""2024-11-13T18:51:42.036Z""","null","+","null","","","","","","",""
"","","","","","image-keyboard-response","152","309164","0.0-15.0-2.0-1.1","6hanjktrxc","","6hanjktrxc","""2024-11-13T18:51:42.036Z""","1625","materials/imgs/D76.png","arrowleft","","[""materials/imgs/D83.png"",""materials/imgs/D6.png""]","false","validation","","",""
"","","","","","html-keyboard-response","153","309666","0.0-15.0-0.1-0.7","6hanjktrxc","","6hanjktrxc","""2024-11-13T18:51:42.036Z""","null","+","null","","","","","","",""
"","","","","","image-keyboard-response","154","310814","0.0-15.0-0.1-1.7","6hanjktrxc","","6hanjktrxc","""2024-11-13T18:51:42.036Z""","1146","materials/imgs/D22.png","arrowleft","","[""materials/imgs/D14.png"",""materials/imgs/D66.png""]","false","random","","",""
"","","","","","html-keyboard-response","155","311316","0.0-15.0-0.1-0.8","6hanjktrxc","","6hanjktrxc","""2024-11-13T18:51:42.036Z""","null","+","null","","","","","","",""
"","","","","","image-keyboard-response","156","313999","0.0-15.0-0.1-1.8","6hanjktrxc","","6hanjktrxc","""2024-11-13T18:51:42.036Z""","2681","materials/imgs/D11.png","arrowleft","","[""materials/imgs/D16.png"",""materials/imgs/D66.png""]","false","random","","",""
"","","","","","html-keyboard-response","157","314500","0.0-15.0-0.1-0.9","6hanjktrxc","","6hanjktrxc","""2024-11-13T18:51:42.036Z""","null","+","null","","","","","","",""
"","","","","","image-keyboard-response","158","316325","0.0-15.0-0.1-1.9","6hanjktrxc","","6hanjktrxc","""2024-11-13T18:51:42.036Z""","1824","materials/imgs/D52.png","arrowleft","","[""materials/imgs/D77.png"",""materials/imgs/D81.png""]","false","random","","",""
"","","","","","html-keyboard-response","159","316826","0.0-15.0-0.1-0.10","6hanjktrxc","","6hanjktrxc","""2024-11-13T18:51:42.036Z""","null","+","null","","","","","","",""
"","","","","","image-keyboard-response","160","320902","0.0-15.0-0.1-1.10","6hanjktrxc","","6hanjktrxc","""2024-11-13T18:51:42.036Z""","4073","materials/imgs/D46.png","arrowright","","[""materials/imgs/D85.png"",""materials/imgs/D101.png""]","false","random","","",""
"","","","","","html-keyboard-response","161","321404","0.0-15.0-0.1-0.11","6hanjktrxc","","6hanjktrxc","""2024-11-13T18:51:42.036Z""","null","+","null","","","","","","",""
"","","","","","image-keyboard-response","162","322769","0.0-15.0-0.1-1.11","6hanjktrxc","","6hanjktrxc","""2024-11-13T18:51:42.036Z""","1362","materials/imgs/D46.png","arrowright","","[""materials/imgs/D82.png"",""materials/imgs/D47.png""]","false","random","","",""
"","","","","","html-keyboard-response","163","323270","0.0-15.0-0.1-0.12","6hanjktrxc","","6hanjktrxc","""2024-11-13T18:51:42.036Z""","null","+","null","","","","","","",""
"","","","","","image-keyboard-response","164","325444","0.0-15.0-0.1-1.12","6hanjktrxc","","6hanjktrxc","""2024-11-13T18:51:42.036Z""","2171","materials/imgs/D83.png","arrowleft","","[""materials/imgs/D64.png"",""materials/imgs/D9.png""]","false","random","","",""
"","","","","","html-keyboard-response","165","325945","0.0-15.0-0.1-0.13","6hanjktrxc","","6hanjktrxc","""2024-11-13T18:51:42.036Z""","null","+","null","","","","","","",""
"","","","","","image-keyboard-response","166","326792","0.0-15.0-0.1-1.13","6hanjktrxc","","6hanjktrxc","""2024-11-13T18:51:42.036Z""","844","materials/imgs/D52.png","arrowleft","","[""materials/imgs/D34.png"",""materials/imgs/D78.png""]","false","random","","",""
"","","","","","html-keyboard-response","167","327293","0.0-15.0-1.1-0.1","6hanjktrxc","","6hanjktrxc","""2024-11-13T18:51:42.036Z""","null","+","null","","","","","","",""
"","","","","","image-keyboard-response","168","328114","0.0-15.0-1.1-1.1","6hanjktrxc","","6hanjktrxc","""2024-11-13T18:51:42.036Z""","819","materials/imgs/D106.png","arrowleft","","[""materials/imgs/D106.png"",""materials/imgs/D101.png""]","","check","materials/imgs/D106.png","0","true"
"","","","","","html-keyboard-response","169","328616","0.0-15.0-2.1-0.2","6hanjktrxc","","6hanjktrxc","""2024-11-13T18:51:42.036Z""","null","+","null","","","","","","",""
"","","","","","image-keyboard-response","170","330984","0.0-15.0-2.1-1.2","6hanjktrxc","","6hanjktrxc","""2024-11-13T18:51:42.036Z""","2367","materials/imgs/D1.png","arrowright","","[""materials/imgs/D57.png"",""materials/imgs/D76.png""]","false","validation","","",""
"","","","","","html-keyboard-response","171","331486","0.0-15.0-2.1-0.3","6hanjktrxc","","6hanjktrxc","""2024-11-13T18:51:42.036Z""","null","+","null","","","","","","",""
"","","","","","image-keyboard-response","172","334133","0.0-15.0-2.1-1.3","6hanjktrxc","","6hanjktrxc","""2024-11-13T18:51:42.036Z""","2645","materials/imgs/D75.png","arrowright","","[""materials/imgs/D96.png"",""materials/imgs/D4.png""]","false","validation","","",""
"","","","","","html-keyboard-response","173","334635","0.0-15.0-0.2-0.14","6hanjktrxc","","6hanjktrxc","""2024-11-13T18:51:42.036Z""","null","+","null","","","","","","",""
"","","","","","image-keyboard-response","174","336083","0.0-15.0-0.2-1.14","6hanjktrxc","","6hanjktrxc","""2024-11-13T18:51:42.036Z""","1446","materials/imgs/D48.png","arrowright","","[""materials/imgs/D87.png"",""materials/imgs/D65.png""]","false","random","","",""
"","","","","","html-keyboard-response","175","336584","0.0-15.0-0.2-0.15","6hanjktrxc","","6hanjktrxc","""2024-11-13T18:51:42.036Z""","null","+","null","","","","","","",""
"","","","","","image-keyboard-response","176","338623","0.0-15.0-0.2-1.15","6hanjktrxc","","6hanjktrxc","""2024-11-13T18:51:42.036Z""","2036","materials/imgs/D9.png","arrowleft","","[""materials/imgs/D111.png"",""materials/imgs/D37.png""]","false","random","","",""
"","","","","","html-keyboard-response","177","339124","0.0-15.0-0.2-0.16","6hanjktrxc","","6hanjktrxc","""2024-11-13T18:51:42.036Z""","null","+","null","","","","","","",""
"","","","","","image-keyboard-response","178","340589","0.0-15.0-0.2-1.16","6hanjktrxc","","6hanjktrxc","""2024-11-13T18:51:42.036Z""","1462","materials/imgs/D32.png","arrowleft","","[""materials/imgs/D76.png"",""materials/imgs/D49.png""]","false","random","","",""
"","","","","","html-keyboard-response","179","341090","0.0-15.0-0.2-0.17","6hanjktrxc","","6hanjktrxc","""2024-11-13T18:51:42.036Z""","null","+","null","","","","","","",""
"","","","","","image-keyboard-response","180","343863","0.0-15.0-0.2-1.17","6hanjktrxc","","6hanjktrxc","""2024-11-13T18:51:42.036Z""","2771","materials/imgs/D95.png","arrowleft","","[""materials/imgs/D37.png"",""materials/imgs/D84.png""]","false","random","","",""
"","","","","","html-keyboard-response","181","344365","0.0-15.0-0.2-0.18","6hanjktrxc","","6hanjktrxc","""2024-11-13T18:51:42.036Z""","null","+","null","","","","","","",""
"","","","","","image-keyboard-response","182","347486","0.0-15.0-0.2-1.18","6hanjktrxc","","6hanjktrxc","""2024-11-13T18:51:42.036Z""","3119","materials/imgs/D8.png","arrowright","","[""materials/imgs/D35.png"",""materials/imgs/D18.png""]","false","random","","",""
"","","","","","html-keyboard-response","183","347987","0.0-15.0-0.2-0.19","6hanjktrxc","","6hanjktrxc","""2024-11-13T18:51:42.036Z""","null","+","null","","","","","","",""
"","","","","","image-keyboard-response","184","350870","0.0-15.0-0.2-1.19","6hanjktrxc","","6hanjktrxc","""2024-11-13T18:51:42.036Z""","2881","materials/imgs/D37.png","arrowright","","[""materials/imgs/D20.png"",""materials/imgs/D26.png""]","false","random","","",""
"","","","","","html-keyboard-response","185","351372","0.0-15.0-0.2-0.20","6hanjktrxc","","6hanjktrxc","""2024-11-13T18:51:42.036Z""","null","+","null","","","","","","",""
"","","","","","image-keyboard-response","186","354363","0.0-15.0-0.2-1.20","6hanjktrxc","","6hanjktrxc","""2024-11-13T18:51:42.036Z""","2988","materials/imgs/D26.png","arrowright","","[""materials/imgs/D102.png"",""materials/imgs/D22.png""]","false","random","","",""
"","","","","","html-keyboard-response","187","354864","0.0-15.0-1.2-0.2","6hanjktrxc","","6hanjktrxc","""2024-11-13T18:51:42.036Z""","null","+","null","","","","","","",""
"","","","","","image-keyboard-response","188","355534","0.0-15.0-1.2-1.2","6hanjktrxc","","6hanjktrxc","""2024-11-13T18:51:42.036Z""","668","materials/imgs/D106.png","arrowleft","","[""materials/imgs/D106.png"",""materials/imgs/D101.png""]","","check","materials/imgs/D106.png","0","true"
"","","","","","html-keyboard-response","189","356036","0.0-15.0-2.2-0.4","6hanjktrxc","","6hanjktrxc","""2024-11-13T18:51:42.036Z""","null","+","null","","","","","","",""
"","","","","","image-keyboard-response","190","357680","0.0-15.0-2.2-1.4","6hanjktrxc","","6hanjktrxc","""2024-11-13T18:51:42.036Z""","1642","materials/imgs/D36.png","arrowright","","[""materials/imgs/D47.png"",""materials/imgs/D49.png""]","false","validation","","",""
"","","","","","html-keyboard-response","191","358181","0.0-15.0-2.2-0.5","6hanjktrxc","","6hanjktrxc","""2024-11-13T18:51:42.036Z""","null","+","null","","","","","","",""
"","","","","","image-keyboard-response","192","359593","0.0-15.0-2.2-1.5","6hanjktrxc","","6hanjktrxc","""2024-11-13T18:51:42.036Z""","1411","materials/imgs/D56.png","arrowright","","[""materials/imgs/D25.png"",""materials/imgs/D105.png""]","false","validation","","",""
"","","","","","html-keyboard-response","193","360094","0.0-15.0-0.3-0.21","6hanjktrxc","","6hanjktrxc","""2024-11-13T18:51:42.036Z""","null","+","null","","","","","","",""
"","","","","","image-keyboard-response","194","361375","0.0-15.0-0.3-1.21","6hanjktrxc","","6hanjktrxc","""2024-11-13T18:51:42.036Z""","1280","materials/imgs/D84.png","arrowleft","","[""materials/imgs/D22.png"",""materials/imgs/D78.png""]","false","random","","",""
"","","","","","html-keyboard-response","195","361877","0.0-15.0-0.3-0.22","6hanjktrxc","","6hanjktrxc","""2024-11-13T18:51:42.036Z""","null","+","null","","","","","","",""
"","","","","","image-keyboard-response","196","364440","0.0-15.0-0.3-1.22","6hanjktrxc","","6hanjktrxc","""2024-11-13T18:51:42.036Z""","2561","materials/imgs/D51.png","arrowright","","[""materials/imgs/D57.png"",""materials/imgs/D66.png""]","false","random","","",""
"","","","","","html-keyboard-response","197","364942","0.0-15.0-0.3-0.23","6hanjktrxc","","6hanjktrxc","""2024-11-13T18:51:42.036Z""","null","+","null","","","","","","",""
"","","","","","image-keyboard-response","198","366176","0.0-15.0-0.3-1.23","6hanjktrxc","","6hanjktrxc","""2024-11-13T18:51:42.036Z""","1232","materials/imgs/D29.png","arrowright","","[""materials/imgs/D46.png"",""materials/imgs/D82.png""]","false","random","","",""
"","","","","","html-keyboard-response","199","366677","0.0-15.0-0.3-0.24","6hanjktrxc","","6hanjktrxc","""2024-11-13T18:51:42.036Z""","null","+","null","","","","","","",""
"","","","","","image-keyboard-response","200","368933","0.0-15.0-0.3-1.24","6hanjktrxc","","6hanjktrxc","""2024-11-13T18:51:42.036Z""","2254","materials/imgs/D74.png","arrowright","","[""materials/imgs/D80.png"",""materials/imgs/D65.png""]","false","random","","",""
"","","","","","html-keyboard-response","201","369435","0.0-15.0-0.3-0.25","6hanjktrxc","","6hanjktrxc","""2024-11-13T18:51:42.036Z""","null","+","null","","","","","","",""
"","","","","","image-keyboard-response","202","370751","0.0-15.0-0.3-1.25","6hanjktrxc","","6hanjktrxc","""2024-11-13T18:51:42.036Z""","1313","materials/imgs/D79.png","arrowright","","[""materials/imgs/D25.png"",""materials/imgs/D29.png""]","false","random","","",""
"","","","","","html-keyboard-response","203","371252","0.0-15.0-0.3-0.26","6hanjktrxc","","6hanjktrxc","""2024-11-13T18:51:42.036Z""","null","+","null","","","","","","",""
"","","","","","image-keyboard-response","204","372270","0.0-15.0-0.3-1.26","6hanjktrxc","","6hanjktrxc","""2024-11-13T18:51:42.036Z""","1015","materials/imgs/D106.png","arrowright","","[""materials/imgs/D25.png"",""materials/imgs/D103.png""]","false","random","","",""
"","","","","","html-keyboard-response","205","372771","0.0-15.0-0.3-0.27","6hanjktrxc","","6hanjktrxc","""2024-11-13T18:51:42.036Z""","null","+","null","","","","","","",""
"","","","","","image-keyboard-response","206","374104","0.0-15.0-0.3-1.27","6hanjktrxc","","6hanjktrxc","""2024-11-13T18:51:42.036Z""","1330","materials/imgs/D64.png","arrowleft","","[""materials/imgs/D83.png"",""materials/imgs/D96.png""]","false","random","","",""
"","","","","","html-keyboard-response","207","374605","0.0-15.0-1.3-0.3","6hanjktrxc","","6hanjktrxc","""2024-11-13T18:51:42.036Z""","null","+","null","","","","","","",""
"","","","","","image-keyboard-response","208","375320","0.0-15.0-1.3-1.3","6hanjktrxc","","6hanjktrxc","""2024-11-13T18:51:42.036Z""","712","materials/imgs/D8.png","arrowright","","[""materials/imgs/D18.png"",""materials/imgs/D8.png""]","","check","materials/imgs/D8.png","1","true"
"","","","","","html-keyboard-response","209","375821","0.0-15.0-2.3-0.6","6hanjktrxc","","6hanjktrxc","""2024-11-13T18:51:42.036Z""","null","+","null","","","","","","",""
"","","","","","image-keyboard-response","210","377666","0.0-15.0-2.3-1.6","6hanjktrxc","","6hanjktrxc","""2024-11-13T18:51:42.036Z""","1844","materials/imgs/D64.png","arrowright","","[""materials/imgs/D6.png"",""materials/imgs/D81.png""]","false","validation","","",""
"","","","","","html-keyboard-response","211","378168","0.0-15.0-2.3-0.7","6hanjktrxc","","6hanjktrxc","""2024-11-13T18:51:42.036Z""","null","+","null","","","","","","",""
"","","","","","image-keyboard-response","212","379625","0.0-15.0-2.3-1.7","6hanjktrxc","","6hanjktrxc","""2024-11-13T18:51:42.036Z""","1455","materials/imgs/D25.png","arrowright","","[""materials/imgs/D103.png"",""materials/imgs/D64.png""]","false","validation","","",""
"","","","","","html-keyboard-response","213","380126","0.0-15.0-0.4-0.28","6hanjktrxc","","6hanjktrxc","""2024-11-13T18:51:42.036Z""","null","+","null","","","","","","",""
"","","","","","image-keyboard-response","214","381503","0.0-15.0-0.4-1.28","6hanjktrxc","","6hanjktrxc","""2024-11-13T18:51:42.036Z""","1375","materials/imgs/D94.png","arrowleft","","[""materials/imgs/D21.png"",""materials/imgs/D75.png""]","false","random","","",""
"","","","","","html-keyboard-response","215","382005","0.0-15.0-0.4-0.29","6hanjktrxc","","6hanjktrxc","""2024-11-13T18:51:42.036Z""","null","+","null","","","","","","",""
"","","","","","image-keyboard-response","216","382917","0.0-15.0-0.4-1.29","6hanjktrxc","","6hanjktrxc","""2024-11-13T18:51:42.036Z""","910","materials/imgs/D53.png","arrowleft","","[""materials/imgs/D55.png"",""materials/imgs/D46.png""]","false","random","","",""
"","","","","","html-keyboard-response","217","383418","0.0-15.0-0.4-0.30","6hanjktrxc","","6hanjktrxc","""2024-11-13T18:51:42.036Z""","null","+","null","","","","","","",""
"","","","","","image-keyboard-response","218","384987","0.0-15.0-0.4-1.30","6hanjktrxc","","6hanjktrxc","""2024-11-13T18:51:42.036Z""","1567","materials/imgs/D82.png","arrowleft","","[""materials/imgs/D101.png"",""materials/imgs/D74.png""]","false","random","","",""
"","","","","","html-keyboard-response","219","385489","0.0-15.0-0.4-0.31","6hanjktrxc","","6hanjktrxc","""2024-11-13T18:51:42.036Z""","null","+","null","","","","","","",""
"","","","","","image-keyboard-response","220","387257","0.0-15.0-0.4-1.31","6hanjktrxc","","6hanjktrxc","""2024-11-13T18:51:42.036Z""","1765","materials/imgs/D83.png","arrowright","","[""materials/imgs/D77.png"",""materials/imgs/D56.png""]","false","random","","",""
"","","","","","html-keyboard-response","221","387759","0.0-15.0-0.4-0.32","6hanjktrxc","","6hanjktrxc","""2024-11-13T18:51:42.036Z""","null","+","null","","","","","","",""
"","","","","","image-keyboard-response","222","389232","0.0-15.0-0.4-1.32","6hanjktrxc","","6hanjktrxc","""2024-11-13T18:51:42.036Z""","1470","materials/imgs/D83.png","arrowleft","","[""materials/imgs/D68.png"",""materials/imgs/D26.png""]","false","random","","",""
"","","","","","html-keyboard-response","223","389733","0.0-15.0-0.4-0.33","6hanjktrxc","","6hanjktrxc","""2024-11-13T18:51:42.036Z""","null","+","null","","","","","","",""
"","","","","","image-keyboard-response","224","390935","0.0-15.0-0.4-1.33","6hanjktrxc","","6hanjktrxc","""2024-11-13T18:51:42.036Z""","1200","materials/imgs/D92.png","arrowright","","[""materials/imgs/D20.png"",""materials/imgs/D104.png""]","false","random","","",""
"","","","","","html-keyboard-response","225","391436","0.0-15.0-0.4-0.34","6hanjktrxc","","6hanjktrxc","""2024-11-13T18:51:42.036Z""","null","+","null","","","","","","",""
"","","","","","image-keyboard-response","226","392332","0.0-15.0-0.4-1.34","6hanjktrxc","","6hanjktrxc","""2024-11-13T18:51:42.036Z""","894","materials/imgs/D46.png","arrowleft","","[""materials/imgs/D48.png"",""materials/imgs/D49.png""]","false","random","","",""
"","","","","","html-keyboard-response","227","392834","0.0-15.0-1.4-0.4","6hanjktrxc","","6hanjktrxc","""2024-11-13T18:51:42.036Z""","null","+","null","","","","","","",""
"","","","","","image-keyboard-response","228","393470","0.0-15.0-1.4-1.4","6hanjktrxc","","6hanjktrxc","""2024-11-13T18:51:42.036Z""","634","materials/imgs/D26.png","arrowleft","","[""materials/imgs/D26.png"",""materials/imgs/D46.png""]","","check","materials/imgs/D26.png","0","true"
"","","","","","html-keyboard-response","229","393971","0.0-15.0-2.4-0.8","6hanjktrxc","","6hanjktrxc","""2024-11-13T18:51:42.036Z""","null","+","null","","","","","","",""
"","","","","","image-keyboard-response","230","395517","0.0-15.0-2.4-1.8","6hanjktrxc","","6hanjktrxc","""2024-11-13T18:51:42.036Z""","1544","materials/imgs/D56.png","arrowright","","[""materials/imgs/D25.png"",""materials/imgs/D105.png""]","false","validation","","",""
"","","","","","html-keyboard-response","231","396019","0.0-15.0-2.4-0.9","6hanjktrxc","","6hanjktrxc","""2024-11-13T18:51:42.036Z""","null","+","null","","","","","","",""
"","","","","","image-keyboard-response","232","401843","0.0-15.0-2.4-1.9","6hanjktrxc","","6hanjktrxc","""2024-11-13T18:51:42.036Z""","5822","materials/imgs/D84.png","arrowleft","","[""materials/imgs/D106.png"",""materials/imgs/D37.png""]","false","validation","","",""
"","","","","","html-button-response","233","405334","0.0-16.0","6hanjktrxc","","6hanjktrxc","""2024-11-13T18:51:42.036Z""","3490","You have completed 50% of the trials. Please click 'Continue' when you are ready proceed.","0","","","","","","",""
"","","","","","html-keyboard-response","234","405836","0.0-17.0-0.0-0.0","6hanjktrxc","","6hanjktrxc","""2024-11-13T18:51:42.036Z""","null","+","null","","","","","","",""
"","","","","","image-keyboard-response","235","407261","0.0-17.0-0.0-1.0","6hanjktrxc","","6hanjktrxc","""2024-11-13T18:51:42.036Z""","1422","materials/imgs/D51.png","arrowleft","","[""materials/imgs/D17.png"",""materials/imgs/D3.png""]","false","random","","",""
"","","","","","html-keyboard-response","236","407762","0.0-17.0-0.0-0.1","6hanjktrxc","","6hanjktrxc","""2024-11-13T18:51:42.036Z""","null","+","null","","","","","","",""
"","","","","","image-keyboard-response","237","408868","0.0-17.0-0.0-1.1","6hanjktrxc","","6hanjktrxc","""2024-11-13T18:51:42.036Z""","1104","materials/imgs/D24.png","arrowleft","","[""materials/imgs/D105.png"",""materials/imgs/D111.png""]","false","random","","",""
"","","","","","html-keyboard-response","238","409369","0.0-17.0-0.0-0.2","6hanjktrxc","","6hanjktrxc","""2024-11-13T18:51:42.036Z""","null","+","null","","","","","","",""
"","","","","","image-keyboard-response","239","412774","0.0-17.0-0.0-1.2","6hanjktrxc","","6hanjktrxc","""2024-11-13T18:51:42.036Z""","3402","materials/imgs/D35.png","arrowleft","","[""materials/imgs/D87.png"",""materials/imgs/D92.png""]","false","random","","",""
"","","","","","html-keyboard-response","240","413275","0.0-17.0-0.0-0.3","6hanjktrxc","","6hanjktrxc","""2024-11-13T18:51:42.036Z""","null","+","null","","","","","","",""
"","","","","","image-keyboard-response","241","415136","0.0-17.0-0.0-1.3","6hanjktrxc","","6hanjktrxc","""2024-11-13T18:51:42.036Z""","1858","materials/imgs/D37.png","arrowleft","","[""materials/imgs/D51.png"",""materials/imgs/D79.png""]","false","random","","",""
"","","","","","html-keyboard-response","242","415637","0.0-17.0-0.0-0.4","6hanjktrxc","","6hanjktrxc","""2024-11-13T18:51:42.036Z""","null","+","null","","","","","","",""
"","","","","","image-keyboard-response","243","416579","0.0-17.0-0.0-1.4","6hanjktrxc","","6hanjktrxc","""2024-11-13T18:51:42.036Z""","940","materials/imgs/D21.png","arrowright","","[""materials/imgs/D96.png"",""materials/imgs/D57.png""]","false","random","","",""
"","","","","","html-keyboard-response","244","417081","0.0-17.0-0.0-0.5","6hanjktrxc","","6hanjktrxc","""2024-11-13T18:51:42.036Z""","null","+","null","","","","","","",""
"","","","","","image-keyboard-response","245","418611","0.0-17.0-0.0-1.5","6hanjktrxc","","6hanjktrxc","""2024-11-13T18:51:42.036Z""","1528","materials/imgs/D37.png","arrowright","","[""materials/imgs/D85.png"",""materials/imgs/D84.png""]","false","random","","",""
"","","","","","html-keyboard-response","246","419112","0.0-17.0-0.0-0.6","6hanjktrxc","","6hanjktrxc","""2024-11-13T18:51:42.036Z""","null","+","null","","","","","","",""
"","","","","","image-keyboard-response","247","422478","0.0-17.0-0.0-1.6","6hanjktrxc","","6hanjktrxc","""2024-11-13T18:51:42.036Z""","3363","materials/imgs/D8.png","arrowright","","[""materials/imgs/D56.png"",""materials/imgs/D46.png""]","false","random","","",""
"","","","","","html-keyboard-response","248","422980","0.0-17.0-1.0-0.0","6hanjktrxc","","6hanjktrxc","""2024-11-13T18:51:42.036Z""","null","+","null","","","","","","",""
"","","","","","image-keyboard-response","249","423861","0.0-17.0-1.0-1.0","6hanjktrxc","","6hanjktrxc","""2024-11-13T18:51:42.036Z""","878","materials/imgs/D64.png","arrowleft","","[""materials/imgs/D64.png"",""materials/imgs/D53.png""]","","check","materials/imgs/D64.png","0","true"
"","","","","","html-keyboard-response","250","424362","0.0-17.0-2.0-0.0","6hanjktrxc","","6hanjktrxc","""2024-11-13T18:51:42.036Z""","null","+","null","","","","","","",""
"","","","","","image-keyboard-response","251","425501","0.0-17.0-2.0-1.0","6hanjktrxc","","6hanjktrxc","""2024-11-13T18:51:42.036Z""","1137","materials/imgs/D3.png","arrowleft","","[""materials/imgs/D79.png"",""materials/imgs/D48.png""]","false","validation","","",""
"","","","","","html-keyboard-response","252","426003","0.0-17.0-2.0-0.1","6hanjktrxc","","6hanjktrxc","""2024-11-13T18:51:42.036Z""","null","+","null","","","","","","",""
"","","","","","image-keyboard-response","253","427621","0.0-17.0-2.0-1.1","6hanjktrxc","","6hanjktrxc","""2024-11-13T18:51:42.036Z""","1616","materials/imgs/D19.png","arrowleft","","[""materials/imgs/D111.png"",""materials/imgs/D56.png""]","false","validation","","",""
"","","","","","html-keyboard-response","254","428122","0.0-17.0-0.1-0.7","6hanjktrxc","","6hanjktrxc","""2024-11-13T18:51:42.036Z""","null","+","null","","","","","","",""
"","","","","","image-keyboard-response","255","431008","0.0-17.0-0.1-1.7","6hanjktrxc","","6hanjktrxc","""2024-11-13T18:51:42.036Z""","2883","materials/imgs/D22.png","arrowleft","","[""materials/imgs/D14.png"",""materials/imgs/D105.png""]","false","random","","",""
"","","","","","html-keyboard-response","256","431509","0.0-17.0-0.1-0.8","6hanjktrxc","","6hanjktrxc","""2024-11-13T18:51:42.036Z""","null","+","null","","","","","","",""
"","","","","","image-keyboard-response","257","432615","0.0-17.0-0.1-1.8","6hanjktrxc","","6hanjktrxc","""2024-11-13T18:51:42.036Z""","1104","materials/imgs/D103.png","arrowleft","","[""materials/imgs/D29.png"",""materials/imgs/D65.png""]","false","random","","",""
"","","","","","html-keyboard-response","258","433117","0.0-17.0-0.1-0.9","6hanjktrxc","","6hanjktrxc","""2024-11-13T18:51:42.036Z""","null","+","null","","","","","","",""
"","","","","","image-keyboard-response","259","435742","0.0-17.0-0.1-1.9","6hanjktrxc","","6hanjktrxc","""2024-11-13T18:51:42.036Z""","2622","materials/imgs/D18.png","arrowleft","","[""materials/imgs/D94.png"",""materials/imgs/D22.png""]","false","random","","",""
"","","","","","html-keyboard-response","260","436243","0.0-17.0-0.1-0.10","6hanjktrxc","","6hanjktrxc","""2024-11-13T18:51:42.036Z""","null","+","null","","","","","","",""
"","","","","","image-keyboard-response","261","439074","0.0-17.0-0.1-1.10","6hanjktrxc","","6hanjktrxc","""2024-11-13T18:51:42.036Z""","2821","materials/imgs/D96.png","arrowleft","","[""materials/imgs/D83.png"",""materials/imgs/D29.png""]","false","random","","",""
"","","","","","html-keyboard-response","262","439575","0.0-17.0-0.1-0.11","6hanjktrxc","","6hanjktrxc","""2024-11-13T18:51:42.036Z""","null","+","null","","","","","","",""
"","","","","","image-keyboard-response","263","441134","0.0-17.0-0.1-1.11","6hanjktrxc","","6hanjktrxc","""2024-11-13T18:51:42.036Z""","1558","materials/imgs/D111.png","arrowleft","","[""materials/imgs/D57.png"",""materials/imgs/D48.png""]","false","random","","",""
"","","","","","html-keyboard-response","264","441635","0.0-17.0-0.1-0.12","6hanjktrxc","","6hanjktrxc","""2024-11-13T18:51:42.036Z""","null","+","null","","","","","","",""
"","","","","","image-keyboard-response","265","444535","0.0-17.0-0.1-1.12","6hanjktrxc","","6hanjktrxc","""2024-11-13T18:51:42.036Z""","2898","materials/imgs/D48.png","arrowright","","[""materials/imgs/D77.png"",""materials/imgs/D85.png""]","false","random","","",""
"","","","","","html-keyboard-response","266","445037","0.0-17.0-0.1-0.13","6hanjktrxc","","6hanjktrxc","""2024-11-13T18:51:42.036Z""","null","+","null","","","","","","",""
"","","","","","image-keyboard-response","267","446338","0.0-17.0-0.1-1.13","6hanjktrxc","","6hanjktrxc","""2024-11-13T18:51:42.036Z""","1299","materials/imgs/D75.png","arrowright","","[""materials/imgs/D37.png"",""materials/imgs/D32.png""]","false","random","","",""
"","","","","","html-keyboard-response","268","446839","0.0-17.0-1.1-0.1","6hanjktrxc","","6hanjktrxc","""2024-11-13T18:51:42.036Z""","null","+","null","","","","","","",""
"","","","","","image-keyboard-response","269","447647","0.0-17.0-1.1-1.1","6hanjktrxc","","6hanjktrxc","""2024-11-13T18:51:42.036Z""","807","materials/imgs/D101.png","arrowright","","[""materials/imgs/D106.png"",""materials/imgs/D101.png""]","","check","materials/imgs/D101.png","1","true"
"","","","","","html-keyboard-response","270","448149","0.0-17.0-2.1-0.2","6hanjktrxc","","6hanjktrxc","""2024-11-13T18:51:42.036Z""","null","+","null","","","","","","",""
"","","","","","image-keyboard-response","271","449170","0.0-17.0-2.1-1.2","6hanjktrxc","","6hanjktrxc","""2024-11-13T18:51:42.036Z""","1019","materials/imgs/D22.png","arrowleft","","[""materials/imgs/D4.png"",""materials/imgs/D25.png""]","false","validation","","",""
"","","","","","html-keyboard-response","272","449671","0.0-17.0-2.1-0.3","6hanjktrxc","","6hanjktrxc","""2024-11-13T18:51:42.036Z""","null","+","null","","","","","","",""
"","","","","","image-keyboard-response","273","450481","0.0-17.0-2.1-1.3","6hanjktrxc","","6hanjktrxc","""2024-11-13T18:51:42.036Z""","808","materials/imgs/D57.png","arrowright","","[""materials/imgs/D111.png"",""materials/imgs/D4.png""]","false","validation","","",""
"","","","","","html-keyboard-response","274","450983","0.0-17.0-0.2-0.14","6hanjktrxc","","6hanjktrxc","""2024-11-13T18:51:42.036Z""","null","+","null","","","","","","",""
"","","","","","image-keyboard-response","275","453505","0.0-17.0-0.2-1.14","6hanjktrxc","","6hanjktrxc","""2024-11-13T18:51:42.036Z""","2520","materials/imgs/D56.png","arrowright","","[""materials/imgs/D9.png"",""materials/imgs/D95.png""]","false","random","","",""
"","","","","","html-keyboard-response","276","454006","0.0-17.0-0.2-0.15","6hanjktrxc","","6hanjktrxc","""2024-11-13T18:51:42.036Z""","null","+","null","","","","","","",""
"","","","","","image-keyboard-response","277","454959","0.0-17.0-0.2-1.15","6hanjktrxc","","6hanjktrxc","""2024-11-13T18:51:42.036Z""","951","materials/imgs/D35.png","arrowright","","[""materials/imgs/D16.png"",""materials/imgs/D20.png""]","false","random","","",""
"","","","","","html-keyboard-response","278","455460","0.0-17.0-0.2-0.16","6hanjktrxc","","6hanjktrxc","""2024-11-13T18:51:42.036Z""","null","+","null","","","","","","",""
"","","","","","image-keyboard-response","279","457409","0.0-17.0-0.2-1.16","6hanjktrxc","","6hanjktrxc","""2024-11-13T18:51:42.036Z""","1947","materials/imgs/D85.png","arrowright","","[""materials/imgs/D84.png"",""materials/imgs/D81.png""]","false","random","","",""
"","","","","","html-keyboard-response","280","457911","0.0-17.0-0.2-0.17","6hanjktrxc","","6hanjktrxc","""2024-11-13T18:51:42.036Z""","null","+","null","","","","","","",""
"","","","","","image-keyboard-response","281","460213","0.0-17.0-0.2-1.17","6hanjktrxc","","6hanjktrxc","""2024-11-13T18:51:42.036Z""","2300","materials/imgs/D85.png","arrowleft","","[""materials/imgs/D32.png"",""materials/imgs/D6.png""]","false","random","","",""
"","","","","","html-keyboard-response","282","460715","0.0-17.0-0.2-0.18","6hanjktrxc","","6hanjktrxc","""2024-11-13T18:51:42.036Z""","null","+","null","","","","","","",""
"","","","","","image-keyboard-response","283","462477","0.0-17.0-0.2-1.18","6hanjktrxc","","6hanjktrxc","""2024-11-13T18:51:42.036Z""","1761","materials/imgs/D82.png","arrowleft","","[""materials/imgs/D94.png"",""materials/imgs/D46.png""]","false","random","","",""
"","","","","","html-keyboard-response","284","462978","0.0-17.0-0.2-0.19","6hanjktrxc","","6hanjktrxc","""2024-11-13T18:51:42.036Z""","null","+","null","","","","","","",""
"","","","","","image-keyboard-response","285","464753","0.0-17.0-0.2-1.19","6hanjktrxc","","6hanjktrxc","""2024-11-13T18:51:42.036Z""","1772","materials/imgs/D25.png","arrowright","","[""materials/imgs/D36.png"",""materials/imgs/D102.png""]","false","random","","",""
"","","","","","html-keyboard-response","286","465254","0.0-17.0-0.2-0.20","6hanjktrxc","","6hanjktrxc","""2024-11-13T18:51:42.036Z""","null","+","null","","","","","","",""
"","","","","","image-keyboard-response","287","467905","0.0-17.0-0.2-1.20","6hanjktrxc","","6hanjktrxc","""2024-11-13T18:51:42.036Z""","2649","materials/imgs/D87.png","arrowleft","","[""materials/imgs/D51.png"",""materials/imgs/D19.png""]","false","random","","",""
"","","","","","html-keyboard-response","288","468406","0.0-17.0-1.2-0.2","6hanjktrxc","","6hanjktrxc","""2024-11-13T18:51:42.036Z""","null","+","null","","","","","","",""
"","","","","","image-keyboard-response","289","469105","0.0-17.0-1.2-1.2","6hanjktrxc","","6hanjktrxc","""2024-11-13T18:51:42.036Z""","698","materials/imgs/D18.png","arrowright","","[""materials/imgs/D8.png"",""materials/imgs/D18.png""]","","check","materials/imgs/D18.png","1","true"
"","","","","","html-keyboard-response","290","469607","0.0-17.0-2.2-0.4","6hanjktrxc","","6hanjktrxc","""2024-11-13T18:51:42.036Z""","null","+","null","","","","","","",""
"","","","","","image-keyboard-response","291","470625","0.0-17.0-2.2-1.4","6hanjktrxc","","6hanjktrxc","""2024-11-13T18:51:42.036Z""","1016","materials/imgs/D101.png","arrowright","","[""materials/imgs/D76.png"",""materials/imgs/D47.png""]","false","validation","","",""
"","","","","","html-keyboard-response","292","471126","0.0-17.0-2.2-0.5","6hanjktrxc","","6hanjktrxc","""2024-11-13T18:51:42.036Z""","null","+","null","","","","","","",""
"","","","","","image-keyboard-response","293","472654","0.0-17.0-2.2-1.5","6hanjktrxc","","6hanjktrxc","""2024-11-13T18:51:42.036Z""","1526","materials/imgs/D11.png","arrowleft","","[""materials/imgs/D83.png"",""materials/imgs/D48.png""]","false","validation","","",""
"","","","","","html-keyboard-response","294","473155","0.0-17.0-0.3-0.21","6hanjktrxc","","6hanjktrxc","""2024-11-13T18:51:42.036Z""","null","+","null","","","","","","",""
"","","","","","image-keyboard-response","295","474965","0.0-17.0-0.3-1.21","6hanjktrxc","","6hanjktrxc","""2024-11-13T18:51:42.036Z""","1807","materials/imgs/D6.png","arrowleft","","[""materials/imgs/D78.png"",""materials/imgs/D94.png""]","false","random","","",""
"","","","","","html-keyboard-response","296","475467","0.0-17.0-0.3-0.22","6hanjktrxc","","6hanjktrxc","""2024-11-13T18:51:42.036Z""","null","+","null","","","","","","",""
"","","","","","image-keyboard-response","297","477251","0.0-17.0-0.3-1.22","6hanjktrxc","","6hanjktrxc","""2024-11-13T18:51:42.036Z""","1782","materials/imgs/D101.png","arrowright","","[""materials/imgs/D105.png"",""materials/imgs/D11.png""]","false","random","","",""
"","","","","","html-keyboard-response","298","477752","0.0-17.0-0.3-0.23","6hanjktrxc","","6hanjktrxc","""2024-11-13T18:51:42.036Z""","null","+","null","","","","","","",""
"","","","","","image-keyboard-response","299","478630","0.0-17.0-0.3-1.23","6hanjktrxc","","6hanjktrxc","""2024-11-13T18:51:42.036Z""","876","materials/imgs/D21.png","arrowright","","[""materials/imgs/D8.png"",""materials/imgs/D105.png""]","false","random","","",""
"","","","","","html-keyboard-response","300","479131","0.0-17.0-0.3-0.24","6hanjktrxc","","6hanjktrxc","""2024-11-13T18:51:42.036Z""","null","+","null","","","","","","",""
"","","","","","image-keyboard-response","301","480072","0.0-17.0-0.3-1.24","6hanjktrxc","","6hanjktrxc","""2024-11-13T18:51:42.036Z""","938","materials/imgs/D111.png","arrowright","","[""materials/imgs/D82.png"",""materials/imgs/D48.png""]","false","random","","",""
"","","","","","html-keyboard-response","302","480573","0.0-17.0-0.3-0.25","6hanjktrxc","","6hanjktrxc","""2024-11-13T18:51:42.036Z""","null","+","null","","","","","","",""
"","","","","","image-keyboard-response","303","481286","0.0-17.0-0.3-1.25","6hanjktrxc","","6hanjktrxc","""2024-11-13T18:51:42.036Z""","710","materials/imgs/D56.png","arrowright","","[""materials/imgs/D102.png"",""materials/imgs/D64.png""]","false","random","","",""
"","","","","","html-keyboard-response","304","481788","0.0-17.0-0.3-0.26","6hanjktrxc","","6hanjktrxc","""2024-11-13T18:51:42.036Z""","null","+","null","","","","","","",""
"","","","","","image-keyboard-response","305","482804","0.0-17.0-0.3-1.26","6hanjktrxc","","6hanjktrxc","""2024-11-13T18:51:42.036Z""","1014","materials/imgs/D35.png","arrowleft","","[""materials/imgs/D4.png"",""materials/imgs/D6.png""]","false","random","","",""
"","","","","","html-keyboard-response","306","483305","0.0-17.0-0.3-0.27","6hanjktrxc","","6hanjktrxc","""2024-11-13T18:51:42.036Z""","null","+","null","","","","","","",""
"","","","","","image-keyboard-response","307","484438","0.0-17.0-0.3-1.27","6hanjktrxc","","6hanjktrxc","""2024-11-13T18:51:42.036Z""","1130","materials/imgs/D83.png","arrowleft","","[""materials/imgs/D17.png"",""materials/imgs/D18.png""]","false","random","","",""
"","","","","","html-keyboard-response","308","484939","0.0-17.0-1.3-0.3","6hanjktrxc","","6hanjktrxc","""2024-11-13T18:51:42.036Z""","null","+","null","","","","","","",""
"","","","","","image-keyboard-response","309","485568","0.0-17.0-1.3-1.3","6hanjktrxc","","6hanjktrxc","""2024-11-13T18:51:42.036Z""","627","materials/imgs/D76.png","arrowleft","","[""materials/imgs/D76.png"",""materials/imgs/D78.png""]","","check","materials/imgs/D76.png","0","true"
"","","","","","html-keyboard-response","310","486070","0.0-17.0-2.3-0.6","6hanjktrxc","","6hanjktrxc","""2024-11-13T18:51:42.036Z""","null","+","null","","","","","","",""
"","","","","","image-keyboard-response","311","487513","0.0-17.0-2.3-1.6","6hanjktrxc","","6hanjktrxc","""2024-11-13T18:51:42.036Z""","1441","materials/imgs/D48.png","arrowright","","[""materials/imgs/D4.png"",""materials/imgs/D37.png""]","false","validation","","",""
"","","","","","html-keyboard-response","312","488014","0.0-17.0-2.3-0.7","6hanjktrxc","","6hanjktrxc","""2024-11-13T18:51:42.036Z""","null","+","null","","","","","","",""
"","","","","","image-keyboard-response","313","489797","0.0-17.0-2.3-1.7","6hanjktrxc","","6hanjktrxc","""2024-11-13T18:51:42.036Z""","1781","materials/imgs/D95.png","arrowright","","[""materials/imgs/D36.png"",""materials/imgs/D4.png""]","false","validation","","",""
"","","","","","html-keyboard-response","314","490298","0.0-17.0-0.4-0.28","6hanjktrxc","","6hanjktrxc","""2024-11-13T18:51:42.036Z""","null","+","null","","","","","","",""
"","","","","","image-keyboard-response","315","491759","0.0-17.0-0.4-1.28","6hanjktrxc","","6hanjktrxc","""2024-11-13T18:51:42.036Z""","1459","materials/imgs/D56.png","arrowright","","[""materials/imgs/D21.png"",""materials/imgs/D105.png""]","false","random","","",""
"","","","","","html-keyboard-response","316","492261","0.0-17.0-0.4-0.29","6hanjktrxc","","6hanjktrxc","""2024-11-13T18:51:42.036Z""","null","+","null","","","","","","",""
"","","","","","image-keyboard-response","317","495628","0.0-17.0-0.4-1.29","6hanjktrxc","","6hanjktrxc","""2024-11-13T18:51:42.036Z""","3365","materials/imgs/D103.png","arrowleft","","[""materials/imgs/D56.png"",""materials/imgs/D1.png""]","false","random","","",""
"","","","","","html-keyboard-response","318","496130","0.0-17.0-0.4-0.30","6hanjktrxc","","6hanjktrxc","""2024-11-13T18:51:42.036Z""","null","+","null","","","","","","",""
"","","","","","image-keyboard-response","319","496876","0.0-17.0-0.4-1.30","6hanjktrxc","","6hanjktrxc","""2024-11-13T18:51:42.036Z""","744","materials/imgs/D21.png","arrowleft","","[""materials/imgs/D6.png"",""materials/imgs/D78.png""]","false","random","","",""
"","","","","","html-keyboard-response","320","497377","0.0-17.0-0.4-0.31","6hanjktrxc","","6hanjktrxc","""2024-11-13T18:51:42.036Z""","null","+","null","","","","","","",""
"","","","","","image-keyboard-response","321","498798","0.0-17.0-0.4-1.31","6hanjktrxc","","6hanjktrxc","""2024-11-13T18:51:42.036Z""","1418","materials/imgs/D51.png","arrowright","","[""materials/imgs/D16.png"",""materials/imgs/D1.png""]","false","random","","",""
"","","","","","html-keyboard-response","322","499299","0.0-17.0-0.4-0.32","6hanjktrxc","","6hanjktrxc","""2024-11-13T18:51:42.036Z""","null","+","null","","","","","","",""
"","","","","","image-keyboard-response","323","500670","0.0-17.0-0.4-1.32","6hanjktrxc","","6hanjktrxc","""2024-11-13T18:51:42.036Z""","1369","materials/imgs/D105.png","arrowright","","[""materials/imgs/D48.png"",""materials/imgs/D37.png""]","false","random","","",""
"","","","","","html-keyboard-response","324","501171","0.0-17.0-0.4-0.33","6hanjktrxc","","6hanjktrxc","""2024-11-13T18:51:42.036Z""","null","+","null","","","","","","",""
"","","","","","image-keyboard-response","325","502408","0.0-17.0-0.4-1.33","6hanjktrxc","","6hanjktrxc","""2024-11-13T18:51:42.036Z""","1235","materials/imgs/D22.png","arrowleft","","[""materials/imgs/D29.png"",""materials/imgs/D85.png""]","false","random","","",""
"","","","","","html-keyboard-response","326","502909","0.0-17.0-0.4-0.34","6hanjktrxc","","6hanjktrxc","""2024-11-13T18:51:42.036Z""","null","+","null","","","","","","",""
"","","","","","image-keyboard-response","327","503983","0.0-17.0-0.4-1.34","6hanjktrxc","","6hanjktrxc","""2024-11-13T18:51:42.036Z""","1071","materials/imgs/D76.png","arrowright","","[""materials/imgs/D3.png"",""materials/imgs/D11.png""]","false","random","","",""
"","","","","","html-keyboard-response","328","504484","0.0-17.0-1.4-0.4","6hanjktrxc","","6hanjktrxc","""2024-11-13T18:51:42.036Z""","null","+","null","","","","","","",""
"","","","","","image-keyboard-response","329","505251","0.0-17.0-1.4-1.4","6hanjktrxc","","6hanjktrxc","""2024-11-13T18:51:42.036Z""","766","materials/imgs/D101.png","arrowright","","[""materials/imgs/D106.png"",""materials/imgs/D101.png""]","","check","materials/imgs/D101.png","1","true"
"","","","","","html-keyboard-response","330","505753","0.0-17.0-2.4-0.8","6hanjktrxc","","6hanjktrxc","""2024-11-13T18:51:42.036Z""","null","+","null","","","","","","",""
"","","","","","image-keyboard-response","331","507897","0.0-17.0-2.4-1.8","6hanjktrxc","","6hanjktrxc","""2024-11-13T18:51:42.036Z""","2142","materials/imgs/D65.png","arrowright","","[""materials/imgs/D4.png"",""materials/imgs/D16.png""]","false","validation","","",""
"","","","","","html-keyboard-response","332","508399","0.0-17.0-2.4-0.9","6hanjktrxc","","6hanjktrxc","""2024-11-13T18:51:42.036Z""","null","+","null","","","","","","",""
"","","","","","image-keyboard-response","333","510268","0.0-17.0-2.4-1.9","6hanjktrxc","","6hanjktrxc","""2024-11-13T18:51:42.036Z""","1867","materials/imgs/D66.png","arrowleft","","[""materials/imgs/D85.png"",""materials/imgs/D25.png""]","false","validation","","",""
"","","","","","html-button-response","334","607230","0.0-18.0","6hanjktrxc","","6hanjktrxc","""2024-11-13T18:51:42.036Z""","96961","You have completed 75% of the trials. Please click 'Continue' when you are ready proceed.","0","","","","","","",""
"","","","","","html-keyboard-response","335","607731","0.0-19.0-0.0-0.0","6hanjktrxc","","6hanjktrxc","""2024-11-13T18:51:42.036Z""","null","+","null","","","","","","",""
"","","","","","image-keyboard-response","336","609894","0.0-19.0-0.0-1.0","6hanjktrxc","","6hanjktrxc","""2024-11-13T18:51:42.036Z""","2160","materials/imgs/D65.png","arrowleft","","[""materials/imgs/D102.png"",""materials/imgs/D29.png""]","false","random","","",""
"","","","","","html-keyboard-response","337","610394","0.0-19.0-0.0-0.1","6hanjktrxc","","6hanjktrxc","""2024-11-13T18:51:42.036Z""","null","+","null","","","","","","",""
"","","","","","image-keyboard-response","338","612124","0.0-19.0-0.0-1.1","6hanjktrxc","","6hanjktrxc","""2024-11-13T18:51:42.036Z""","1728","materials/imgs/D96.png","arrowright","","[""materials/imgs/D83.png"",""materials/imgs/D64.png""]","false","random","","",""
"","","","","","html-keyboard-response","339","612625","0.0-19.0-0.0-0.2","6hanjktrxc","","6hanjktrxc","""2024-11-13T18:51:42.036Z""","null","+","null","","","","","","",""
"","","","","","image-keyboard-response","340","614225","0.0-19.0-0.0-1.2","6hanjktrxc","","6hanjktrxc","""2024-11-13T18:51:42.036Z""","1598","materials/imgs/D57.png","arrowright","","[""materials/imgs/D26.png"",""materials/imgs/D75.png""]","false","random","","",""
"","","","","","html-keyboard-response","341","614727","0.0-19.0-0.0-0.3","6hanjktrxc","","6hanjktrxc","""2024-11-13T18:51:42.036Z""","null","+","null","","","","","","",""
"","","","","","image-keyboard-response","342","617092","0.0-19.0-0.0-1.3","6hanjktrxc","","6hanjktrxc","""2024-11-13T18:51:42.036Z""","2363","materials/imgs/D68.png","arrowleft","","[""materials/imgs/D56.png"",""materials/imgs/D4.png""]","false","random","","",""
"","","","","","html-keyboard-response","343","617594","0.0-19.0-0.0-0.4","6hanjktrxc","","6hanjktrxc","""2024-11-13T18:51:42.036Z""","null","+","null","","","","","","",""
"","","","","","image-keyboard-response","344","619100","0.0-19.0-0.0-1.4","6hanjktrxc","","6hanjktrxc","""2024-11-13T18:51:42.036Z""","1503","materials/imgs/D94.png","arrowleft","","[""materials/imgs/D102.png"",""materials/imgs/D6.png""]","false","random","","",""
"","","","","","html-keyboard-response","345","619601","0.0-19.0-0.0-0.5","6hanjktrxc","","6hanjktrxc","""2024-11-13T18:51:42.036Z""","null","+","null","","","","","","",""
"","","","","","image-keyboard-response","346","620862","0.0-19.0-0.0-1.5","6hanjktrxc","","6hanjktrxc","""2024-11-13T18:51:42.036Z""","1258","materials/imgs/D106.png","arrowleft","","[""materials/imgs/D77.png"",""materials/imgs/D32.png""]","false","random","","",""
"","","","","","html-keyboard-response","347","621364","0.0-19.0-0.0-0.6","6hanjktrxc","","6hanjktrxc","""2024-11-13T18:51:42.036Z""","null","+","null","","","","","","",""
"","","","","","image-keyboard-response","348","622655","0.0-19.0-0.0-1.6","6hanjktrxc","","6hanjktrxc","""2024-11-13T18:51:42.036Z""","1289","materials/imgs/D84.png","arrowright","","[""materials/imgs/D77.png"",""materials/imgs/D102.png""]","false","random","","",""
"","","","","","html-keyboard-response","349","623157","0.0-19.0-1.0-0.0","6hanjktrxc","","6hanjktrxc","""2024-11-13T18:51:42.036Z""","null","+","null","","","","","","",""
"","","","","","image-keyboard-response","350","623955","0.0-19.0-1.0-1.0","6hanjktrxc","","6hanjktrxc","""2024-11-13T18:51:42.036Z""","796","materials/imgs/D53.png","arrowright","","[""materials/imgs/D64.png"",""materials/imgs/D53.png""]","","check","materials/imgs/D53.png","1","true"
"","","","","","html-keyboard-response","351","624456","0.0-19.0-2.0-0.0","6hanjktrxc","","6hanjktrxc","""2024-11-13T18:51:42.036Z""","null","+","null","","","","","","",""
"","","","","","image-keyboard-response","352","625867","0.0-19.0-2.0-1.0","6hanjktrxc","","6hanjktrxc","""2024-11-13T18:51:42.036Z""","1409","materials/imgs/D92.png","arrowleft","","[""materials/imgs/D56.png"",""materials/imgs/D77.png""]","false","validation","","",""
"","","","","","html-keyboard-response","353","626368","0.0-19.0-2.0-0.1","6hanjktrxc","","6hanjktrxc","""2024-11-13T18:51:42.036Z""","null","+","null","","","","","","",""
"","","","","","image-keyboard-response","354","628859","0.0-19.0-2.0-1.1","6hanjktrxc","","6hanjktrxc","""2024-11-13T18:51:42.036Z""","2489","materials/imgs/D96.png","arrowright","","[""materials/imgs/D46.png"",""materials/imgs/D18.png""]","false","validation","","",""
"","","","","","html-keyboard-response","355","629361","0.0-19.0-0.1-0.7","6hanjktrxc","","6hanjktrxc","""2024-11-13T18:51:42.036Z""","null","+","null","","","","","","",""
"","","","","","image-keyboard-response","356","630901","0.0-19.0-0.1-1.7","6hanjktrxc","","6hanjktrxc","""2024-11-13T18:51:42.036Z""","1537","materials/imgs/D16.png","arrowright","","[""materials/imgs/D56.png"",""materials/imgs/D11.png""]","false","random","","",""
"","","","","","html-keyboard-response","357","631403","0.0-19.0-0.1-0.8","6hanjktrxc","","6hanjktrxc","""2024-11-13T18:51:42.036Z""","null","+","null","","","","","","",""
"","","","","","image-keyboard-response","358","632601","0.0-19.0-0.1-1.8","6hanjktrxc","","6hanjktrxc","""2024-11-13T18:51:42.036Z""","1196","materials/imgs/D14.png","arrowleft","","[""materials/imgs/D84.png"",""materials/imgs/D25.png""]","false","random","","",""
"","","","","","html-keyboard-response","359","633103","0.0-19.0-0.1-0.9","6hanjktrxc","","6hanjktrxc","""2024-11-13T18:51:42.036Z""","null","+","null","","","","","","",""
"","","","","","image-keyboard-response","360","635327","0.0-19.0-0.1-1.9","6hanjktrxc","","6hanjktrxc","""2024-11-13T18:51:42.036Z""","2222","materials/imgs/D92.png","arrowright","","[""materials/imgs/D105.png"",""materials/imgs/D64.png""]","false","random","","",""
"","","","","","html-keyboard-response","361","635829","0.0-19.0-0.1-0.10","6hanjktrxc","","6hanjktrxc","""2024-11-13T18:51:42.036Z""","null","+","null","","","","","","",""
"","","","","","image-keyboard-response","362","636813","0.0-19.0-0.1-1.10","6hanjktrxc","","6hanjktrxc","""2024-11-13T18:51:42.036Z""","982","materials/imgs/D80.png","arrowleft","","[""materials/imgs/D14.png"",""materials/imgs/D56.png""]","false","random","","",""
"","","","","","html-keyboard-response","363","637314","0.0-19.0-0.1-0.11","6hanjktrxc","","6hanjktrxc","""2024-11-13T18:51:42.036Z""","null","+","null","","","","","","",""
"","","","","","image-keyboard-response","364","638214","0.0-19.0-0.1-1.11","6hanjktrxc","","6hanjktrxc","""2024-11-13T18:51:42.036Z""","898","materials/imgs/D78.png","arrowleft","","[""materials/imgs/D17.png"",""materials/imgs/D66.png""]","false","random","","",""
"","","","","","html-keyboard-response","365","638716","0.0-19.0-0.1-0.12","6hanjktrxc","","6hanjktrxc","""2024-11-13T18:51:42.036Z""","null","+","null","","","","","","",""
"","","","","","image-keyboard-response","366","640117","0.0-19.0-0.1-1.12","6hanjktrxc","","6hanjktrxc","""2024-11-13T18:51:42.036Z""","1398","materials/imgs/D80.png","arrowright","","[""materials/imgs/D104.png"",""materials/imgs/D36.png""]","false","random","","",""
"","","","","","html-keyboard-response","367","640618","0.0-19.0-0.1-0.13","6hanjktrxc","","6hanjktrxc","""2024-11-13T18:51:42.036Z""","null","+","null","","","","","","",""
"","","","","","image-keyboard-response","368","642104","0.0-19.0-0.1-1.13","6hanjktrxc","","6hanjktrxc","""2024-11-13T18:51:42.036Z""","1484","materials/imgs/D46.png","arrowleft","","[""materials/imgs/D74.png"",""materials/imgs/D35.png""]","false","random","","",""
"","","","","","html-keyboard-response","369","642606","0.0-19.0-1.1-0.1","6hanjktrxc","","6hanjktrxc","""2024-11-13T18:51:42.036Z""","null","+","null","","","","","","",""
"","","","","","image-keyboard-response","370","643444","0.0-19.0-1.1-1.1","6hanjktrxc","","6hanjktrxc","""2024-11-13T18:51:42.036Z""","836","materials/imgs/D18.png","arrowright","","[""materials/imgs/D8.png"",""materials/imgs/D18.png""]","","check","materials/imgs/D18.png","1","true"
"","","","","","html-keyboard-response","371","643946","0.0-19.0-2.1-0.2","6hanjktrxc","","6hanjktrxc","""2024-11-13T18:51:42.036Z""","null","+","null","","","","","","",""
"","","","","","image-keyboard-response","372","645021","0.0-19.0-2.1-1.2","6hanjktrxc","","6hanjktrxc","""2024-11-13T18:51:42.036Z""","1073","materials/imgs/D85.png","arrowleft","","[""materials/imgs/D6.png"",""materials/imgs/D111.png""]","false","validation","","",""
"","","","","","html-keyboard-response","373","645523","0.0-19.0-2.1-0.3","6hanjktrxc","","6hanjktrxc","""2024-11-13T18:51:42.036Z""","null","+","null","","","","","","",""
"","","","","","image-keyboard-response","374","646968","0.0-19.0-2.1-1.3","6hanjktrxc","","6hanjktrxc","""2024-11-13T18:51:42.036Z""","1443","materials/imgs/D111.png","arrowleft","","[""materials/imgs/D82.png"",""materials/imgs/D95.png""]","false","validation","","",""
"","","","","","html-keyboard-response","375","647470","0.0-19.0-0.2-0.14","6hanjktrxc","","6hanjktrxc","""2024-11-13T18:51:42.036Z""","null","+","null","","","","","","",""
"","","","","","image-keyboard-response","376","648508","0.0-19.0-0.2-1.14","6hanjktrxc","","6hanjktrxc","""2024-11-13T18:51:42.036Z""","1035","materials/imgs/D65.png","arrowleft","","[""materials/imgs/D84.png"",""materials/imgs/D49.png""]","false","random","","",""
"","","","","","html-keyboard-response","377","649009","0.0-19.0-0.2-0.15","6hanjktrxc","","6hanjktrxc","""2024-11-13T18:51:42.036Z""","null","+","null","","","","","","",""
"","","","","","image-keyboard-response","378","651636","0.0-19.0-0.2-1.15","6hanjktrxc","","6hanjktrxc","""2024-11-13T18:51:42.036Z""","2624","materials/imgs/D102.png","arrowleft","","[""materials/imgs/D4.png"",""materials/imgs/D80.png""]","false","random","","",""
"","","","","","html-keyboard-response","379","652137","0.0-19.0-0.2-0.16","6hanjktrxc","","6hanjktrxc","""2024-11-13T18:51:42.036Z""","null","+","null","","","","","","",""
"","","","","","image-keyboard-response","380","654121","0.0-19.0-0.2-1.16","6hanjktrxc","","6hanjktrxc","""2024-11-13T18:51:42.036Z""","1974","materials/imgs/D29.png","arrowleft","","[""materials/imgs/D92.png"",""materials/imgs/D14.png""]","false","random","","",""
"","","","","","html-keyboard-response","381","654623","0.0-19.0-0.2-0.17","6hanjktrxc","","6hanjktrxc","""2024-11-13T18:51:42.036Z""","null","+","null","","","","","","",""
"","","","","","image-keyboard-response","382","655945","0.0-19.0-0.2-1.17","6hanjktrxc","","6hanjktrxc","""2024-11-13T18:51:42.036Z""","1320","materials/imgs/D57.png","arrowright","","[""materials/imgs/D51.png"",""materials/imgs/D53.png""]","false","random","","",""
"","","","","","html-keyboard-response","383","656446","0.0-19.0-0.2-0.18","6hanjktrxc","","6hanjktrxc","""2024-11-13T18:51:42.036Z""","null","+","null","","","","","","",""
"","","","","","image-keyboard-response","384","657584","0.0-19.0-0.2-1.18","6hanjktrxc","","6hanjktrxc","""2024-11-13T18:51:42.036Z""","1135","materials/imgs/D57.png","arrowleft","","[""materials/imgs/D20.png"",""materials/imgs/D26.png""]","false","random","","",""
"","","","","","html-keyboard-response","385","658085","0.0-19.0-0.2-0.19","6hanjktrxc","","6hanjktrxc","""2024-11-13T18:51:42.036Z""","null","+","null","","","","","","",""
"","","","","","image-keyboard-response","386","667976","0.0-19.0-0.2-1.19","6hanjktrxc","","6hanjktrxc","""2024-11-13T18:51:42.036Z""","9890","materials/imgs/D17.png","arrowleft","","[""materials/imgs/D95.png"",""materials/imgs/D96.png""]","false","random","","",""
"","","","","","html-keyboard-response","387","668479","0.0-19.0-0.2-0.20","6hanjktrxc","","6hanjktrxc","""2024-11-13T18:51:42.036Z""","null","+","null","","","","","","",""
"","","","","","image-keyboard-response","388","669517","0.0-19.0-0.2-1.20","6hanjktrxc","","6hanjktrxc","""2024-11-13T18:51:42.036Z""","1036","materials/imgs/D49.png","arrowleft","","[""materials/imgs/D53.png"",""materials/imgs/D24.png""]","false","random","","",""
"","","","","","html-keyboard-response","389","670018","0.0-19.0-1.2-0.2","6hanjktrxc","","6hanjktrxc","""2024-11-13T18:51:42.036Z""","null","+","null","","","","","","",""
"","","","","","image-keyboard-response","390","670847","0.0-19.0-1.2-1.2","6hanjktrxc","","6hanjktrxc","""2024-11-13T18:51:42.036Z""","827","materials/imgs/D101.png","arrowright","","[""materials/imgs/D106.png"",""materials/imgs/D101.png""]","","check","materials/imgs/D101.png","1","true"
"","","","","","html-keyboard-response","391","671348","0.0-19.0-2.2-0.4","6hanjktrxc","","6hanjktrxc","""2024-11-13T18:51:42.036Z""","null","+","null","","","","","","",""
"","","","","","image-keyboard-response","392","672752","0.0-19.0-2.2-1.4","6hanjktrxc","","6hanjktrxc","""2024-11-13T18:51:42.036Z""","1402","materials/imgs/D79.png","arrowright","","[""materials/imgs/D51.png"",""materials/imgs/D64.png""]","false","validation","","",""
"","","","","","html-keyboard-response","393","673253","0.0-19.0-2.2-0.5","6hanjktrxc","","6hanjktrxc","""2024-11-13T18:51:42.036Z""","null","+","null","","","","","","",""
"","","","","","image-keyboard-response","394","675100","0.0-19.0-2.2-1.5","6hanjktrxc","","6hanjktrxc","""2024-11-13T18:51:42.036Z""","1845","materials/imgs/D95.png","arrowleft","","[""materials/imgs/D36.png"",""materials/imgs/D4.png""]","false","validation","","",""
"","","","","","html-keyboard-response","395","675602","0.0-19.0-0.3-0.21","6hanjktrxc","","6hanjktrxc","""2024-11-13T18:51:42.036Z""","null","+","null","","","","","","",""
"","","","","","image-keyboard-response","396","676230","0.0-19.0-0.3-1.21","6hanjktrxc","","6hanjktrxc","""2024-11-13T18:51:42.036Z""","626","materials/imgs/D85.png","arrowleft","","[""materials/imgs/D106.png"",""materials/imgs/D48.png""]","false","random","","",""
"","","","","","html-keyboard-response","397","676731","0.0-19.0-0.3-0.22","6hanjktrxc","","6hanjktrxc","""2024-11-13T18:51:42.036Z""","null","+","null","","","","","","",""
"","","","","","image-keyboard-response","398","677861","0.0-19.0-0.3-1.22","6hanjktrxc","","6hanjktrxc","""2024-11-13T18:51:42.036Z""","1128","materials/imgs/D32.png","arrowleft","","[""materials/imgs/D19.png"",""materials/imgs/D1.png""]","false","random","","",""
"","","","","","html-keyboard-response","399","678362","0.0-19.0-0.3-0.23","6hanjktrxc","","6hanjktrxc","""2024-11-13T18:51:42.036Z""","null","+","null","","","","","","",""
"","","","","","image-keyboard-response","400","679588","0.0-19.0-0.3-1.23","6hanjktrxc","","6hanjktrxc","""2024-11-13T18:51:42.036Z""","1223","materials/imgs/D32.png","arrowright","","[""materials/imgs/D36.png"",""materials/imgs/D4.png""]","false","random","","",""
"","","","","","html-keyboard-response","401","680090","0.0-19.0-0.3-0.24","6hanjktrxc","","6hanjktrxc","""2024-11-13T18:51:42.036Z""","null","+","null","","","","","","",""
"","","","","","image-keyboard-response","402","681347","0.0-19.0-0.3-1.24","6hanjktrxc","","6hanjktrxc","""2024-11-13T18:51:42.036Z""","1255","materials/imgs/D51.png","arrowleft","","[""materials/imgs/D80.png"",""materials/imgs/D81.png""]","false","random","","",""
"","","","","","html-keyboard-response","403","681848","0.0-19.0-0.3-0.25","6hanjktrxc","","6hanjktrxc","""2024-11-13T18:51:42.036Z""","null","+","null","","","","","","",""
"","","","","","image-keyboard-response","404","683473","0.0-19.0-0.3-1.25","6hanjktrxc","","6hanjktrxc","""2024-11-13T18:51:42.036Z""","1624","materials/imgs/D111.png","arrowright","","[""materials/imgs/D47.png"",""materials/imgs/D75.png""]","false","random","","",""
"","","","","","html-keyboard-response","405","683974","0.0-19.0-0.3-0.26","6hanjktrxc","","6hanjktrxc","""2024-11-13T18:51:42.036Z""","null","+","null","","","","","","",""
"","","","","","image-keyboard-response","406","685067","0.0-19.0-0.3-1.26","6hanjktrxc","","6hanjktrxc","""2024-11-13T18:51:42.036Z""","1091","materials/imgs/D104.png","arrowleft","","[""materials/imgs/D103.png"",""materials/imgs/D57.png""]","false","random","","",""
"","","","","","html-keyboard-response","407","685568","0.0-19.0-0.3-0.27","6hanjktrxc","","6hanjktrxc","""2024-11-13T18:51:42.036Z""","null","+","null","","","","","","",""
"","","","","","image-keyboard-response","408","686506","0.0-19.0-0.3-1.27","6hanjktrxc","","6hanjktrxc","""2024-11-13T18:51:42.036Z""","935","materials/imgs/D29.png","arrowleft","","[""materials/imgs/D84.png"",""materials/imgs/D64.png""]","false","random","","",""
"","","","","","html-keyboard-response","409","687008","0.0-19.0-1.3-0.3","6hanjktrxc","","6hanjktrxc","""2024-11-13T18:51:42.036Z""","null","+","null","","","","","","",""
"","","","","","image-keyboard-response","410","687757","0.0-19.0-1.3-1.3","6hanjktrxc","","6hanjktrxc","""2024-11-13T18:51:42.036Z""","748","materials/imgs/D46.png","arrowleft","","[""materials/imgs/D46.png"",""materials/imgs/D26.png""]","","check","materials/imgs/D46.png","0","true"
"","","","","","html-keyboard-response","411","688259","0.0-19.0-2.3-0.6","6hanjktrxc","","6hanjktrxc","""2024-11-13T18:51:42.036Z""","null","+","null","","","","","","",""
"","","","","","image-keyboard-response","412","691026","0.0-19.0-2.3-1.6","6hanjktrxc","","6hanjktrxc","""2024-11-13T18:51:42.036Z""","2765","materials/imgs/D92.png","arrowleft","","[""materials/imgs/D56.png"",""materials/imgs/D77.png""]","false","validation","","",""
"","","","","","html-keyboard-response","413","691528","0.0-19.0-2.3-0.7","6hanjktrxc","","6hanjktrxc","""2024-11-13T18:51:42.036Z""","null","+","null","","","","","","",""
"","","","","","image-keyboard-response","414","693545","0.0-19.0-2.3-1.7","6hanjktrxc","","6hanjktrxc","""2024-11-13T18:51:42.036Z""","2015","materials/imgs/D49.png","arrowright","","[""materials/imgs/D8.png"",""materials/imgs/D101.png""]","false","validation","","",""
"","","","","","html-keyboard-response","415","694046","0.0-19.0-0.4-0.28","6hanjktrxc","","6hanjktrxc","""2024-11-13T18:51:42.036Z""","null","+","null","","","","","","",""
"","","","","","image-keyboard-response","416","695071","0.0-19.0-0.4-1.28","6hanjktrxc","","6hanjktrxc","""2024-11-13T18:51:42.036Z""","1022","materials/imgs/D24.png","arrowright","","[""materials/imgs/D68.png"",""materials/imgs/D55.png""]","false","random","","",""
"","","","","","html-keyboard-response","417","695572","0.0-19.0-0.4-0.29","6hanjktrxc","","6hanjktrxc","""2024-11-13T18:51:42.036Z""","null","+","null","","","","","","",""
"","","","","","image-keyboard-response","418","696817","0.0-19.0-0.4-1.29","6hanjktrxc","","6hanjktrxc","""2024-11-13T18:51:42.036Z""","1243","materials/imgs/D35.png","arrowleft","","[""materials/imgs/D68.png"",""materials/imgs/D64.png""]","false","random","","",""
"","","","","","html-keyboard-response","419","697318","0.0-19.0-0.4-0.30","6hanjktrxc","","6hanjktrxc","""2024-11-13T18:51:42.036Z""","null","+","null","","","","","","",""
"","","","","","image-keyboard-response","420","698092","0.0-19.0-0.4-1.30","6hanjktrxc","","6hanjktrxc","""2024-11-13T18:51:42.036Z""","772","materials/imgs/D82.png","arrowleft","","[""materials/imgs/D92.png"",""materials/imgs/D34.png""]","false","random","","",""
"","","","","","html-keyboard-response","421","698593","0.0-19.0-0.4-0.31","6hanjktrxc","","6hanjktrxc","""2024-11-13T18:51:42.036Z""","null","+","null","","","","","","",""
"","","","","","image-keyboard-response","422","699897","0.0-19.0-0.4-1.31","6hanjktrxc","","6hanjktrxc","""2024-11-13T18:51:42.036Z""","1301","materials/imgs/D53.png","arrowleft","","[""materials/imgs/D95.png"",""materials/imgs/D94.png""]","false","random","","",""
"","","","","","html-keyboard-response","423","700398","0.0-19.0-0.4-0.32","6hanjktrxc","","6hanjktrxc","""2024-11-13T18:51:42.036Z""","null","+","null","","","","","","",""
"","","","","","image-keyboard-response","424","701478","0.0-19.0-0.4-1.32","6hanjktrxc","","6hanjktrxc","""2024-11-13T18:51:42.036Z""","1078","materials/imgs/D65.png","arrowleft","","[""materials/imgs/D47.png"",""materials/imgs/D76.png""]","false","random","","",""
"","","","","","html-keyboard-response","425","701979","0.0-19.0-0.4-0.33","6hanjktrxc","","6hanjktrxc","""2024-11-13T18:51:42.036Z""","null","+","null","","","","","","",""
"","","","","","image-keyboard-response","426","703432","0.0-19.0-0.4-1.33","6hanjktrxc","","6hanjktrxc","""2024-11-13T18:51:42.036Z""","1452","materials/imgs/D3.png","arrowleft","","[""materials/imgs/D77.png"",""materials/imgs/D16.png""]","false","random","","",""
"","","","","","html-keyboard-response","427","703933","0.0-19.0-0.4-0.34","6hanjktrxc","","6hanjktrxc","""2024-11-13T18:51:42.036Z""","null","+","null","","","","","","",""
"","","","","","image-keyboard-response","428","706522","0.0-19.0-0.4-1.34","6hanjktrxc","","6hanjktrxc","""2024-11-13T18:51:42.036Z""","2586","materials/imgs/D105.png","arrowleft","","[""materials/imgs/D14.png"",""materials/imgs/D80.png""]","false","random","","",""
"","","","","","html-keyboard-response","429","707023","0.0-19.0-1.4-0.4","6hanjktrxc","","6hanjktrxc","""2024-11-13T18:51:42.036Z""","null","+","null","","","","","","",""
"","","","","","image-keyboard-response","430","707622","0.0-19.0-1.4-1.4","6hanjktrxc","","6hanjktrxc","""2024-11-13T18:51:42.036Z""","597","materials/imgs/D53.png","arrowright","","[""materials/imgs/D64.png"",""materials/imgs/D53.png""]","","check","materials/imgs/D53.png","1","true"
"","","","","","html-keyboard-response","431","708124","0.0-19.0-2.4-0.8","6hanjktrxc","","6hanjktrxc","""2024-11-13T18:51:42.036Z""","null","+","null","","","","","","",""
"","","","","","image-keyboard-response","432","709007","0.0-19.0-2.4-1.8","6hanjktrxc","","6hanjktrxc","""2024-11-13T18:51:42.036Z""","880","materials/imgs/D64.png","arrowright","","[""materials/imgs/D6.png"",""materials/imgs/D81.png""]","false","validation","","",""
"","","","","","html-keyboard-response","433","709508","0.0-19.0-2.4-0.9","6hanjktrxc","","6hanjktrxc","""2024-11-13T18:51:42.036Z""","null","+","null","","","","","","",""
"","","","","","image-keyboard-response","434","711044","0.0-19.0-2.4-1.9","6hanjktrxc","","6hanjktrxc","""2024-11-13T18:51:42.036Z""","1533","materials/imgs/D48.png","arrowright","","[""materials/imgs/D4.png"",""materials/imgs/D37.png""]","false","validation","","",""
