"success","timeout","failed_images","failed_audio","failed_video","trial_type","trial_index","time_elapsed","internal_node_id","subject_id","sona_id","subjectID","dateInfo","rt","stimulus","response","question_order","choices","speedy","sampleAlg","selected_image","selected_index","correct"
"true","false","[]","[]","[]","preload","0","409","0.0-0.0","6j718wpcmd","","6j718wpcmd","""2024-11-12T18:56:35.733Z""","","","","","","","","","",""
"true","","","","","fullscreen","1","2696","0.0-1.0","6j718wpcmd","","6j718wpcmd","""2024-11-12T18:56:35.733Z""","","","","","","","","","",""
"","","","","","html-keyboard-response","2","2708","0.0-2.0","6j718wpcmd","","6j718wpcmd","""2024-11-12T18:56:35.733Z""","null","","null","","","","","","",""
"","","","","","html-button-response","3","9339","0.0-3.0","6j718wpcmd","","6j718wpcmd","""2024-11-12T18:56:35.733Z""","6629","<div style='text-align:center; font-size:20px; line-height:25px; width: 1200px;'>
                Welcome to our experiment! <br>
                <br>At the bottom of this screen, you will see a button that says 'Begin Experiment.
                <br>Please only click that button when you are ready to complete the 25 minute experiment in one sitting. <br>
                <br> Once you click that button, it will not be possible to restart the experiment. <br><br>","0","","","","","","",""
"true","","","","","fullscreen","4","12158","0.0-4.0","6j718wpcmd","","6j718wpcmd","""2024-11-12T18:56:35.733Z""","","","","","","","","","",""
"","","","","","survey-multi-select","5","56323","0.0-5.0","6j718wpcmd","","6j718wpcmd","""2024-11-12T18:56:35.733Z""","44161","","{""Consent"":[""<strong>I consent</strong>""]}","[0]","","","","","",""
"","","","","","html-button-response","6","58133","0.0-6.0","6j718wpcmd","","6j718wpcmd","""2024-11-12T18:56:35.733Z""","1807","Welcome! <p> This experiment involves two parts: demographic information, followed by the experimental task.<p> It will take about 25 minutes to complete both parts.","0","","","","","","",""
"","","","","","survey-text","7","126052","0.0-7.0","6j718wpcmd","","6j718wpcmd","""2024-11-12T18:56:35.733Z""","67900","","{""Age"":""18"",""Gender"":""Female"",""Race/ethnicity"":""Hispanic/White""}","","","","","","",""
"","","","","","html-button-response","8","164644","0.0-8.0","6j718wpcmd","","6j718wpcmd","""2024-11-12T18:56:35.733Z""","38589","<div style='text-align: center;'>
      <p>In each trial of this task, you will see three texture images: one target item on top, and two choices beneath the target item.</p>
      <p><strong>Please select the item that is most like the target item.</strong></p>
      <p>To select the option on the <strong>LEFT</strong>, press the <strong>LEFT ARROW</strong> key. 
      To select the option on the <strong>RIGHT</strong>, press the <strong>RIGHT ARROW</strong> key.</p>
                  <!-- Target Image at the Top -->
      <div style='margin: 20px;'>
        <img src='materials/imgs/instruction_images/InstructionImg1D78.png' alt='Target Image' style='width:200px; height:auto;' />
        <p><em>Target Image</em></p>
      </div>

      <!-- Two Choice Images Below -->
      <div style='display: flex; justify-content: center;'>
        <div style='margin-right: 50px;'>
          <img src='materials/imgs/instruction_images/InstructionImg2D34.png' alt='Choice Image 1' style='width:150px; height:auto;' />
          <p><em><strong>LEFT ARROW</strong></em></p>
        </div>
        <div style='margin-left: 50px;'>
          <img src='materials/imgs/instruction_images/InstructionImg3D80.png' alt='Choice Image 2' style='width:150px; height:auto;' />
          <p><em><strong>RIGHT ARROW</strong></em></p>
        </div>
      </div>
    </div>

      <p>When you are ready to proceed, please click 'Continue' to begin practice.</p>","0","","","","","","",""
"","","","","","html-keyboard-response","9","167147","0.0-9.0","6j718wpcmd","","6j718wpcmd","""2024-11-12T18:56:35.733Z""","null","+","null","","","","","","",""
"","","","","","html-keyboard-response","10","167649","0.0-10.0-0.0-0.0","6j718wpcmd","","6j718wpcmd","""2024-11-12T18:56:35.733Z""","null","+","null","","","","","","",""
"","","","","","image-keyboard-response","11","171308","0.0-10.0-0.0-1.0","6j718wpcmd","","6j718wpcmd","""2024-11-12T18:56:35.733Z""","3638","materials/imgs/D35.png","arrowright","","[""materials/imgs/D48.png"",""materials/imgs/D76.png""]","false","random","","",""
"","","","","","html-keyboard-response","12","171813","0.0-10.0-0.0-0.1","6j718wpcmd","","6j718wpcmd","""2024-11-12T18:56:35.733Z""","null","+","null","","","","","","",""
"","","","","","image-keyboard-response","13","175060","0.0-10.0-0.0-1.1","6j718wpcmd","","6j718wpcmd","""2024-11-12T18:56:35.733Z""","3235","materials/imgs/D3.png","arrowright","","[""materials/imgs/D83.png"",""materials/imgs/D29.png""]","false","random","","",""
"","","","","","html-keyboard-response","14","175563","0.0-10.0-0.0-0.2","6j718wpcmd","","6j718wpcmd","""2024-11-12T18:56:35.733Z""","null","+","null","","","","","","",""
"","","","","","image-keyboard-response","15","178839","0.0-10.0-0.0-1.2","6j718wpcmd","","6j718wpcmd","""2024-11-12T18:56:35.733Z""","3262","materials/imgs/D8.png","arrowright","","[""materials/imgs/D87.png"",""materials/imgs/D11.png""]","false","random","","",""
"","","","","","html-keyboard-response","16","179342","0.0-10.0-0.0-0.3","6j718wpcmd","","6j718wpcmd","""2024-11-12T18:56:35.733Z""","null","+","null","","","","","","",""
"","","","","","image-keyboard-response","17","181656","0.0-10.0-0.0-1.3","6j718wpcmd","","6j718wpcmd","""2024-11-12T18:56:35.733Z""","2308","materials/imgs/D11.png","arrowleft","","[""materials/imgs/D83.png"",""materials/imgs/D49.png""]","false","random","","",""
"","","","","","html-keyboard-response","18","182159","0.0-10.0-0.0-0.4","6j718wpcmd","","6j718wpcmd","""2024-11-12T18:56:35.733Z""","null","+","null","","","","","","",""
"","","","","","image-keyboard-response","19","187079","0.0-10.0-0.0-1.4","6j718wpcmd","","6j718wpcmd","""2024-11-12T18:56:35.733Z""","4913","materials/imgs/D18.png","arrowright","","[""materials/imgs/D11.png"",""materials/imgs/D9.png""]","false","random","","",""
"","","","","","html-keyboard-response","20","187582","0.0-10.0-0.0-0.5","6j718wpcmd","","6j718wpcmd","""2024-11-12T18:56:35.733Z""","null","+","null","","","","","","",""
"","","","","","image-keyboard-response","21","191773","0.0-10.0-0.0-1.5","6j718wpcmd","","6j718wpcmd","""2024-11-12T18:56:35.733Z""","4180","materials/imgs/D101.png","arrowleft","","[""materials/imgs/D49.png"",""materials/imgs/D47.png""]","false","random","","",""
"","","","","","html-keyboard-response","22","192276","0.0-10.0-0.0-0.6","6j718wpcmd","","6j718wpcmd","""2024-11-12T18:56:35.733Z""","null","+","null","","","","","","",""
"","","","","","image-keyboard-response","23","194671","0.0-10.0-0.0-1.6","6j718wpcmd","","6j718wpcmd","""2024-11-12T18:56:35.733Z""","2382","materials/imgs/D65.png","arrowright","","[""materials/imgs/D78.png"",""materials/imgs/D87.png""]","false","random","","",""
"","","","","","html-keyboard-response","24","195173","0.0-10.0-0.0-0.7","6j718wpcmd","","6j718wpcmd","""2024-11-12T18:56:35.733Z""","null","+","null","","","","","","",""
"","","","","","image-keyboard-response","25","196393","0.0-10.0-0.0-1.7","6j718wpcmd","","6j718wpcmd","""2024-11-12T18:56:35.733Z""","1206","materials/imgs/D85.png","arrowleft","","[""materials/imgs/D51.png"",""materials/imgs/D111.png""]","false","random","","",""
"","","","","","html-keyboard-response","26","196896","0.0-10.0-0.0-0.8","6j718wpcmd","","6j718wpcmd","""2024-11-12T18:56:35.733Z""","null","+","null","","","","","","",""
"","","","","","image-keyboard-response","27","202265","0.0-10.0-0.0-1.8","6j718wpcmd","","6j718wpcmd","""2024-11-12T18:56:35.733Z""","5355","materials/imgs/D64.png","arrowright","","[""materials/imgs/D111.png"",""materials/imgs/D92.png""]","false","random","","",""
"","","","","","html-keyboard-response","28","202768","0.0-10.0-0.0-0.9","6j718wpcmd","","6j718wpcmd","""2024-11-12T18:56:35.733Z""","null","+","null","","","","","","",""
"","","","","","image-keyboard-response","29","209639","0.0-10.0-0.0-1.9","6j718wpcmd","","6j718wpcmd","""2024-11-12T18:56:35.733Z""","6866","materials/imgs/D35.png","arrowright","","[""materials/imgs/D78.png"",""materials/imgs/D29.png""]","false","random","","",""
"","","","","","html-button-response","30","223911","0.0-11.0","6j718wpcmd","","6j718wpcmd","""2024-11-12T18:56:35.733Z""","14269","<p>Great job!</p>
      <p>You are now ready to begin the experiment.</p>
      <p>There will be around 200 trials. You will have opportunities to take breaks at three stages of the trials.</p>
      <p>When you are ready to begin please click 'Continue'.</p>","0","","","","","","",""
"","","","","","html-keyboard-response","31","226414","0.0-12.0","6j718wpcmd","","6j718wpcmd","""2024-11-12T18:56:35.733Z""","null","+","null","","","","","","",""
"","","","","","html-keyboard-response","32","226917","0.0-13.0-0.0-0.0","6j718wpcmd","","6j718wpcmd","""2024-11-12T18:56:35.733Z""","null","+","null","","","","","","",""
"","","","","","image-keyboard-response","33","230200","0.0-13.0-0.0-1.0","6j718wpcmd","","6j718wpcmd","""2024-11-12T18:56:35.733Z""","3269","materials/imgs/D36.png","arrowright","","[""materials/imgs/D74.png"",""materials/imgs/D92.png""]","false","random","","",""
"","","","","","html-keyboard-response","34","230704","0.0-13.0-0.0-0.1","6j718wpcmd","","6j718wpcmd","""2024-11-12T18:56:35.733Z""","null","+","null","","","","","","",""
"","","","","","image-keyboard-response","35","232835","0.0-13.0-0.0-1.1","6j718wpcmd","","6j718wpcmd","""2024-11-12T18:56:35.733Z""","2118","materials/imgs/D4.png","arrowright","","[""materials/imgs/D105.png"",""materials/imgs/D64.png""]","false","random","","",""
"","","","","","html-keyboard-response","36","233338","0.0-13.0-0.0-0.2","6j718wpcmd","","6j718wpcmd","""2024-11-12T18:56:35.733Z""","null","+","null","","","","","","",""
"","","","","","image-keyboard-response","37","234733","0.0-13.0-0.0-1.2","6j718wpcmd","","6j718wpcmd","""2024-11-12T18:56:35.733Z""","1382","materials/imgs/D53.png","arrowleft","","[""materials/imgs/D22.png"",""materials/imgs/D9.png""]","false","random","","",""
"","","","","","html-keyboard-response","38","235235","0.0-13.0-0.0-0.3","6j718wpcmd","","6j718wpcmd","""2024-11-12T18:56:35.733Z""","null","+","null","","","","","","",""
"","","","","","image-keyboard-response","39","237019","0.0-13.0-0.0-1.3","6j718wpcmd","","6j718wpcmd","""2024-11-12T18:56:35.733Z""","1771","materials/imgs/D14.png","arrowright","","[""materials/imgs/D75.png"",""materials/imgs/D68.png""]","false","random","","",""
"","","","","","html-keyboard-response","40","237522","0.0-13.0-0.0-0.4","6j718wpcmd","","6j718wpcmd","""2024-11-12T18:56:35.733Z""","null","+","null","","","","","","",""
"","","","","","image-keyboard-response","41","239281","0.0-13.0-0.0-1.4","6j718wpcmd","","6j718wpcmd","""2024-11-12T18:56:35.733Z""","1746","materials/imgs/D19.png","arrowright","","[""materials/imgs/D14.png"",""materials/imgs/D84.png""]","false","random","","",""
"","","","","","html-keyboard-response","42","239784","0.0-13.0-0.0-0.5","6j718wpcmd","","6j718wpcmd","""2024-11-12T18:56:35.733Z""","null","+","null","","","","","","",""
"","","","","","image-keyboard-response","43","240827","0.0-13.0-0.0-1.5","6j718wpcmd","","6j718wpcmd","""2024-11-12T18:56:35.733Z""","1032","materials/imgs/D51.png","arrowleft","","[""materials/imgs/D105.png"",""materials/imgs/D1.png""]","false","random","","",""
"","","","","","html-keyboard-response","44","241330","0.0-13.0-0.0-0.6","6j718wpcmd","","6j718wpcmd","""2024-11-12T18:56:35.733Z""","null","+","null","","","","","","",""
"","","","","","image-keyboard-response","45","245484","0.0-13.0-0.0-1.6","6j718wpcmd","","6j718wpcmd","""2024-11-12T18:56:35.733Z""","4149","materials/imgs/D1.png","arrowright","","[""materials/imgs/D52.png"",""materials/imgs/D82.png""]","false","random","","",""
"","","","","","html-keyboard-response","46","245987","0.0-13.0-1.0-0.0","6j718wpcmd","","6j718wpcmd","""2024-11-12T18:56:35.733Z""","null","+","null","","","","","","",""
"","","","","","image-keyboard-response","47","247667","0.0-13.0-1.0-1.0","6j718wpcmd","","6j718wpcmd","""2024-11-12T18:56:35.733Z""","1667","materials/imgs/D26.png","arrowleft","","[""materials/imgs/D26.png"",""materials/imgs/D46.png""]","","check","materials/imgs/D26.png","0","true"
"","","","","","html-keyboard-response","48","248170","0.0-13.0-2.0-0.0","6j718wpcmd","","6j718wpcmd","""2024-11-12T18:56:35.733Z""","null","+","null","","","","","","",""
"","","","","","image-keyboard-response","49","252121","0.0-13.0-2.0-1.0","6j718wpcmd","","6j718wpcmd","""2024-11-12T18:56:35.733Z""","3947","materials/imgs/D65.png","arrowleft","","[""materials/imgs/D4.png"",""materials/imgs/D16.png""]","false","validation","","",""
"","","","","","html-keyboard-response","50","252625","0.0-13.0-2.0-0.1","6j718wpcmd","","6j718wpcmd","""2024-11-12T18:56:35.733Z""","null","+","null","","","","","","",""
"","","","","","image-keyboard-response","51","255400","0.0-13.0-2.0-1.1","6j718wpcmd","","6j718wpcmd","""2024-11-12T18:56:35.733Z""","2771","materials/imgs/D19.png","arrowleft","","[""materials/imgs/D111.png"",""materials/imgs/D56.png""]","false","validation","","",""
"","","","","","html-keyboard-response","52","255904","0.0-13.0-0.1-0.7","6j718wpcmd","","6j718wpcmd","""2024-11-12T18:56:35.733Z""","null","+","null","","","","","","",""
"","","","","","image-keyboard-response","53","258294","0.0-13.0-0.1-1.7","6j718wpcmd","","6j718wpcmd","""2024-11-12T18:56:35.733Z""","2380","materials/imgs/D76.png","arrowright","","[""materials/imgs/D46.png"",""materials/imgs/D36.png""]","false","random","","",""
"","","","","","html-keyboard-response","54","258797","0.0-13.0-0.1-0.8","6j718wpcmd","","6j718wpcmd","""2024-11-12T18:56:35.733Z""","null","+","null","","","","","","",""
"","","","","","image-keyboard-response","55","260245","0.0-13.0-0.1-1.8","6j718wpcmd","","6j718wpcmd","""2024-11-12T18:56:35.733Z""","1438","materials/imgs/D103.png","arrowleft","","[""materials/imgs/D84.png"",""materials/imgs/D18.png""]","false","random","","",""
"","","","","","html-keyboard-response","56","260747","0.0-13.0-0.1-0.9","6j718wpcmd","","6j718wpcmd","""2024-11-12T18:56:35.733Z""","null","+","null","","","","","","",""
"","","","","","image-keyboard-response","57","262008","0.0-13.0-0.1-1.9","6j718wpcmd","","6j718wpcmd","""2024-11-12T18:56:35.733Z""","1255","materials/imgs/D52.png","arrowleft","","[""materials/imgs/D17.png"",""materials/imgs/D111.png""]","false","random","","",""
"","","","","","html-keyboard-response","58","262511","0.0-13.0-0.1-0.10","6j718wpcmd","","6j718wpcmd","""2024-11-12T18:56:35.733Z""","null","+","null","","","","","","",""
"","","","","","image-keyboard-response","59","266747","0.0-13.0-0.1-1.10","6j718wpcmd","","6j718wpcmd","""2024-11-12T18:56:35.733Z""","4233","materials/imgs/D11.png","arrowleft","","[""materials/imgs/D81.png"",""materials/imgs/D80.png""]","false","random","","",""
"","","","","","html-keyboard-response","60","267250","0.0-13.0-0.1-0.11","6j718wpcmd","","6j718wpcmd","""2024-11-12T18:56:35.733Z""","null","+","null","","","","","","",""
"","","","","","image-keyboard-response","61","270352","0.0-13.0-0.1-1.11","6j718wpcmd","","6j718wpcmd","""2024-11-12T18:56:35.733Z""","3089","materials/imgs/D95.png","arrowright","","[""materials/imgs/D66.png"",""materials/imgs/D84.png""]","false","random","","",""
"","","","","","html-keyboard-response","62","270854","0.0-13.0-0.1-0.12","6j718wpcmd","","6j718wpcmd","""2024-11-12T18:56:35.733Z""","null","+","null","","","","","","",""
"","","","","","image-keyboard-response","63","275037","0.0-13.0-0.1-1.12","6j718wpcmd","","6j718wpcmd","""2024-11-12T18:56:35.733Z""","4171","materials/imgs/D34.png","arrowleft","","[""materials/imgs/D81.png"",""materials/imgs/D17.png""]","false","random","","",""
"","","","","","html-keyboard-response","64","275539","0.0-13.0-0.1-0.13","6j718wpcmd","","6j718wpcmd","""2024-11-12T18:56:35.733Z""","null","+","null","","","","","","",""
"","","","","","image-keyboard-response","65","277827","0.0-13.0-0.1-1.13","6j718wpcmd","","6j718wpcmd","""2024-11-12T18:56:35.733Z""","2282","materials/imgs/D68.png","arrowleft","","[""materials/imgs/D8.png"",""materials/imgs/D95.png""]","false","random","","",""
"","","","","","html-keyboard-response","66","278329","0.0-13.0-1.1-0.1","6j718wpcmd","","6j718wpcmd","""2024-11-12T18:56:35.733Z""","null","+","null","","","","","","",""
"","","","","","image-keyboard-response","67","279461","0.0-13.0-1.1-1.1","6j718wpcmd","","6j718wpcmd","""2024-11-12T18:56:35.733Z""","1128","materials/imgs/D26.png","arrowleft","","[""materials/imgs/D26.png"",""materials/imgs/D46.png""]","","check","materials/imgs/D26.png","0","true"
"","","","","","html-keyboard-response","68","279963","0.0-13.0-2.1-0.2","6j718wpcmd","","6j718wpcmd","""2024-11-12T18:56:35.733Z""","null","+","null","","","","","","",""
"","","","","","image-keyboard-response","69","282446","0.0-13.0-2.1-1.2","6j718wpcmd","","6j718wpcmd","""2024-11-12T18:56:35.733Z""","2471","materials/imgs/D25.png","arrowright","","[""materials/imgs/D103.png"",""materials/imgs/D64.png""]","false","validation","","",""
"","","","","","html-keyboard-response","70","282948","0.0-13.0-2.1-0.3","6j718wpcmd","","6j718wpcmd","""2024-11-12T18:56:35.733Z""","null","+","null","","","","","","",""
"","","","","","image-keyboard-response","71","285009","0.0-13.0-2.1-1.3","6j718wpcmd","","6j718wpcmd","""2024-11-12T18:56:35.733Z""","2051","materials/imgs/D83.png","arrowright","","[""materials/imgs/D24.png"",""materials/imgs/D8.png""]","false","validation","","",""
"","","","","","html-keyboard-response","72","285512","0.0-13.0-0.2-0.14","6j718wpcmd","","6j718wpcmd","""2024-11-12T18:56:35.733Z""","null","+","null","","","","","","",""
"","","","","","image-keyboard-response","73","286629","0.0-13.0-0.2-1.14","6j718wpcmd","","6j718wpcmd","""2024-11-12T18:56:35.733Z""","1104","materials/imgs/D94.png","arrowleft","","[""materials/imgs/D96.png"",""materials/imgs/D74.png""]","false","random","","",""
"","","","","","html-keyboard-response","74","287131","0.0-13.0-0.2-0.15","6j718wpcmd","","6j718wpcmd","""2024-11-12T18:56:35.733Z""","null","+","null","","","","","","",""
"","","","","","image-keyboard-response","75","289077","0.0-13.0-0.2-1.15","6j718wpcmd","","6j718wpcmd","""2024-11-12T18:56:35.733Z""","1943","materials/imgs/D36.png","arrowleft","","[""materials/imgs/D57.png"",""materials/imgs/D103.png""]","false","random","","",""
"","","","","","html-keyboard-response","76","289579","0.0-13.0-0.2-0.16","6j718wpcmd","","6j718wpcmd","""2024-11-12T18:56:35.733Z""","null","+","null","","","","","","",""
"","","","","","image-keyboard-response","77","295639","0.0-13.0-0.2-1.16","6j718wpcmd","","6j718wpcmd","""2024-11-12T18:56:35.733Z""","6056","materials/imgs/D51.png","arrowright","","[""materials/imgs/D48.png"",""materials/imgs/D56.png""]","false","random","","",""
"","","","","","html-keyboard-response","78","296142","0.0-13.0-0.2-0.17","6j718wpcmd","","6j718wpcmd","""2024-11-12T18:56:35.733Z""","null","+","null","","","","","","",""
"","","","","","image-keyboard-response","79","297822","0.0-13.0-0.2-1.17","6j718wpcmd","","6j718wpcmd","""2024-11-12T18:56:35.733Z""","1676","materials/imgs/D52.png","arrowleft","","[""materials/imgs/D104.png"",""materials/imgs/D101.png""]","false","random","","",""
"","","","","","html-keyboard-response","80","298325","0.0-13.0-0.2-0.18","6j718wpcmd","","6j718wpcmd","""2024-11-12T18:56:35.733Z""","null","+","null","","","","","","",""
"","","","","","image-keyboard-response","81","305241","0.0-13.0-0.2-1.18","6j718wpcmd","","6j718wpcmd","""2024-11-12T18:56:35.733Z""","6912","materials/imgs/D103.png","arrowleft","","[""materials/imgs/D29.png"",""materials/imgs/D4.png""]","false","random","","",""
"","","","","","html-keyboard-response","82","305744","0.0-13.0-0.2-0.19","6j718wpcmd","","6j718wpcmd","""2024-11-12T18:56:35.733Z""","null","+","null","","","","","","",""
"","","","","","image-keyboard-response","83","308112","0.0-13.0-0.2-1.19","6j718wpcmd","","6j718wpcmd","""2024-11-12T18:56:35.733Z""","2362","materials/imgs/D105.png","arrowright","","[""materials/imgs/D111.png"",""materials/imgs/D81.png""]","false","random","","",""
"","","","","","html-keyboard-response","84","308616","0.0-13.0-0.2-0.20","6j718wpcmd","","6j718wpcmd","""2024-11-12T18:56:35.733Z""","null","+","null","","","","","","",""
"","","","","","image-keyboard-response","85","310234","0.0-13.0-0.2-1.20","6j718wpcmd","","6j718wpcmd","""2024-11-12T18:56:35.733Z""","1612","materials/imgs/D104.png","arrowleft","","[""materials/imgs/D57.png"",""materials/imgs/D25.png""]","false","random","","",""
"","","","","","html-keyboard-response","86","310736","0.0-13.0-1.2-0.2","6j718wpcmd","","6j718wpcmd","""2024-11-12T18:56:35.733Z""","null","+","null","","","","","","",""
"","","","","","image-keyboard-response","87","312886","0.0-13.0-1.2-1.2","6j718wpcmd","","6j718wpcmd","""2024-11-12T18:56:35.733Z""","2141","materials/imgs/D78.png","arrowright","","[""materials/imgs/D76.png"",""materials/imgs/D78.png""]","","check","materials/imgs/D78.png","1","true"
"","","","","","html-keyboard-response","88","313389","0.0-13.0-2.2-0.4","6j718wpcmd","","6j718wpcmd","""2024-11-12T18:56:35.733Z""","null","+","null","","","","","","",""
"","","","","","image-keyboard-response","89","316021","0.0-13.0-2.2-1.4","6j718wpcmd","","6j718wpcmd","""2024-11-12T18:56:35.733Z""","2620","materials/imgs/D6.png","arrowright","","[""materials/imgs/D26.png"",""materials/imgs/D76.png""]","false","validation","","",""
"","","","","","html-keyboard-response","90","316523","0.0-13.0-2.2-0.5","6j718wpcmd","","6j718wpcmd","""2024-11-12T18:56:35.733Z""","null","+","null","","","","","","",""
"","","","","","image-keyboard-response","91","321108","0.0-13.0-2.2-1.5","6j718wpcmd","","6j718wpcmd","""2024-11-12T18:56:35.733Z""","4580","materials/imgs/D66.png","arrowright","","[""materials/imgs/D85.png"",""materials/imgs/D25.png""]","false","validation","","",""
"","","","","","html-keyboard-response","92","321611","0.0-13.0-0.3-0.21","6j718wpcmd","","6j718wpcmd","""2024-11-12T18:56:35.733Z""","null","+","null","","","","","","",""
"","","","","","image-keyboard-response","93","324176","0.0-13.0-0.3-1.21","6j718wpcmd","","6j718wpcmd","""2024-11-12T18:56:35.733Z""","2561","materials/imgs/D51.png","arrowright","","[""materials/imgs/D17.png"",""materials/imgs/D79.png""]","false","random","","",""
"","","","","","html-keyboard-response","94","324678","0.0-13.0-0.3-0.22","6j718wpcmd","","6j718wpcmd","""2024-11-12T18:56:35.733Z""","null","+","null","","","","","","",""
"","","","","","image-keyboard-response","95","329572","0.0-13.0-0.3-1.22","6j718wpcmd","","6j718wpcmd","""2024-11-12T18:56:35.733Z""","4889","materials/imgs/D19.png","arrowright","","[""materials/imgs/D48.png"",""materials/imgs/D36.png""]","false","random","","",""
"","","","","","html-keyboard-response","96","330075","0.0-13.0-0.3-0.23","6j718wpcmd","","6j718wpcmd","""2024-11-12T18:56:35.733Z""","null","+","null","","","","","","",""
"","","","","","image-keyboard-response","97","333083","0.0-13.0-0.3-1.23","6j718wpcmd","","6j718wpcmd","""2024-11-12T18:56:35.733Z""","3003","materials/imgs/D35.png","arrowright","","[""materials/imgs/D52.png"",""materials/imgs/D66.png""]","false","random","","",""
"","","","","","html-keyboard-response","98","333585","0.0-13.0-0.3-0.24","6j718wpcmd","","6j718wpcmd","""2024-11-12T18:56:35.733Z""","null","+","null","","","","","","",""
"","","","","","image-keyboard-response","99","335605","0.0-13.0-0.3-1.24","6j718wpcmd","","6j718wpcmd","""2024-11-12T18:56:35.733Z""","2016","materials/imgs/D34.png","arrowright","","[""materials/imgs/D37.png"",""materials/imgs/D111.png""]","false","random","","",""
"","","","","","html-keyboard-response","100","336108","0.0-13.0-0.3-0.25","6j718wpcmd","","6j718wpcmd","""2024-11-12T18:56:35.733Z""","null","+","null","","","","","","",""
"","","","","","image-keyboard-response","101","338366","0.0-13.0-0.3-1.25","6j718wpcmd","","6j718wpcmd","""2024-11-12T18:56:35.733Z""","2255","materials/imgs/D35.png","arrowleft","","[""materials/imgs/D24.png"",""materials/imgs/D21.png""]","false","random","","",""
"","","","","","html-keyboard-response","102","338869","0.0-13.0-0.3-0.26","6j718wpcmd","","6j718wpcmd","""2024-11-12T18:56:35.733Z""","null","+","null","","","","","","",""
"","","","","","image-keyboard-response","103","341054","0.0-13.0-0.3-1.26","6j718wpcmd","","6j718wpcmd","""2024-11-12T18:56:35.733Z""","2178","materials/imgs/D51.png","arrowright","","[""materials/imgs/D57.png"",""materials/imgs/D68.png""]","false","random","","",""
"","","","","","html-keyboard-response","104","341559","0.0-13.0-0.3-0.27","6j718wpcmd","","6j718wpcmd","""2024-11-12T18:56:35.733Z""","null","+","null","","","","","","",""
"","","","","","image-keyboard-response","105","344449","0.0-13.0-0.3-1.27","6j718wpcmd","","6j718wpcmd","""2024-11-12T18:56:35.733Z""","2883","materials/imgs/D103.png","arrowright","","[""materials/imgs/D95.png"",""materials/imgs/D64.png""]","false","random","","",""
"","","","","","html-keyboard-response","106","344952","0.0-13.0-1.3-0.3","6j718wpcmd","","6j718wpcmd","""2024-11-12T18:56:35.733Z""","null","+","null","","","","","","",""
"","","","","","image-keyboard-response","107","345601","0.0-13.0-1.3-1.3","6j718wpcmd","","6j718wpcmd","""2024-11-12T18:56:35.733Z""","647","materials/imgs/D26.png","arrowleft","","[""materials/imgs/D26.png"",""materials/imgs/D46.png""]","","check","materials/imgs/D26.png","0","true"
"","","","","","html-keyboard-response","108","346104","0.0-13.0-2.3-0.6","6j718wpcmd","","6j718wpcmd","""2024-11-12T18:56:35.733Z""","null","+","null","","","","","","",""
"","","","","","image-keyboard-response","109","350890","0.0-13.0-2.3-1.6","6j718wpcmd","","6j718wpcmd","""2024-11-12T18:56:35.733Z""","4783","materials/imgs/D36.png","arrowright","","[""materials/imgs/D47.png"",""materials/imgs/D49.png""]","false","validation","","",""
"","","","","","html-keyboard-response","110","351393","0.0-13.0-2.3-0.7","6j718wpcmd","","6j718wpcmd","""2024-11-12T18:56:35.733Z""","null","+","null","","","","","","",""
"","","","","","image-keyboard-response","111","352441","0.0-13.0-2.3-1.7","6j718wpcmd","","6j718wpcmd","""2024-11-12T18:56:35.733Z""","1036","materials/imgs/D102.png","arrowright","","[""materials/imgs/D32.png"",""materials/imgs/D111.png""]","false","validation","","",""
"","","","","","html-keyboard-response","112","352944","0.0-13.0-0.4-0.28","6j718wpcmd","","6j718wpcmd","""2024-11-12T18:56:35.733Z""","null","+","null","","","","","","",""
"","","","","","image-keyboard-response","113","353882","0.0-13.0-0.4-1.28","6j718wpcmd","","6j718wpcmd","""2024-11-12T18:56:35.733Z""","933","materials/imgs/D4.png","arrowright","","[""materials/imgs/D14.png"",""materials/imgs/D29.png""]","false","random","","",""
"","","","","","html-keyboard-response","114","354385","0.0-13.0-0.4-0.29","6j718wpcmd","","6j718wpcmd","""2024-11-12T18:56:35.733Z""","null","+","null","","","","","","",""
"","","","","","image-keyboard-response","115","356167","0.0-13.0-0.4-1.29","6j718wpcmd","","6j718wpcmd","""2024-11-12T18:56:35.733Z""","1779","materials/imgs/D11.png","arrowright","","[""materials/imgs/D94.png"",""materials/imgs/D102.png""]","false","random","","",""
"","","","","","html-keyboard-response","116","356670","0.0-13.0-0.4-0.30","6j718wpcmd","","6j718wpcmd","""2024-11-12T18:56:35.733Z""","null","+","null","","","","","","",""
"","","","","","image-keyboard-response","117","360762","0.0-13.0-0.4-1.30","6j718wpcmd","","6j718wpcmd","""2024-11-12T18:56:35.733Z""","4088","materials/imgs/D52.png","arrowleft","","[""materials/imgs/D48.png"",""materials/imgs/D106.png""]","false","random","","",""
"","","","","","html-keyboard-response","118","361264","0.0-13.0-0.4-0.31","6j718wpcmd","","6j718wpcmd","""2024-11-12T18:56:35.733Z""","null","+","null","","","","","","",""
"","","","","","image-keyboard-response","119","363473","0.0-13.0-0.4-1.31","6j718wpcmd","","6j718wpcmd","""2024-11-12T18:56:35.733Z""","2203","materials/imgs/D82.png","arrowright","","[""materials/imgs/D74.png"",""materials/imgs/D11.png""]","false","random","","",""
"","","","","","html-keyboard-response","120","363976","0.0-13.0-0.4-0.32","6j718wpcmd","","6j718wpcmd","""2024-11-12T18:56:35.733Z""","null","+","null","","","","","","",""
"","","","","","image-keyboard-response","121","364906","0.0-13.0-0.4-1.32","6j718wpcmd","","6j718wpcmd","""2024-11-12T18:56:35.733Z""","926","materials/imgs/D32.png","arrowleft","","[""materials/imgs/D84.png"",""materials/imgs/D11.png""]","false","random","","",""
"","","","","","html-keyboard-response","122","365409","0.0-13.0-0.4-0.33","6j718wpcmd","","6j718wpcmd","""2024-11-12T18:56:35.733Z""","null","+","null","","","","","","",""
"","","","","","image-keyboard-response","123","367430","0.0-13.0-0.4-1.33","6j718wpcmd","","6j718wpcmd","""2024-11-12T18:56:35.733Z""","2014","materials/imgs/D22.png","arrowright","","[""materials/imgs/D25.png"",""materials/imgs/D18.png""]","false","random","","",""
"","","","","","html-keyboard-response","124","367932","0.0-13.0-0.4-0.34","6j718wpcmd","","6j718wpcmd","""2024-11-12T18:56:35.733Z""","null","+","null","","","","","","",""
"","","","","","image-keyboard-response","125","369090","0.0-13.0-0.4-1.34","6j718wpcmd","","6j718wpcmd","""2024-11-12T18:56:35.733Z""","1152","materials/imgs/D111.png","arrowleft","","[""materials/imgs/D52.png"",""materials/imgs/D21.png""]","false","random","","",""
"","","","","","html-keyboard-response","126","369592","0.0-13.0-1.4-0.4","6j718wpcmd","","6j718wpcmd","""2024-11-12T18:56:35.733Z""","null","+","null","","","","","","",""
"","","","","","image-keyboard-response","127","370321","0.0-13.0-1.4-1.4","6j718wpcmd","","6j718wpcmd","""2024-11-12T18:56:35.733Z""","726","materials/imgs/D64.png","arrowleft","","[""materials/imgs/D64.png"",""materials/imgs/D53.png""]","","check","materials/imgs/D64.png","0","true"
"","","","","","html-keyboard-response","128","370824","0.0-13.0-2.4-0.8","6j718wpcmd","","6j718wpcmd","""2024-11-12T18:56:35.733Z""","null","+","null","","","","","","",""
"","","","","","image-keyboard-response","129","373296","0.0-13.0-2.4-1.8","6j718wpcmd","","6j718wpcmd","""2024-11-12T18:56:35.733Z""","2468","materials/imgs/D6.png","arrowright","","[""materials/imgs/D26.png"",""materials/imgs/D76.png""]","false","validation","","",""
"","","","","","html-keyboard-response","130","373798","0.0-13.0-2.4-0.9","6j718wpcmd","","6j718wpcmd","""2024-11-12T18:56:35.733Z""","null","+","null","","","","","","",""
"","","","","","image-keyboard-response","131","377741","0.0-13.0-2.4-1.9","6j718wpcmd","","6j718wpcmd","""2024-11-12T18:56:35.733Z""","3940","materials/imgs/D103.png","arrowleft","","[""materials/imgs/D76.png"",""materials/imgs/D106.png""]","false","validation","","",""
"","","","","","html-button-response","132","381440","0.0-14.0","6j718wpcmd","","6j718wpcmd","""2024-11-12T18:56:35.733Z""","3697","You have completed 25% of the trials. Please click 'Continue' when you are ready proceed.","0","","","","","","",""
"","","","","","html-keyboard-response","133","381942","0.0-15.0-0.0-0.0","6j718wpcmd","","6j718wpcmd","""2024-11-12T18:56:35.733Z""","null","+","null","","","","","","",""
"","","","","","image-keyboard-response","134","384755","0.0-15.0-0.0-1.0","6j718wpcmd","","6j718wpcmd","""2024-11-12T18:56:35.733Z""","2807","materials/imgs/D92.png","arrowleft","","[""materials/imgs/D21.png"",""materials/imgs/D25.png""]","false","random","","",""
"","","","","","html-keyboard-response","135","385258","0.0-15.0-0.0-0.1","6j718wpcmd","","6j718wpcmd","""2024-11-12T18:56:35.733Z""","null","+","null","","","","","","",""
"","","","","","image-keyboard-response","136","386942","0.0-15.0-0.0-1.1","6j718wpcmd","","6j718wpcmd","""2024-11-12T18:56:35.733Z""","1681","materials/imgs/D66.png","arrowleft","","[""materials/imgs/D9.png"",""materials/imgs/D81.png""]","false","random","","",""
"","","","","","html-keyboard-response","137","387445","0.0-15.0-0.0-0.2","6j718wpcmd","","6j718wpcmd","""2024-11-12T18:56:35.733Z""","null","+","null","","","","","","",""
"","","","","","image-keyboard-response","138","388358","0.0-15.0-0.0-1.2","6j718wpcmd","","6j718wpcmd","""2024-11-12T18:56:35.733Z""","910","materials/imgs/D6.png","arrowright","","[""materials/imgs/D75.png"",""materials/imgs/D52.png""]","false","random","","",""
"","","","","","html-keyboard-response","139","388860","0.0-15.0-0.0-0.3","6j718wpcmd","","6j718wpcmd","""2024-11-12T18:56:35.733Z""","null","+","null","","","","","","",""
"","","","","","image-keyboard-response","140","391102","0.0-15.0-0.0-1.3","6j718wpcmd","","6j718wpcmd","""2024-11-12T18:56:35.733Z""","2237","materials/imgs/D37.png","arrowleft","","[""materials/imgs/D3.png"",""materials/imgs/D48.png""]","false","random","","",""
"","","","","","html-keyboard-response","141","391605","0.0-15.0-0.0-0.4","6j718wpcmd","","6j718wpcmd","""2024-11-12T18:56:35.733Z""","null","+","null","","","","","","",""
"","","","","","image-keyboard-response","142","392312","0.0-15.0-0.0-1.4","6j718wpcmd","","6j718wpcmd","""2024-11-12T18:56:35.733Z""","704","materials/imgs/D92.png","arrowright","","[""materials/imgs/D96.png"",""materials/imgs/D24.png""]","false","random","","",""
"","","","","","html-keyboard-response","143","392814","0.0-15.0-0.0-0.5","6j718wpcmd","","6j718wpcmd","""2024-11-12T18:56:35.733Z""","null","+","null","","","","","","",""
"","","","","","image-keyboard-response","144","394085","0.0-15.0-0.0-1.5","6j718wpcmd","","6j718wpcmd","""2024-11-12T18:56:35.733Z""","1268","materials/imgs/D35.png","arrowleft","","[""materials/imgs/D19.png"",""materials/imgs/D37.png""]","false","random","","",""
"","","","","","html-keyboard-response","145","394588","0.0-15.0-0.0-0.6","6j718wpcmd","","6j718wpcmd","""2024-11-12T18:56:35.733Z""","null","+","null","","","","","","",""
"","","","","","image-keyboard-response","146","396823","0.0-15.0-0.0-1.6","6j718wpcmd","","6j718wpcmd","""2024-11-12T18:56:35.733Z""","2233","materials/imgs/D6.png","arrowleft","","[""materials/imgs/D56.png"",""materials/imgs/D96.png""]","false","random","","",""
"","","","","","html-keyboard-response","147","397326","0.0-15.0-1.0-0.0","6j718wpcmd","","6j718wpcmd","""2024-11-12T18:56:35.733Z""","null","+","null","","","","","","",""
"","","","","","image-keyboard-response","148","399819","0.0-15.0-1.0-1.0","6j718wpcmd","","6j718wpcmd","""2024-11-12T18:56:35.733Z""","2491","materials/imgs/D78.png","arrowright","","[""materials/imgs/D76.png"",""materials/imgs/D78.png""]","","check","materials/imgs/D78.png","1","true"
"","","","","","html-keyboard-response","149","400322","0.0-15.0-2.0-0.0","6j718wpcmd","","6j718wpcmd","""2024-11-12T18:56:35.733Z""","null","+","null","","","","","","",""
"","","","","","image-keyboard-response","150","401124","0.0-15.0-2.0-1.0","6j718wpcmd","","6j718wpcmd","""2024-11-12T18:56:35.733Z""","798","materials/imgs/D57.png","arrowright","","[""materials/imgs/D111.png"",""materials/imgs/D4.png""]","false","validation","","",""
"","","","","","html-keyboard-response","151","401627","0.0-15.0-2.0-0.1","6j718wpcmd","","6j718wpcmd","""2024-11-12T18:56:35.733Z""","null","+","null","","","","","","",""
"","","","","","image-keyboard-response","152","403249","0.0-15.0-2.0-1.1","6j718wpcmd","","6j718wpcmd","""2024-11-12T18:56:35.733Z""","1620","materials/imgs/D83.png","arrowleft","","[""materials/imgs/D24.png"",""materials/imgs/D8.png""]","false","validation","","",""
"","","","","","html-keyboard-response","153","403752","0.0-15.0-0.1-0.7","6j718wpcmd","","6j718wpcmd","""2024-11-12T18:56:35.733Z""","null","+","null","","","","","","",""
"","","","","","image-keyboard-response","154","405888","0.0-15.0-0.1-1.7","6j718wpcmd","","6j718wpcmd","""2024-11-12T18:56:35.733Z""","2133","materials/imgs/D103.png","arrowright","","[""materials/imgs/D25.png"",""materials/imgs/D32.png""]","false","random","","",""
"","","","","","html-keyboard-response","155","406390","0.0-15.0-0.1-0.8","6j718wpcmd","","6j718wpcmd","""2024-11-12T18:56:35.733Z""","null","+","null","","","","","","",""
"","","","","","image-keyboard-response","156","408555","0.0-15.0-0.1-1.8","6j718wpcmd","","6j718wpcmd","""2024-11-12T18:56:35.733Z""","2162","materials/imgs/D105.png","arrowleft","","[""materials/imgs/D87.png"",""materials/imgs/D94.png""]","false","random","","",""
"","","","","","html-keyboard-response","157","409058","0.0-15.0-0.1-0.9","6j718wpcmd","","6j718wpcmd","""2024-11-12T18:56:35.733Z""","null","+","null","","","","","","",""
"","","","","","image-keyboard-response","158","411560","0.0-15.0-0.1-1.9","6j718wpcmd","","6j718wpcmd","""2024-11-12T18:56:35.733Z""","2498","materials/imgs/D26.png","arrowleft","","[""materials/imgs/D52.png"",""materials/imgs/D82.png""]","false","random","","",""
"","","","","","html-keyboard-response","159","412063","0.0-15.0-0.1-0.10","6j718wpcmd","","6j718wpcmd","""2024-11-12T18:56:35.733Z""","null","+","null","","","","","","",""
"","","","","","image-keyboard-response","160","413342","0.0-15.0-0.1-1.10","6j718wpcmd","","6j718wpcmd","""2024-11-12T18:56:35.733Z""","1277","materials/imgs/D92.png","arrowright","","[""materials/imgs/D83.png"",""materials/imgs/D34.png""]","false","random","","",""
"","","","","","html-keyboard-response","161","413845","0.0-15.0-0.1-0.11","6j718wpcmd","","6j718wpcmd","""2024-11-12T18:56:35.733Z""","null","+","null","","","","","","",""
"","","","","","image-keyboard-response","162","414587","0.0-15.0-0.1-1.11","6j718wpcmd","","6j718wpcmd","""2024-11-12T18:56:35.733Z""","738","materials/imgs/D24.png","arrowright","","[""materials/imgs/D22.png"",""materials/imgs/D32.png""]","false","random","","",""
"","","","","","html-keyboard-response","163","415090","0.0-15.0-0.1-0.12","6j718wpcmd","","6j718wpcmd","""2024-11-12T18:56:35.733Z""","null","+","null","","","","","","",""
"","","","","","image-keyboard-response","164","417524","0.0-15.0-0.1-1.12","6j718wpcmd","","6j718wpcmd","""2024-11-12T18:56:35.733Z""","2431","materials/imgs/D6.png","arrowright","","[""materials/imgs/D51.png"",""materials/imgs/D106.png""]","false","random","","",""
"","","","","","html-keyboard-response","165","418027","0.0-15.0-0.1-0.13","6j718wpcmd","","6j718wpcmd","""2024-11-12T18:56:35.733Z""","null","+","null","","","","","","",""
"","","","","","image-keyboard-response","166","420450","0.0-15.0-0.1-1.13","6j718wpcmd","","6j718wpcmd","""2024-11-12T18:56:35.733Z""","2420","materials/imgs/D105.png","arrowleft","","[""materials/imgs/D53.png"",""materials/imgs/D36.png""]","false","random","","",""
"","","","","","html-keyboard-response","167","420951","0.0-15.0-1.1-0.1","6j718wpcmd","","6j718wpcmd","""2024-11-12T18:56:35.733Z""","null","+","null","","","","","","",""
"","","","","","image-keyboard-response","168","421621","0.0-15.0-1.1-1.1","6j718wpcmd","","6j718wpcmd","""2024-11-12T18:56:35.733Z""","668","materials/imgs/D76.png","arrowleft","","[""materials/imgs/D76.png"",""materials/imgs/D78.png""]","","check","materials/imgs/D76.png","0","true"
"","","","","","html-keyboard-response","169","422124","0.0-15.0-2.1-0.2","6j718wpcmd","","6j718wpcmd","""2024-11-12T18:56:35.733Z""","null","+","null","","","","","","",""
"","","","","","image-keyboard-response","170","424747","0.0-15.0-2.1-1.2","6j718wpcmd","","6j718wpcmd","""2024-11-12T18:56:35.733Z""","2621","materials/imgs/D51.png","arrowright","","[""materials/imgs/D92.png"",""materials/imgs/D20.png""]","false","validation","","",""
"","","","","","html-keyboard-response","171","425249","0.0-15.0-2.1-0.3","6j718wpcmd","","6j718wpcmd","""2024-11-12T18:56:35.733Z""","null","+","null","","","","","","",""
"","","","","","image-keyboard-response","172","426559","0.0-15.0-2.1-1.3","6j718wpcmd","","6j718wpcmd","""2024-11-12T18:56:35.733Z""","1304","materials/imgs/D79.png","arrowleft","","[""materials/imgs/D51.png"",""materials/imgs/D64.png""]","false","validation","","",""
"","","","","","html-keyboard-response","173","427062","0.0-15.0-0.2-0.14","6j718wpcmd","","6j718wpcmd","""2024-11-12T18:56:35.733Z""","null","+","null","","","","","","",""
"","","","","","image-keyboard-response","174","427763","0.0-15.0-0.2-1.14","6j718wpcmd","","6j718wpcmd","""2024-11-12T18:56:35.733Z""","698","materials/imgs/D51.png","arrowleft","","[""materials/imgs/D105.png"",""materials/imgs/D25.png""]","false","random","","",""
"","","","","","html-keyboard-response","175","428266","0.0-15.0-0.2-0.15","6j718wpcmd","","6j718wpcmd","""2024-11-12T18:56:35.733Z""","null","+","null","","","","","","",""
"","","","","","image-keyboard-response","176","430593","0.0-15.0-0.2-1.15","6j718wpcmd","","6j718wpcmd","""2024-11-12T18:56:35.733Z""","2324","materials/imgs/D11.png","arrowright","","[""materials/imgs/D47.png"",""materials/imgs/D53.png""]","false","random","","",""
"","","","","","html-keyboard-response","177","431095","0.0-15.0-0.2-0.16","6j718wpcmd","","6j718wpcmd","""2024-11-12T18:56:35.733Z""","null","+","null","","","","","","",""
"","","","","","image-keyboard-response","178","431754","0.0-15.0-0.2-1.16","6j718wpcmd","","6j718wpcmd","""2024-11-12T18:56:35.733Z""","654","materials/imgs/D21.png","arrowleft","","[""materials/imgs/D79.png"",""materials/imgs/D95.png""]","false","random","","",""
"","","","","","html-keyboard-response","179","432256","0.0-15.0-0.2-0.17","6j718wpcmd","","6j718wpcmd","""2024-11-12T18:56:35.733Z""","null","+","null","","","","","","",""
"","","","","","image-keyboard-response","180","433638","0.0-15.0-0.2-1.17","6j718wpcmd","","6j718wpcmd","""2024-11-12T18:56:35.733Z""","1378","materials/imgs/D1.png","arrowleft","","[""materials/imgs/D64.png"",""materials/imgs/D32.png""]","false","random","","",""
"","","","","","html-keyboard-response","181","434140","0.0-15.0-0.2-0.18","6j718wpcmd","","6j718wpcmd","""2024-11-12T18:56:35.733Z""","null","+","null","","","","","","",""
"","","","","","image-keyboard-response","182","436719","0.0-15.0-0.2-1.18","6j718wpcmd","","6j718wpcmd","""2024-11-12T18:56:35.733Z""","2576","materials/imgs/D51.png","arrowright","","[""materials/imgs/D84.png"",""materials/imgs/D52.png""]","false","random","","",""
"","","","","","html-keyboard-response","183","437222","0.0-15.0-0.2-0.19","6j718wpcmd","","6j718wpcmd","""2024-11-12T18:56:35.733Z""","null","+","null","","","","","","",""
"","","","","","image-keyboard-response","184","441771","0.0-15.0-0.2-1.19","6j718wpcmd","","6j718wpcmd","""2024-11-12T18:56:35.733Z""","4546","materials/imgs/D25.png","arrowright","","[""materials/imgs/D105.png"",""materials/imgs/D64.png""]","false","random","","",""
"","","","","","html-keyboard-response","185","442273","0.0-15.0-0.2-0.20","6j718wpcmd","","6j718wpcmd","""2024-11-12T18:56:35.733Z""","null","+","null","","","","","","",""
"","","","","","image-keyboard-response","186","444104","0.0-15.0-0.2-1.20","6j718wpcmd","","6j718wpcmd","""2024-11-12T18:56:35.733Z""","1828","materials/imgs/D65.png","arrowright","","[""materials/imgs/D74.png"",""materials/imgs/D96.png""]","false","random","","",""
"","","","","","html-keyboard-response","187","444607","0.0-15.0-1.2-0.2","6j718wpcmd","","6j718wpcmd","""2024-11-12T18:56:35.733Z""","null","+","null","","","","","","",""
"","","","","","image-keyboard-response","188","445807","0.0-15.0-1.2-1.2","6j718wpcmd","","6j718wpcmd","""2024-11-12T18:56:35.733Z""","1197","materials/imgs/D64.png","arrowleft","","[""materials/imgs/D64.png"",""materials/imgs/D53.png""]","","check","materials/imgs/D64.png","0","true"
"","","","","","html-keyboard-response","189","446310","0.0-15.0-2.2-0.4","6j718wpcmd","","6j718wpcmd","""2024-11-12T18:56:35.733Z""","null","+","null","","","","","","",""
"","","","","","image-keyboard-response","190","447662","0.0-15.0-2.2-1.4","6j718wpcmd","","6j718wpcmd","""2024-11-12T18:56:35.733Z""","1347","materials/imgs/D81.png","arrowright","","[""materials/imgs/D105.png"",""materials/imgs/D24.png""]","false","validation","","",""
"","","","","","html-keyboard-response","191","448164","0.0-15.0-2.2-0.5","6j718wpcmd","","6j718wpcmd","""2024-11-12T18:56:35.733Z""","null","+","null","","","","","","",""
"","","","","","image-keyboard-response","192","449237","0.0-15.0-2.2-1.5","6j718wpcmd","","6j718wpcmd","""2024-11-12T18:56:35.733Z""","1069","materials/imgs/D4.png","arrowleft","","[""materials/imgs/D52.png"",""materials/imgs/D83.png""]","false","validation","","",""
"","","","","","html-keyboard-response","193","449740","0.0-15.0-0.3-0.21","6j718wpcmd","","6j718wpcmd","""2024-11-12T18:56:35.733Z""","null","+","null","","","","","","",""
"","","","","","image-keyboard-response","194","451797","0.0-15.0-0.3-1.21","6j718wpcmd","","6j718wpcmd","""2024-11-12T18:56:35.733Z""","2053","materials/imgs/D53.png","arrowright","","[""materials/imgs/D94.png"",""materials/imgs/D19.png""]","false","random","","",""
"","","","","","html-keyboard-response","195","452300","0.0-15.0-0.3-0.22","6j718wpcmd","","6j718wpcmd","""2024-11-12T18:56:35.733Z""","null","+","null","","","","","","",""
"","","","","","image-keyboard-response","196","453040","0.0-15.0-0.3-1.22","6j718wpcmd","","6j718wpcmd","""2024-11-12T18:56:35.733Z""","737","materials/imgs/D104.png","arrowright","","[""materials/imgs/D51.png"",""materials/imgs/D29.png""]","false","random","","",""
"","","","","","html-keyboard-response","197","453541","0.0-15.0-0.3-0.23","6j718wpcmd","","6j718wpcmd","""2024-11-12T18:56:35.733Z""","null","+","null","","","","","","",""
"","","","","","image-keyboard-response","198","455983","0.0-15.0-0.3-1.23","6j718wpcmd","","6j718wpcmd","""2024-11-12T18:56:35.733Z""","2439","materials/imgs/D66.png","arrowright","","[""materials/imgs/D82.png"",""materials/imgs/D84.png""]","false","random","","",""
"","","","","","html-keyboard-response","199","456486","0.0-15.0-0.3-0.24","6j718wpcmd","","6j718wpcmd","""2024-11-12T18:56:35.733Z""","null","+","null","","","","","","",""
"","","","","","image-keyboard-response","200","457602","0.0-15.0-0.3-1.24","6j718wpcmd","","6j718wpcmd","""2024-11-12T18:56:35.733Z""","1112","materials/imgs/D82.png","arrowright","","[""materials/imgs/D87.png"",""materials/imgs/D17.png""]","false","random","","",""
"","","","","","html-keyboard-response","201","458105","0.0-15.0-0.3-0.25","6j718wpcmd","","6j718wpcmd","""2024-11-12T18:56:35.733Z""","null","+","null","","","","","","",""
"","","","","","image-keyboard-response","202","460662","0.0-15.0-0.3-1.25","6j718wpcmd","","6j718wpcmd","""2024-11-12T18:56:35.733Z""","2549","materials/imgs/D104.png","arrowleft","","[""materials/imgs/D11.png"",""materials/imgs/D49.png""]","false","random","","",""
"","","","","","html-keyboard-response","203","461165","0.0-15.0-0.3-0.26","6j718wpcmd","","6j718wpcmd","""2024-11-12T18:56:35.733Z""","null","+","null","","","","","","",""
"","","","","","image-keyboard-response","204","462186","0.0-15.0-0.3-1.26","6j718wpcmd","","6j718wpcmd","""2024-11-12T18:56:35.733Z""","1015","materials/imgs/D51.png","arrowright","","[""materials/imgs/D55.png"",""materials/imgs/D79.png""]","false","random","","",""
"","","","","","html-keyboard-response","205","462689","0.0-15.0-0.3-0.27","6j718wpcmd","","6j718wpcmd","""2024-11-12T18:56:35.733Z""","null","+","null","","","","","","",""
"","","","","","image-keyboard-response","206","463493","0.0-15.0-0.3-1.27","6j718wpcmd","","6j718wpcmd","""2024-11-12T18:56:35.733Z""","800","materials/imgs/D53.png","arrowleft","","[""materials/imgs/D36.png"",""materials/imgs/D8.png""]","false","random","","",""
"","","","","","html-keyboard-response","207","463996","0.0-15.0-1.3-0.3","6j718wpcmd","","6j718wpcmd","""2024-11-12T18:56:35.733Z""","null","+","null","","","","","","",""
"","","","","","image-keyboard-response","208","464827","0.0-15.0-1.3-1.3","6j718wpcmd","","6j718wpcmd","""2024-11-12T18:56:35.733Z""","827","materials/imgs/D8.png","arrowright","","[""materials/imgs/D18.png"",""materials/imgs/D8.png""]","","check","materials/imgs/D8.png","1","true"
"","","","","","html-keyboard-response","209","465330","0.0-15.0-2.3-0.6","6j718wpcmd","","6j718wpcmd","""2024-11-12T18:56:35.733Z""","null","+","null","","","","","","",""
"","","","","","image-keyboard-response","210","466941","0.0-15.0-2.3-1.6","6j718wpcmd","","6j718wpcmd","""2024-11-12T18:56:35.733Z""","1605","materials/imgs/D96.png","arrowright","","[""materials/imgs/D46.png"",""materials/imgs/D18.png""]","false","validation","","",""
"","","","","","html-keyboard-response","211","467443","0.0-15.0-2.3-0.7","6j718wpcmd","","6j718wpcmd","""2024-11-12T18:56:35.733Z""","null","+","null","","","","","","",""
"","","","","","image-keyboard-response","212","468998","0.0-15.0-2.3-1.7","6j718wpcmd","","6j718wpcmd","""2024-11-12T18:56:35.733Z""","1549","materials/imgs/D56.png","arrowleft","","[""materials/imgs/D25.png"",""materials/imgs/D105.png""]","false","validation","","",""
"","","","","","html-keyboard-response","213","469501","0.0-15.0-0.4-0.28","6j718wpcmd","","6j718wpcmd","""2024-11-12T18:56:35.733Z""","null","+","null","","","","","","",""
"","","","","","image-keyboard-response","214","470867","0.0-15.0-0.4-1.28","6j718wpcmd","","6j718wpcmd","""2024-11-12T18:56:35.733Z""","1362","materials/imgs/D102.png","arrowright","","[""materials/imgs/D78.png"",""materials/imgs/D47.png""]","false","random","","",""
"","","","","","html-keyboard-response","215","471369","0.0-15.0-0.4-0.29","6j718wpcmd","","6j718wpcmd","""2024-11-12T18:56:35.733Z""","null","+","null","","","","","","",""
"","","","","","image-keyboard-response","216","472279","0.0-15.0-0.4-1.29","6j718wpcmd","","6j718wpcmd","""2024-11-12T18:56:35.733Z""","903","materials/imgs/D24.png","arrowright","","[""materials/imgs/D111.png"",""materials/imgs/D82.png""]","false","random","","",""
"","","","","","html-keyboard-response","217","472783","0.0-15.0-0.4-0.30","6j718wpcmd","","6j718wpcmd","""2024-11-12T18:56:35.733Z""","null","+","null","","","","","","",""
"","","","","","image-keyboard-response","218","473434","0.0-15.0-0.4-1.30","6j718wpcmd","","6j718wpcmd","""2024-11-12T18:56:35.733Z""","647","materials/imgs/D24.png","arrowright","","[""materials/imgs/D95.png"",""materials/imgs/D57.png""]","false","random","","",""
"","","","","","html-keyboard-response","219","473937","0.0-15.0-0.4-0.31","6j718wpcmd","","6j718wpcmd","""2024-11-12T18:56:35.733Z""","null","+","null","","","","","","",""
"","","","","","image-keyboard-response","220","476436","0.0-15.0-0.4-1.31","6j718wpcmd","","6j718wpcmd","""2024-11-12T18:56:35.733Z""","2495","materials/imgs/D85.png","arrowright","","[""materials/imgs/D34.png"",""materials/imgs/D77.png""]","false","random","","",""
"","","","","","html-keyboard-response","221","476938","0.0-15.0-0.4-0.32","6j718wpcmd","","6j718wpcmd","""2024-11-12T18:56:35.733Z""","null","+","null","","","","","","",""
"","","","","","image-keyboard-response","222","478809","0.0-15.0-0.4-1.32","6j718wpcmd","","6j718wpcmd","""2024-11-12T18:56:35.733Z""","1866","materials/imgs/D77.png","arrowleft","","[""materials/imgs/D66.png"",""materials/imgs/D94.png""]","false","random","","",""
"","","","","","html-keyboard-response","223","479312","0.0-15.0-0.4-0.33","6j718wpcmd","","6j718wpcmd","""2024-11-12T18:56:35.733Z""","null","+","null","","","","","","",""
"","","","","","image-keyboard-response","224","481141","0.0-15.0-0.4-1.33","6j718wpcmd","","6j718wpcmd","""2024-11-12T18:56:35.733Z""","1826","materials/imgs/D37.png","arrowleft","","[""materials/imgs/D64.png"",""materials/imgs/D35.png""]","false","random","","",""
"","","","","","html-keyboard-response","225","481644","0.0-15.0-0.4-0.34","6j718wpcmd","","6j718wpcmd","""2024-11-12T18:56:35.733Z""","null","+","null","","","","","","",""
"","","","","","image-keyboard-response","226","483542","0.0-15.0-0.4-1.34","6j718wpcmd","","6j718wpcmd","""2024-11-12T18:56:35.733Z""","1893","materials/imgs/D87.png","arrowright","","[""materials/imgs/D102.png"",""materials/imgs/D57.png""]","false","random","","",""
"","","","","","html-keyboard-response","227","484045","0.0-15.0-1.4-0.4","6j718wpcmd","","6j718wpcmd","""2024-11-12T18:56:35.733Z""","null","+","null","","","","","","",""
"","","","","","image-keyboard-response","228","484748","0.0-15.0-1.4-1.4","6j718wpcmd","","6j718wpcmd","""2024-11-12T18:56:35.733Z""","696","materials/imgs/D46.png","arrowleft","","[""materials/imgs/D46.png"",""materials/imgs/D26.png""]","","check","materials/imgs/D46.png","0","true"
"","","","","","html-keyboard-response","229","485250","0.0-15.0-2.4-0.8","6j718wpcmd","","6j718wpcmd","""2024-11-12T18:56:35.733Z""","null","+","null","","","","","","",""
"","","","","","image-keyboard-response","230","487513","0.0-15.0-2.4-1.8","6j718wpcmd","","6j718wpcmd","""2024-11-12T18:56:35.733Z""","2258","materials/imgs/D75.png","arrowright","","[""materials/imgs/D96.png"",""materials/imgs/D4.png""]","false","validation","","",""
"","","","","","html-keyboard-response","231","488016","0.0-15.0-2.4-0.9","6j718wpcmd","","6j718wpcmd","""2024-11-12T18:56:35.733Z""","null","+","null","","","","","","",""
"","","","","","image-keyboard-response","232","490964","0.0-15.0-2.4-1.9","6j718wpcmd","","6j718wpcmd","""2024-11-12T18:56:35.733Z""","2944","materials/imgs/D18.png","arrowleft","","[""materials/imgs/D32.png"",""materials/imgs/D57.png""]","false","validation","","",""
"","","","","","html-button-response","233","495894","0.0-16.0","6j718wpcmd","","6j718wpcmd","""2024-11-12T18:56:35.733Z""","4928","You have completed 50% of the trials. Please click 'Continue' when you are ready proceed.","0","","","","","","",""
"","","","","","html-keyboard-response","234","496396","0.0-17.0-0.0-0.0","6j718wpcmd","","6j718wpcmd","""2024-11-12T18:56:35.733Z""","null","+","null","","","","","","",""
"","","","","","image-keyboard-response","235","507499","0.0-17.0-0.0-1.0","6j718wpcmd","","6j718wpcmd","""2024-11-12T18:56:35.733Z""","11098","materials/imgs/D9.png","arrowleft","","[""materials/imgs/D36.png"",""materials/imgs/D34.png""]","false","random","","",""
"","","","","","html-keyboard-response","236","508002","0.0-17.0-0.0-0.1","6j718wpcmd","","6j718wpcmd","""2024-11-12T18:56:35.733Z""","null","+","null","","","","","","",""
"","","","","","image-keyboard-response","237","509505","0.0-17.0-0.0-1.1","6j718wpcmd","","6j718wpcmd","""2024-11-12T18:56:35.733Z""","1500","materials/imgs/D24.png","arrowright","","[""materials/imgs/D6.png"",""materials/imgs/D80.png""]","false","random","","",""
"","","","","","html-keyboard-response","238","510009","0.0-17.0-0.0-0.2","6j718wpcmd","","6j718wpcmd","""2024-11-12T18:56:35.733Z""","null","+","null","","","","","","",""
"","","","","","image-keyboard-response","239","513037","0.0-17.0-0.0-1.2","6j718wpcmd","","6j718wpcmd","""2024-11-12T18:56:35.733Z""","3023","materials/imgs/D21.png","arrowleft","","[""materials/imgs/D96.png"",""materials/imgs/D26.png""]","false","random","","",""
"","","","","","html-keyboard-response","240","513540","0.0-17.0-0.0-0.3","6j718wpcmd","","6j718wpcmd","""2024-11-12T18:56:35.733Z""","null","+","null","","","","","","",""
"","","","","","image-keyboard-response","241","515740","0.0-17.0-0.0-1.3","6j718wpcmd","","6j718wpcmd","""2024-11-12T18:56:35.733Z""","2196","materials/imgs/D46.png","arrowleft","","[""materials/imgs/D68.png"",""materials/imgs/D105.png""]","false","random","","",""
"","","","","","html-keyboard-response","242","516242","0.0-17.0-0.0-0.4","6j718wpcmd","","6j718wpcmd","""2024-11-12T18:56:35.733Z""","null","+","null","","","","","","",""
"","","","","","image-keyboard-response","243","517115","0.0-17.0-0.0-1.4","6j718wpcmd","","6j718wpcmd","""2024-11-12T18:56:35.733Z""","867","materials/imgs/D84.png","arrowright","","[""materials/imgs/D94.png"",""materials/imgs/D21.png""]","false","random","","",""
"","","","","","html-keyboard-response","244","517617","0.0-17.0-0.0-0.5","6j718wpcmd","","6j718wpcmd","""2024-11-12T18:56:35.733Z""","null","+","null","","","","","","",""
"","","","","","image-keyboard-response","245","519062","0.0-17.0-0.0-1.5","6j718wpcmd","","6j718wpcmd","""2024-11-12T18:56:35.733Z""","1442","materials/imgs/D6.png","arrowleft","","[""materials/imgs/D87.png"",""materials/imgs/D47.png""]","false","random","","",""
"","","","","","html-keyboard-response","246","519565","0.0-17.0-0.0-0.6","6j718wpcmd","","6j718wpcmd","""2024-11-12T18:56:35.733Z""","null","+","null","","","","","","",""
"","","","","","image-keyboard-response","247","523105","0.0-17.0-0.0-1.6","6j718wpcmd","","6j718wpcmd","""2024-11-12T18:56:35.733Z""","3534","materials/imgs/D105.png","arrowright","","[""materials/imgs/D92.png"",""materials/imgs/D29.png""]","false","random","","",""
"","","","","","html-keyboard-response","248","523607","0.0-17.0-1.0-0.0","6j718wpcmd","","6j718wpcmd","""2024-11-12T18:56:35.733Z""","null","+","null","","","","","","",""
"","","","","","image-keyboard-response","249","524537","0.0-17.0-1.0-1.0","6j718wpcmd","","6j718wpcmd","""2024-11-12T18:56:35.733Z""","926","materials/imgs/D101.png","arrowright","","[""materials/imgs/D106.png"",""materials/imgs/D101.png""]","","check","materials/imgs/D101.png","1","true"
"","","","","","html-keyboard-response","250","525040","0.0-17.0-2.0-0.0","6j718wpcmd","","6j718wpcmd","""2024-11-12T18:56:35.733Z""","null","+","null","","","","","","",""
"","","","","","image-keyboard-response","251","528840","0.0-17.0-2.0-1.0","6j718wpcmd","","6j718wpcmd","""2024-11-12T18:56:35.733Z""","3798","materials/imgs/D64.png","arrowright","","[""materials/imgs/D6.png"",""materials/imgs/D81.png""]","false","validation","","",""
"","","","","","html-keyboard-response","252","529341","0.0-17.0-2.0-0.1","6j718wpcmd","","6j718wpcmd","""2024-11-12T18:56:35.733Z""","null","+","null","","","","","","",""
"","","","","","image-keyboard-response","253","532192","0.0-17.0-2.0-1.1","6j718wpcmd","","6j718wpcmd","""2024-11-12T18:56:35.733Z""","2850","materials/imgs/D22.png","arrowleft","","[""materials/imgs/D4.png"",""materials/imgs/D25.png""]","false","validation","","",""
"","","","","","html-keyboard-response","254","532696","0.0-17.0-0.1-0.7","6j718wpcmd","","6j718wpcmd","""2024-11-12T18:56:35.733Z""","null","+","null","","","","","","",""
"","","","","","image-keyboard-response","255","535843","0.0-17.0-0.1-1.7","6j718wpcmd","","6j718wpcmd","""2024-11-12T18:56:35.733Z""","3141","materials/imgs/D48.png","arrowleft","","[""materials/imgs/D66.png"",""materials/imgs/D25.png""]","false","random","","",""
"","","","","","html-keyboard-response","256","536349","0.0-17.0-0.1-0.8","6j718wpcmd","","6j718wpcmd","""2024-11-12T18:56:35.733Z""","null","+","null","","","","","","",""
"","","","","","image-keyboard-response","257","538922","0.0-17.0-0.1-1.8","6j718wpcmd","","6j718wpcmd","""2024-11-12T18:56:35.733Z""","2568","materials/imgs/D78.png","arrowright","","[""materials/imgs/D66.png"",""materials/imgs/D92.png""]","false","random","","",""
"","","","","","html-keyboard-response","258","539425","0.0-17.0-0.1-0.9","6j718wpcmd","","6j718wpcmd","""2024-11-12T18:56:35.733Z""","null","+","null","","","","","","",""
"","","","","","image-keyboard-response","259","541589","0.0-17.0-0.1-1.9","6j718wpcmd","","6j718wpcmd","""2024-11-12T18:56:35.733Z""","2158","materials/imgs/D36.png","arrowleft","","[""materials/imgs/D32.png"",""materials/imgs/D46.png""]","false","random","","",""
"","","","","","html-keyboard-response","260","542092","0.0-17.0-0.1-0.10","6j718wpcmd","","6j718wpcmd","""2024-11-12T18:56:35.733Z""","null","+","null","","","","","","",""
"","","","","","image-keyboard-response","261","544211","0.0-17.0-0.1-1.10","6j718wpcmd","","6j718wpcmd","""2024-11-12T18:56:35.733Z""","2117","materials/imgs/D68.png","arrowright","","[""materials/imgs/D102.png"",""materials/imgs/D18.png""]","false","random","","",""
"","","","","","html-keyboard-response","262","544714","0.0-17.0-0.1-0.11","6j718wpcmd","","6j718wpcmd","""2024-11-12T18:56:35.733Z""","null","+","null","","","","","","",""
"","","","","","image-keyboard-response","263","545878","0.0-17.0-0.1-1.11","6j718wpcmd","","6j718wpcmd","""2024-11-12T18:56:35.733Z""","1159","materials/imgs/D55.png","arrowleft","","[""materials/imgs/D94.png"",""materials/imgs/D101.png""]","false","random","","",""
"","","","","","html-keyboard-response","264","546380","0.0-17.0-0.1-0.12","6j718wpcmd","","6j718wpcmd","""2024-11-12T18:56:35.733Z""","null","+","null","","","","","","",""
"","","","","","image-keyboard-response","265","547171","0.0-17.0-0.1-1.12","6j718wpcmd","","6j718wpcmd","""2024-11-12T18:56:35.733Z""","788","materials/imgs/D34.png","arrowleft","","[""materials/imgs/D52.png"",""materials/imgs/D32.png""]","false","random","","",""
"","","","","","html-keyboard-response","266","547674","0.0-17.0-0.1-0.13","6j718wpcmd","","6j718wpcmd","""2024-11-12T18:56:35.733Z""","null","+","null","","","","","","",""
"","","","","","image-keyboard-response","267","548467","0.0-17.0-0.1-1.13","6j718wpcmd","","6j718wpcmd","""2024-11-12T18:56:35.733Z""","790","materials/imgs/D1.png","arrowright","","[""materials/imgs/D6.png"",""materials/imgs/D8.png""]","false","random","","",""
"","","","","","html-keyboard-response","268","548970","0.0-17.0-1.1-0.1","6j718wpcmd","","6j718wpcmd","""2024-11-12T18:56:35.733Z""","null","+","null","","","","","","",""
"","","","","","image-keyboard-response","269","549719","0.0-17.0-1.1-1.1","6j718wpcmd","","6j718wpcmd","""2024-11-12T18:56:35.733Z""","746","materials/imgs/D64.png","arrowleft","","[""materials/imgs/D64.png"",""materials/imgs/D53.png""]","","check","materials/imgs/D64.png","0","true"
"","","","","","html-keyboard-response","270","550221","0.0-17.0-2.1-0.2","6j718wpcmd","","6j718wpcmd","""2024-11-12T18:56:35.733Z""","null","+","null","","","","","","",""
"","","","","","image-keyboard-response","271","552088","0.0-17.0-2.1-1.2","6j718wpcmd","","6j718wpcmd","""2024-11-12T18:56:35.733Z""","1863","materials/imgs/D103.png","arrowright","","[""materials/imgs/D76.png"",""materials/imgs/D106.png""]","false","validation","","",""
"","","","","","html-keyboard-response","272","552591","0.0-17.0-2.1-0.3","6j718wpcmd","","6j718wpcmd","""2024-11-12T18:56:35.733Z""","null","+","null","","","","","","",""
"","","","","","image-keyboard-response","273","556395","0.0-17.0-2.1-1.3","6j718wpcmd","","6j718wpcmd","""2024-11-12T18:56:35.733Z""","3801","materials/imgs/D36.png","arrowleft","","[""materials/imgs/D47.png"",""materials/imgs/D49.png""]","false","validation","","",""
"","","","","","html-keyboard-response","274","556898","0.0-17.0-0.2-0.14","6j718wpcmd","","6j718wpcmd","""2024-11-12T18:56:35.733Z""","null","+","null","","","","","","",""
"","","","","","image-keyboard-response","275","557895","0.0-17.0-0.2-1.14","6j718wpcmd","","6j718wpcmd","""2024-11-12T18:56:35.733Z""","993","materials/imgs/D3.png","arrowleft","","[""materials/imgs/D87.png"",""materials/imgs/D8.png""]","false","random","","",""
"","","","","","html-keyboard-response","276","558398","0.0-17.0-0.2-0.15","6j718wpcmd","","6j718wpcmd","""2024-11-12T18:56:35.733Z""","null","+","null","","","","","","",""
"","","","","","image-keyboard-response","277","559601","0.0-17.0-0.2-1.15","6j718wpcmd","","6j718wpcmd","""2024-11-12T18:56:35.733Z""","1201","materials/imgs/D21.png","arrowright","","[""materials/imgs/D102.png"",""materials/imgs/D80.png""]","false","random","","",""
"","","","","","html-keyboard-response","278","560104","0.0-17.0-0.2-0.16","6j718wpcmd","","6j718wpcmd","""2024-11-12T18:56:35.733Z""","null","+","null","","","","","","",""
"","","","","","image-keyboard-response","279","560816","0.0-17.0-0.2-1.16","6j718wpcmd","","6j718wpcmd","""2024-11-12T18:56:35.733Z""","709","materials/imgs/D6.png","arrowright","","[""materials/imgs/D75.png"",""materials/imgs/D52.png""]","false","random","","",""
"","","","","","html-keyboard-response","280","561319","0.0-17.0-0.2-0.17","6j718wpcmd","","6j718wpcmd","""2024-11-12T18:56:35.733Z""","null","+","null","","","","","","",""
"","","","","","image-keyboard-response","281","564274","0.0-17.0-0.2-1.17","6j718wpcmd","","6j718wpcmd","""2024-11-12T18:56:35.733Z""","2952","materials/imgs/D37.png","arrowright","","[""materials/imgs/D48.png"",""materials/imgs/D77.png""]","false","random","","",""
"","","","","","html-keyboard-response","282","564776","0.0-17.0-0.2-0.18","6j718wpcmd","","6j718wpcmd","""2024-11-12T18:56:35.733Z""","null","+","null","","","","","","",""
"","","","","","image-keyboard-response","283","566011","0.0-17.0-0.2-1.18","6j718wpcmd","","6j718wpcmd","""2024-11-12T18:56:35.733Z""","1232","materials/imgs/D68.png","arrowleft","","[""materials/imgs/D17.png"",""materials/imgs/D34.png""]","false","random","","",""
"","","","","","html-keyboard-response","284","566513","0.0-17.0-0.2-0.19","6j718wpcmd","","6j718wpcmd","""2024-11-12T18:56:35.733Z""","null","+","null","","","","","","",""
"","","","","","image-keyboard-response","285","567600","0.0-17.0-0.2-1.19","6j718wpcmd","","6j718wpcmd","""2024-11-12T18:56:35.733Z""","1084","materials/imgs/D84.png","arrowright","","[""materials/imgs/D25.png"",""materials/imgs/D81.png""]","false","random","","",""
"","","","","","html-keyboard-response","286","568103","0.0-17.0-0.2-0.20","6j718wpcmd","","6j718wpcmd","""2024-11-12T18:56:35.733Z""","null","+","null","","","","","","",""
"","","","","","image-keyboard-response","287","568839","0.0-17.0-0.2-1.20","6j718wpcmd","","6j718wpcmd","""2024-11-12T18:56:35.733Z""","733","materials/imgs/D56.png","arrowleft","","[""materials/imgs/D95.png"",""materials/imgs/D92.png""]","false","random","","",""
"","","","","","html-keyboard-response","288","569342","0.0-17.0-1.2-0.2","6j718wpcmd","","6j718wpcmd","""2024-11-12T18:56:35.733Z""","null","+","null","","","","","","",""
"","","","","","image-keyboard-response","289","570010","0.0-17.0-1.2-1.2","6j718wpcmd","","6j718wpcmd","""2024-11-12T18:56:35.733Z""","665","materials/imgs/D46.png","arrowleft","","[""materials/imgs/D46.png"",""materials/imgs/D26.png""]","","check","materials/imgs/D46.png","0","true"
"","","","","","html-keyboard-response","290","570512","0.0-17.0-2.2-0.4","6j718wpcmd","","6j718wpcmd","""2024-11-12T18:56:35.733Z""","null","+","null","","","","","","",""
"","","","","","image-keyboard-response","291","574066","0.0-17.0-2.2-1.4","6j718wpcmd","","6j718wpcmd","""2024-11-12T18:56:35.733Z""","3550","materials/imgs/D26.png","arrowright","","[""materials/imgs/D36.png"",""materials/imgs/D92.png""]","false","validation","","",""
"","","","","","html-keyboard-response","292","574568","0.0-17.0-2.2-0.5","6j718wpcmd","","6j718wpcmd","""2024-11-12T18:56:35.733Z""","null","+","null","","","","","","",""
"","","","","","image-keyboard-response","293","576375","0.0-17.0-2.2-1.5","6j718wpcmd","","6j718wpcmd","""2024-11-12T18:56:35.733Z""","1804","materials/imgs/D95.png","arrowright","","[""materials/imgs/D36.png"",""materials/imgs/D4.png""]","false","validation","","",""
"","","","","","html-keyboard-response","294","576877","0.0-17.0-0.3-0.21","6j718wpcmd","","6j718wpcmd","""2024-11-12T18:56:35.733Z""","null","+","null","","","","","","",""
"","","","","","image-keyboard-response","295","577903","0.0-17.0-0.3-1.21","6j718wpcmd","","6j718wpcmd","""2024-11-12T18:56:35.733Z""","1021","materials/imgs/D17.png","arrowright","","[""materials/imgs/D68.png"",""materials/imgs/D77.png""]","false","random","","",""
"","","","","","html-keyboard-response","296","578405","0.0-17.0-0.3-0.22","6j718wpcmd","","6j718wpcmd","""2024-11-12T18:56:35.733Z""","null","+","null","","","","","","",""
"","","","","","image-keyboard-response","297","579844","0.0-17.0-0.3-1.22","6j718wpcmd","","6j718wpcmd","""2024-11-12T18:56:35.733Z""","1436","materials/imgs/D79.png","arrowright","","[""materials/imgs/D94.png"",""materials/imgs/D111.png""]","false","random","","",""
"","","","","","html-keyboard-response","298","580348","0.0-17.0-0.3-0.23","6j718wpcmd","","6j718wpcmd","""2024-11-12T18:56:35.733Z""","null","+","null","","","","","","",""
"","","","","","image-keyboard-response","299","581596","0.0-17.0-0.3-1.23","6j718wpcmd","","6j718wpcmd","""2024-11-12T18:56:35.733Z""","1243","materials/imgs/D14.png","arrowleft","","[""materials/imgs/D24.png"",""materials/imgs/D68.png""]","false","random","","",""
"","","","","","html-keyboard-response","300","582099","0.0-17.0-0.3-0.24","6j718wpcmd","","6j718wpcmd","""2024-11-12T18:56:35.733Z""","null","+","null","","","","","","",""
"","","","","","image-keyboard-response","301","584931","0.0-17.0-0.3-1.24","6j718wpcmd","","6j718wpcmd","""2024-11-12T18:56:35.733Z""","2828","materials/imgs/D56.png","arrowright","","[""materials/imgs/D102.png"",""materials/imgs/D47.png""]","false","random","","",""
"","","","","","html-keyboard-response","302","585433","0.0-17.0-0.3-0.25","6j718wpcmd","","6j718wpcmd","""2024-11-12T18:56:35.733Z""","null","+","null","","","","","","",""
"","","","","","image-keyboard-response","303","586413","0.0-17.0-0.3-1.25","6j718wpcmd","","6j718wpcmd","""2024-11-12T18:56:35.733Z""","976","materials/imgs/D82.png","arrowleft","","[""materials/imgs/D9.png"",""materials/imgs/D17.png""]","false","random","","",""
"","","","","","html-keyboard-response","304","586915","0.0-17.0-0.3-0.26","6j718wpcmd","","6j718wpcmd","""2024-11-12T18:56:35.733Z""","null","+","null","","","","","","",""
"","","","","","image-keyboard-response","305","587626","0.0-17.0-0.3-1.26","6j718wpcmd","","6j718wpcmd","""2024-11-12T18:56:35.733Z""","707","materials/imgs/D55.png","arrowright","","[""materials/imgs/D56.png"",""materials/imgs/D77.png""]","false","random","","",""
"","","","","","html-keyboard-response","306","588129","0.0-17.0-0.3-0.27","6j718wpcmd","","6j718wpcmd","""2024-11-12T18:56:35.733Z""","null","+","null","","","","","","",""
"","","","","","image-keyboard-response","307","591418","0.0-17.0-0.3-1.27","6j718wpcmd","","6j718wpcmd","""2024-11-12T18:56:35.733Z""","3286","materials/imgs/D104.png","arrowright","","[""materials/imgs/D49.png"",""materials/imgs/D8.png""]","false","random","","",""
"","","","","","html-keyboard-response","308","591921","0.0-17.0-1.3-0.3","6j718wpcmd","","6j718wpcmd","""2024-11-12T18:56:35.733Z""","null","+","null","","","","","","",""
"","","","","","image-keyboard-response","309","592631","0.0-17.0-1.3-1.3","6j718wpcmd","","6j718wpcmd","""2024-11-12T18:56:35.733Z""","707","materials/imgs/D53.png","arrowright","","[""materials/imgs/D64.png"",""materials/imgs/D53.png""]","","check","materials/imgs/D53.png","1","true"
"","","","","","html-keyboard-response","310","593133","0.0-17.0-2.3-0.6","6j718wpcmd","","6j718wpcmd","""2024-11-12T18:56:35.733Z""","null","+","null","","","","","","",""
"","","","","","image-keyboard-response","311","596035","0.0-17.0-2.3-1.6","6j718wpcmd","","6j718wpcmd","""2024-11-12T18:56:35.733Z""","2898","materials/imgs/D101.png","arrowleft","","[""materials/imgs/D76.png"",""materials/imgs/D47.png""]","false","validation","","",""
"","","","","","html-keyboard-response","312","596538","0.0-17.0-2.3-0.7","6j718wpcmd","","6j718wpcmd","""2024-11-12T18:56:35.733Z""","null","+","null","","","","","","",""
"","","","","","image-keyboard-response","313","599412","0.0-17.0-2.3-1.7","6j718wpcmd","","6j718wpcmd","""2024-11-12T18:56:35.733Z""","2871","materials/imgs/D75.png","arrowright","","[""materials/imgs/D96.png"",""materials/imgs/D4.png""]","false","validation","","",""
"","","","","","html-keyboard-response","314","599915","0.0-17.0-0.4-0.28","6j718wpcmd","","6j718wpcmd","""2024-11-12T18:56:35.733Z""","null","+","null","","","","","","",""
"","","","","","image-keyboard-response","315","601408","0.0-17.0-0.4-1.28","6j718wpcmd","","6j718wpcmd","""2024-11-12T18:56:35.733Z""","1491","materials/imgs/D95.png","arrowright","","[""materials/imgs/D11.png"",""materials/imgs/D64.png""]","false","random","","",""
"","","","","","html-keyboard-response","316","601910","0.0-17.0-0.4-0.29","6j718wpcmd","","6j718wpcmd","""2024-11-12T18:56:35.733Z""","null","+","null","","","","","","",""
"","","","","","image-keyboard-response","317","603175","0.0-17.0-0.4-1.29","6j718wpcmd","","6j718wpcmd","""2024-11-12T18:56:35.733Z""","1261","materials/imgs/D1.png","arrowleft","","[""materials/imgs/D8.png"",""materials/imgs/D4.png""]","false","random","","",""
"","","","","","html-keyboard-response","318","603678","0.0-17.0-0.4-0.30","6j718wpcmd","","6j718wpcmd","""2024-11-12T18:56:35.733Z""","null","+","null","","","","","","",""
"","","","","","image-keyboard-response","319","605653","0.0-17.0-0.4-1.30","6j718wpcmd","","6j718wpcmd","""2024-11-12T18:56:35.733Z""","1972","materials/imgs/D17.png","arrowright","","[""materials/imgs/D48.png"",""materials/imgs/D49.png""]","false","random","","",""
"","","","","","html-keyboard-response","320","606155","0.0-17.0-0.4-0.31","6j718wpcmd","","6j718wpcmd","""2024-11-12T18:56:35.733Z""","null","+","null","","","","","","",""
"","","","","","image-keyboard-response","321","612517","0.0-17.0-0.4-1.31","6j718wpcmd","","6j718wpcmd","""2024-11-12T18:56:35.733Z""","6359","materials/imgs/D75.png","arrowleft","","[""materials/imgs/D34.png"",""materials/imgs/D105.png""]","false","random","","",""
"","","","","","html-keyboard-response","322","613020","0.0-17.0-0.4-0.32","6j718wpcmd","","6j718wpcmd","""2024-11-12T18:56:35.733Z""","null","+","null","","","","","","",""
"","","","","","image-keyboard-response","323","616335","0.0-17.0-0.4-1.32","6j718wpcmd","","6j718wpcmd","""2024-11-12T18:56:35.733Z""","3310","materials/imgs/D20.png","arrowright","","[""materials/imgs/D51.png"",""materials/imgs/D8.png""]","false","random","","",""
"","","","","","html-keyboard-response","324","616838","0.0-17.0-0.4-0.33","6j718wpcmd","","6j718wpcmd","""2024-11-12T18:56:35.733Z""","null","+","null","","","","","","",""
"","","","","","image-keyboard-response","325","621549","0.0-17.0-0.4-1.33","6j718wpcmd","","6j718wpcmd","""2024-11-12T18:56:35.733Z""","4708","materials/imgs/D18.png","arrowleft","","[""materials/imgs/D57.png"",""materials/imgs/D80.png""]","false","random","","",""
"","","","","","html-keyboard-response","326","622051","0.0-17.0-0.4-0.34","6j718wpcmd","","6j718wpcmd","""2024-11-12T18:56:35.733Z""","null","+","null","","","","","","",""
"","","","","","image-keyboard-response","327","624205","0.0-17.0-0.4-1.34","6j718wpcmd","","6j718wpcmd","""2024-11-12T18:56:35.733Z""","2145","materials/imgs/D16.png","arrowright","","[""materials/imgs/D36.png"",""materials/imgs/D52.png""]","false","random","","",""
"","","","","","html-keyboard-response","328","624707","0.0-17.0-1.4-0.4","6j718wpcmd","","6j718wpcmd","""2024-11-12T18:56:35.733Z""","null","+","null","","","","","","",""
"","","","","","image-keyboard-response","329","625424","0.0-17.0-1.4-1.4","6j718wpcmd","","6j718wpcmd","""2024-11-12T18:56:35.733Z""","714","materials/imgs/D53.png","arrowright","","[""materials/imgs/D64.png"",""materials/imgs/D53.png""]","","check","materials/imgs/D53.png","1","true"
"","","","","","html-keyboard-response","330","625927","0.0-17.0-2.4-0.8","6j718wpcmd","","6j718wpcmd","""2024-11-12T18:56:35.733Z""","null","+","null","","","","","","",""
"","","","","","image-keyboard-response","331","627477","0.0-17.0-2.4-1.8","6j718wpcmd","","6j718wpcmd","""2024-11-12T18:56:35.733Z""","1547","materials/imgs/D48.png","arrowright","","[""materials/imgs/D4.png"",""materials/imgs/D37.png""]","false","validation","","",""
"","","","","","html-keyboard-response","332","627980","0.0-17.0-2.4-0.9","6j718wpcmd","","6j718wpcmd","""2024-11-12T18:56:35.733Z""","null","+","null","","","","","","",""
"","","","","","image-keyboard-response","333","629285","0.0-17.0-2.4-1.9","6j718wpcmd","","6j718wpcmd","""2024-11-12T18:56:35.733Z""","1302","materials/imgs/D64.png","arrowleft","","[""materials/imgs/D6.png"",""materials/imgs/D81.png""]","false","validation","","",""
"","","","","","html-button-response","334","631463","0.0-18.0","6j718wpcmd","","6j718wpcmd","""2024-11-12T18:56:35.733Z""","2176","You have completed 75% of the trials. Please click 'Continue' when you are ready proceed.","0","","","","","","",""
"","","","","","html-keyboard-response","335","631965","0.0-19.0-0.0-0.0","6j718wpcmd","","6j718wpcmd","""2024-11-12T18:56:35.733Z""","null","+","null","","","","","","",""
"","","","","","image-keyboard-response","336","639090","0.0-19.0-0.0-1.0","6j718wpcmd","","6j718wpcmd","""2024-11-12T18:56:35.733Z""","7123","materials/imgs/D18.png","arrowright","","[""materials/imgs/D25.png"",""materials/imgs/D11.png""]","false","random","","",""
"","","","","","html-keyboard-response","337","639592","0.0-19.0-0.0-0.1","6j718wpcmd","","6j718wpcmd","""2024-11-12T18:56:35.733Z""","null","+","null","","","","","","",""
"","","","","","image-keyboard-response","338","641855","0.0-19.0-0.0-1.1","6j718wpcmd","","6j718wpcmd","""2024-11-12T18:56:35.733Z""","2260","materials/imgs/D85.png","arrowleft","","[""materials/imgs/D21.png"",""materials/imgs/D26.png""]","false","random","","",""
"","","","","","html-keyboard-response","339","642357","0.0-19.0-0.0-0.2","6j718wpcmd","","6j718wpcmd","""2024-11-12T18:56:35.733Z""","null","+","null","","","","","","",""
"","","","","","image-keyboard-response","340","643443","0.0-19.0-0.0-1.2","6j718wpcmd","","6j718wpcmd","""2024-11-12T18:56:35.733Z""","1083","materials/imgs/D4.png","arrowleft","","[""materials/imgs/D53.png"",""materials/imgs/D78.png""]","false","random","","",""
"","","","","","html-keyboard-response","341","643946","0.0-19.0-0.0-0.3","6j718wpcmd","","6j718wpcmd","""2024-11-12T18:56:35.733Z""","null","+","null","","","","","","",""
"","","","","","image-keyboard-response","342","645747","0.0-19.0-0.0-1.3","6j718wpcmd","","6j718wpcmd","""2024-11-12T18:56:35.733Z""","1798","materials/imgs/D19.png","arrowright","","[""materials/imgs/D16.png"",""materials/imgs/D36.png""]","false","random","","",""
"","","","","","html-keyboard-response","343","646249","0.0-19.0-0.0-0.4","6j718wpcmd","","6j718wpcmd","""2024-11-12T18:56:35.733Z""","null","+","null","","","","","","",""
"","","","","","image-keyboard-response","344","648023","0.0-19.0-0.0-1.4","6j718wpcmd","","6j718wpcmd","""2024-11-12T18:56:35.733Z""","1771","materials/imgs/D8.png","arrowleft","","[""materials/imgs/D11.png"",""materials/imgs/D4.png""]","false","random","","",""
"","","","","","html-keyboard-response","345","648526","0.0-19.0-0.0-0.5","6j718wpcmd","","6j718wpcmd","""2024-11-12T18:56:35.733Z""","null","+","null","","","","","","",""
"","","","","","image-keyboard-response","346","649894","0.0-19.0-0.0-1.5","6j718wpcmd","","6j718wpcmd","""2024-11-12T18:56:35.733Z""","1366","materials/imgs/D34.png","arrowright","","[""materials/imgs/D1.png"",""materials/imgs/D66.png""]","false","random","","",""
"","","","","","html-keyboard-response","347","650397","0.0-19.0-0.0-0.6","6j718wpcmd","","6j718wpcmd","""2024-11-12T18:56:35.733Z""","null","+","null","","","","","","",""
"","","","","","image-keyboard-response","348","653590","0.0-19.0-0.0-1.6","6j718wpcmd","","6j718wpcmd","""2024-11-12T18:56:35.733Z""","3189","materials/imgs/D47.png","arrowright","","[""materials/imgs/D37.png"",""materials/imgs/D77.png""]","false","random","","",""
"","","","","","html-keyboard-response","349","654092","0.0-19.0-1.0-0.0","6j718wpcmd","","6j718wpcmd","""2024-11-12T18:56:35.733Z""","null","+","null","","","","","","",""
"","","","","","image-keyboard-response","350","654922","0.0-19.0-1.0-1.0","6j718wpcmd","","6j718wpcmd","""2024-11-12T18:56:35.733Z""","826","materials/imgs/D8.png","arrowright","","[""materials/imgs/D18.png"",""materials/imgs/D8.png""]","","check","materials/imgs/D8.png","1","true"
"","","","","","html-keyboard-response","351","655424","0.0-19.0-2.0-0.0","6j718wpcmd","","6j718wpcmd","""2024-11-12T18:56:35.733Z""","null","+","null","","","","","","",""
"","","","","","image-keyboard-response","352","657215","0.0-19.0-2.0-1.0","6j718wpcmd","","6j718wpcmd","""2024-11-12T18:56:35.733Z""","1789","materials/imgs/D96.png","arrowright","","[""materials/imgs/D46.png"",""materials/imgs/D18.png""]","false","validation","","",""
"","","","","","html-keyboard-response","353","657718","0.0-19.0-2.0-0.1","6j718wpcmd","","6j718wpcmd","""2024-11-12T18:56:35.733Z""","null","+","null","","","","","","",""
"","","","","","image-keyboard-response","354","659110","0.0-19.0-2.0-1.1","6j718wpcmd","","6j718wpcmd","""2024-11-12T18:56:35.733Z""","1388","materials/imgs/D68.png","arrowright","","[""materials/imgs/D96.png"",""materials/imgs/D48.png""]","false","validation","","",""
"","","","","","html-keyboard-response","355","659613","0.0-19.0-0.1-0.7","6j718wpcmd","","6j718wpcmd","""2024-11-12T18:56:35.733Z""","null","+","null","","","","","","",""
"","","","","","image-keyboard-response","356","660791","0.0-19.0-0.1-1.7","6j718wpcmd","","6j718wpcmd","""2024-11-12T18:56:35.733Z""","1176","materials/imgs/D66.png","arrowright","","[""materials/imgs/D96.png"",""materials/imgs/D79.png""]","false","random","","",""
"","","","","","html-keyboard-response","357","661293","0.0-19.0-0.1-0.8","6j718wpcmd","","6j718wpcmd","""2024-11-12T18:56:35.733Z""","null","+","null","","","","","","",""
"","","","","","image-keyboard-response","358","663027","0.0-19.0-0.1-1.8","6j718wpcmd","","6j718wpcmd","""2024-11-12T18:56:35.733Z""","1730","materials/imgs/D76.png","arrowright","","[""materials/imgs/D14.png"",""materials/imgs/D16.png""]","false","random","","",""
"","","","","","html-keyboard-response","359","663529","0.0-19.0-0.1-0.9","6j718wpcmd","","6j718wpcmd","""2024-11-12T18:56:35.733Z""","null","+","null","","","","","","",""
"","","","","","image-keyboard-response","360","664738","0.0-19.0-0.1-1.9","6j718wpcmd","","6j718wpcmd","""2024-11-12T18:56:35.733Z""","1206","materials/imgs/D104.png","arrowleft","","[""materials/imgs/D103.png"",""materials/imgs/D48.png""]","false","random","","",""
"","","","","","html-keyboard-response","361","665240","0.0-19.0-0.1-0.10","6j718wpcmd","","6j718wpcmd","""2024-11-12T18:56:35.733Z""","null","+","null","","","","","","",""
"","","","","","image-keyboard-response","362","666561","0.0-19.0-0.1-1.10","6j718wpcmd","","6j718wpcmd","""2024-11-12T18:56:35.733Z""","1317","materials/imgs/D68.png","arrowright","","[""materials/imgs/D84.png"",""materials/imgs/D76.png""]","false","random","","",""
"","","","","","html-keyboard-response","363","667063","0.0-19.0-0.1-0.11","6j718wpcmd","","6j718wpcmd","""2024-11-12T18:56:35.733Z""","null","+","null","","","","","","",""
"","","","","","image-keyboard-response","364","669715","0.0-19.0-0.1-1.11","6j718wpcmd","","6j718wpcmd","""2024-11-12T18:56:35.733Z""","2648","materials/imgs/D21.png","arrowright","","[""materials/imgs/D56.png"",""materials/imgs/D52.png""]","false","random","","",""
"","","","","","html-keyboard-response","365","670217","0.0-19.0-0.1-0.12","6j718wpcmd","","6j718wpcmd","""2024-11-12T18:56:35.733Z""","null","+","null","","","","","","",""
"","","","","","image-keyboard-response","366","670927","0.0-19.0-0.1-1.12","6j718wpcmd","","6j718wpcmd","""2024-11-12T18:56:35.733Z""","705","materials/imgs/D106.png","arrowright","","[""materials/imgs/D46.png"",""materials/imgs/D51.png""]","false","random","","",""
"","","","","","html-keyboard-response","367","671429","0.0-19.0-0.1-0.13","6j718wpcmd","","6j718wpcmd","""2024-11-12T18:56:35.733Z""","null","+","null","","","","","","",""
"","","","","","image-keyboard-response","368","672304","0.0-19.0-0.1-1.13","6j718wpcmd","","6j718wpcmd","""2024-11-12T18:56:35.733Z""","872","materials/imgs/D104.png","arrowright","","[""materials/imgs/D35.png"",""materials/imgs/D14.png""]","false","random","","",""
"","","","","","html-keyboard-response","369","672806","0.0-19.0-1.1-0.1","6j718wpcmd","","6j718wpcmd","""2024-11-12T18:56:35.733Z""","null","+","null","","","","","","",""
"","","","","","image-keyboard-response","370","673477","0.0-19.0-1.1-1.1","6j718wpcmd","","6j718wpcmd","""2024-11-12T18:56:35.733Z""","669","materials/imgs/D101.png","arrowright","","[""materials/imgs/D106.png"",""materials/imgs/D101.png""]","","check","materials/imgs/D101.png","1","true"
"","","","","","html-keyboard-response","371","673980","0.0-19.0-2.1-0.2","6j718wpcmd","","6j718wpcmd","""2024-11-12T18:56:35.733Z""","null","+","null","","","","","","",""
"","","","","","image-keyboard-response","372","675443","0.0-19.0-2.1-1.2","6j718wpcmd","","6j718wpcmd","""2024-11-12T18:56:35.733Z""","1460","materials/imgs/D106.png","arrowleft","","[""materials/imgs/D57.png"",""materials/imgs/D18.png""]","false","validation","","",""
"","","","","","html-keyboard-response","373","675945","0.0-19.0-2.1-0.3","6j718wpcmd","","6j718wpcmd","""2024-11-12T18:56:35.733Z""","null","+","null","","","","","","",""
"","","","","","image-keyboard-response","374","677657","0.0-19.0-2.1-1.3","6j718wpcmd","","6j718wpcmd","""2024-11-12T18:56:35.733Z""","1708","materials/imgs/D24.png","arrowleft","","[""materials/imgs/D36.png"",""materials/imgs/D8.png""]","false","validation","","",""
"","","","","","html-keyboard-response","375","678159","0.0-19.0-0.2-0.14","6j718wpcmd","","6j718wpcmd","""2024-11-12T18:56:35.733Z""","null","+","null","","","","","","",""
"","","","","","image-keyboard-response","376","679283","0.0-19.0-0.2-1.14","6j718wpcmd","","6j718wpcmd","""2024-11-12T18:56:35.733Z""","1121","materials/imgs/D84.png","arrowleft","","[""materials/imgs/D65.png"",""materials/imgs/D96.png""]","false","random","","",""
"","","","","","html-keyboard-response","377","679785","0.0-19.0-0.2-0.15","6j718wpcmd","","6j718wpcmd","""2024-11-12T18:56:35.733Z""","null","+","null","","","","","","",""
"","","","","","image-keyboard-response","378","680979","0.0-19.0-0.2-1.15","6j718wpcmd","","6j718wpcmd","""2024-11-12T18:56:35.733Z""","1192","materials/imgs/D17.png","arrowright","","[""materials/imgs/D87.png"",""materials/imgs/D79.png""]","false","random","","",""
"","","","","","html-keyboard-response","379","681482","0.0-19.0-0.2-0.16","6j718wpcmd","","6j718wpcmd","""2024-11-12T18:56:35.733Z""","null","+","null","","","","","","",""
"","","","","","image-keyboard-response","380","682185","0.0-19.0-0.2-1.16","6j718wpcmd","","6j718wpcmd","""2024-11-12T18:56:35.733Z""","699","materials/imgs/D4.png","arrowleft","","[""materials/imgs/D80.png"",""materials/imgs/D96.png""]","false","random","","",""
"","","","","","html-keyboard-response","381","682686","0.0-19.0-0.2-0.17","6j718wpcmd","","6j718wpcmd","""2024-11-12T18:56:35.733Z""","null","+","null","","","","","","",""
"","","","","","image-keyboard-response","382","685208","0.0-19.0-0.2-1.17","6j718wpcmd","","6j718wpcmd","""2024-11-12T18:56:35.733Z""","2519","materials/imgs/D18.png","arrowleft","","[""materials/imgs/D75.png"",""materials/imgs/D25.png""]","false","random","","",""
"","","","","","html-keyboard-response","383","685710","0.0-19.0-0.2-0.18","6j718wpcmd","","6j718wpcmd","""2024-11-12T18:56:35.733Z""","null","+","null","","","","","","",""
"","","","","","image-keyboard-response","384","686427","0.0-19.0-0.2-1.18","6j718wpcmd","","6j718wpcmd","""2024-11-12T18:56:35.733Z""","715","materials/imgs/D104.png","arrowleft","","[""materials/imgs/D14.png"",""materials/imgs/D57.png""]","false","random","","",""
"","","","","","html-keyboard-response","385","686930","0.0-19.0-0.2-0.19","6j718wpcmd","","6j718wpcmd","""2024-11-12T18:56:35.733Z""","null","+","null","","","","","","",""
"","","","","","image-keyboard-response","386","688610","0.0-19.0-0.2-1.19","6j718wpcmd","","6j718wpcmd","""2024-11-12T18:56:35.733Z""","1677","materials/imgs/D18.png","arrowleft","","[""materials/imgs/D92.png"",""materials/imgs/D53.png""]","false","random","","",""
"","","","","","html-keyboard-response","387","689113","0.0-19.0-0.2-0.20","6j718wpcmd","","6j718wpcmd","""2024-11-12T18:56:35.733Z""","null","+","null","","","","","","",""
"","","","","","image-keyboard-response","388","690192","0.0-19.0-0.2-1.20","6j718wpcmd","","6j718wpcmd","""2024-11-12T18:56:35.733Z""","1077","materials/imgs/D18.png","arrowleft","","[""materials/imgs/D46.png"",""materials/imgs/D9.png""]","false","random","","",""
"","","","","","html-keyboard-response","389","690695","0.0-19.0-1.2-0.2","6j718wpcmd","","6j718wpcmd","""2024-11-12T18:56:35.733Z""","null","+","null","","","","","","",""
"","","","","","image-keyboard-response","390","691631","0.0-19.0-1.2-1.2","6j718wpcmd","","6j718wpcmd","""2024-11-12T18:56:35.733Z""","934","materials/imgs/D76.png","arrowleft","","[""materials/imgs/D76.png"",""materials/imgs/D78.png""]","","check","materials/imgs/D76.png","0","true"
"","","","","","html-keyboard-response","391","692134","0.0-19.0-2.2-0.4","6j718wpcmd","","6j718wpcmd","""2024-11-12T18:56:35.733Z""","null","+","null","","","","","","",""
"","","","","","image-keyboard-response","392","695347","0.0-19.0-2.2-1.4","6j718wpcmd","","6j718wpcmd","""2024-11-12T18:56:35.733Z""","3211","materials/imgs/D77.png","arrowright","","[""materials/imgs/D102.png"",""materials/imgs/D65.png""]","false","validation","","",""
"","","","","","html-keyboard-response","393","695849","0.0-19.0-2.2-0.5","6j718wpcmd","","6j718wpcmd","""2024-11-12T18:56:35.733Z""","null","+","null","","","","","","",""
"","","","","","image-keyboard-response","394","698233","0.0-19.0-2.2-1.5","6j718wpcmd","","6j718wpcmd","""2024-11-12T18:56:35.733Z""","2377","materials/imgs/D57.png","arrowright","","[""materials/imgs/D111.png"",""materials/imgs/D4.png""]","false","validation","","",""
"","","","","","html-keyboard-response","395","698740","0.0-19.0-0.3-0.21","6j718wpcmd","","6j718wpcmd","""2024-11-12T18:56:35.733Z""","null","+","null","","","","","","",""
"","","","","","image-keyboard-response","396","700636","0.0-19.0-0.3-1.21","6j718wpcmd","","6j718wpcmd","""2024-11-12T18:56:35.733Z""","1892","materials/imgs/D20.png","arrowleft","","[""materials/imgs/D14.png"",""materials/imgs/D3.png""]","false","random","","",""
"","","","","","html-keyboard-response","397","701138","0.0-19.0-0.3-0.22","6j718wpcmd","","6j718wpcmd","""2024-11-12T18:56:35.733Z""","null","+","null","","","","","","",""
"","","","","","image-keyboard-response","398","702778","0.0-19.0-0.3-1.22","6j718wpcmd","","6j718wpcmd","""2024-11-12T18:56:35.733Z""","1633","materials/imgs/D46.png","arrowright","","[""materials/imgs/D49.png"",""materials/imgs/D51.png""]","false","random","","",""
"","","","","","html-keyboard-response","399","703280","0.0-19.0-0.3-0.23","6j718wpcmd","","6j718wpcmd","""2024-11-12T18:56:35.733Z""","null","+","null","","","","","","",""
"","","","","","image-keyboard-response","400","706459","0.0-19.0-0.3-1.23","6j718wpcmd","","6j718wpcmd","""2024-11-12T18:56:35.733Z""","3176","materials/imgs/D34.png","arrowright","","[""materials/imgs/D106.png"",""materials/imgs/D66.png""]","false","random","","",""
"","","","","","html-keyboard-response","401","706962","0.0-19.0-0.3-0.24","6j718wpcmd","","6j718wpcmd","""2024-11-12T18:56:35.733Z""","null","+","null","","","","","","",""
"","","","","","image-keyboard-response","402","710016","0.0-19.0-0.3-1.24","6j718wpcmd","","6j718wpcmd","""2024-11-12T18:56:35.733Z""","3050","materials/imgs/D64.png","arrowright","","[""materials/imgs/D17.png"",""materials/imgs/D9.png""]","false","random","","",""
"","","","","","html-keyboard-response","403","710521","0.0-19.0-0.3-0.25","6j718wpcmd","","6j718wpcmd","""2024-11-12T18:56:35.733Z""","null","+","null","","","","","","",""
"","","","","","image-keyboard-response","404","711229","0.0-19.0-0.3-1.25","6j718wpcmd","","6j718wpcmd","""2024-11-12T18:56:35.733Z""","704","materials/imgs/D52.png","arrowleft","","[""materials/imgs/D34.png"",""materials/imgs/D48.png""]","false","random","","",""
"","","","","","html-keyboard-response","405","711731","0.0-19.0-0.3-0.26","6j718wpcmd","","6j718wpcmd","""2024-11-12T18:56:35.733Z""","null","+","null","","","","","","",""
"","","","","","image-keyboard-response","406","712845","0.0-19.0-0.3-1.26","6j718wpcmd","","6j718wpcmd","""2024-11-12T18:56:35.733Z""","1110","materials/imgs/D52.png","arrowright","","[""materials/imgs/D11.png"",""materials/imgs/D102.png""]","false","random","","",""
"","","","","","html-keyboard-response","407","713347","0.0-19.0-0.3-0.27","6j718wpcmd","","6j718wpcmd","""2024-11-12T18:56:35.733Z""","null","+","null","","","","","","",""
"","","","","","image-keyboard-response","408","716041","0.0-19.0-0.3-1.27","6j718wpcmd","","6j718wpcmd","""2024-11-12T18:56:35.733Z""","2692","materials/imgs/D46.png","arrowright","","[""materials/imgs/D9.png"",""materials/imgs/D95.png""]","false","random","","",""
"","","","","","html-keyboard-response","409","716546","0.0-19.0-1.3-0.3","6j718wpcmd","","6j718wpcmd","""2024-11-12T18:56:35.733Z""","null","+","null","","","","","","",""
"","","","","","image-keyboard-response","410","717166","0.0-19.0-1.3-1.3","6j718wpcmd","","6j718wpcmd","""2024-11-12T18:56:35.733Z""","616","materials/imgs/D78.png","arrowright","","[""materials/imgs/D76.png"",""materials/imgs/D78.png""]","","check","materials/imgs/D78.png","1","true"
"","","","","","html-keyboard-response","411","717668","0.0-19.0-2.3-0.6","6j718wpcmd","","6j718wpcmd","""2024-11-12T18:56:35.733Z""","null","+","null","","","","","","",""
"","","","","","image-keyboard-response","412","718833","0.0-19.0-2.3-1.6","6j718wpcmd","","6j718wpcmd","""2024-11-12T18:56:35.733Z""","1162","materials/imgs/D84.png","arrowleft","","[""materials/imgs/D106.png"",""materials/imgs/D37.png""]","false","validation","","",""
"","","","","","html-keyboard-response","413","719337","0.0-19.0-2.3-0.7","6j718wpcmd","","6j718wpcmd","""2024-11-12T18:56:35.733Z""","null","+","null","","","","","","",""
"","","","","","image-keyboard-response","414","720913","0.0-19.0-2.3-1.7","6j718wpcmd","","6j718wpcmd","""2024-11-12T18:56:35.733Z""","1572","materials/imgs/D111.png","arrowleft","","[""materials/imgs/D82.png"",""materials/imgs/D95.png""]","false","validation","","",""
"","","","","","html-keyboard-response","415","721417","0.0-19.0-0.4-0.28","6j718wpcmd","","6j718wpcmd","""2024-11-12T18:56:35.733Z""","null","+","null","","","","","","",""
"","","","","","image-keyboard-response","416","722258","0.0-19.0-0.4-1.28","6j718wpcmd","","6j718wpcmd","""2024-11-12T18:56:35.733Z""","837","materials/imgs/D34.png","arrowright","","[""materials/imgs/D18.png"",""materials/imgs/D64.png""]","false","random","","",""
"","","","","","html-keyboard-response","417","722761","0.0-19.0-0.4-0.29","6j718wpcmd","","6j718wpcmd","""2024-11-12T18:56:35.733Z""","null","+","null","","","","","","",""
"","","","","","image-keyboard-response","418","724093","0.0-19.0-0.4-1.29","6j718wpcmd","","6j718wpcmd","""2024-11-12T18:56:35.733Z""","1329","materials/imgs/D19.png","arrowleft","","[""materials/imgs/D111.png"",""materials/imgs/D25.png""]","false","random","","",""
"","","","","","html-keyboard-response","419","724596","0.0-19.0-0.4-0.30","6j718wpcmd","","6j718wpcmd","""2024-11-12T18:56:35.733Z""","null","+","null","","","","","","",""
"","","","","","image-keyboard-response","420","726441","0.0-19.0-0.4-1.30","6j718wpcmd","","6j718wpcmd","""2024-11-12T18:56:35.733Z""","1842","materials/imgs/D37.png","arrowright","","[""materials/imgs/D36.png"",""materials/imgs/D103.png""]","false","random","","",""
"","","","","","html-keyboard-response","421","726944","0.0-19.0-0.4-0.31","6j718wpcmd","","6j718wpcmd","""2024-11-12T18:56:35.733Z""","null","+","null","","","","","","",""
"","","","","","image-keyboard-response","422","729183","0.0-19.0-0.4-1.31","6j718wpcmd","","6j718wpcmd","""2024-11-12T18:56:35.733Z""","2235","materials/imgs/D11.png","arrowleft","","[""materials/imgs/D46.png"",""materials/imgs/D102.png""]","false","random","","",""
"","","","","","html-keyboard-response","423","729685","0.0-19.0-0.4-0.32","6j718wpcmd","","6j718wpcmd","""2024-11-12T18:56:35.733Z""","null","+","null","","","","","","",""
"","","","","","image-keyboard-response","424","730624","0.0-19.0-0.4-1.32","6j718wpcmd","","6j718wpcmd","""2024-11-12T18:56:35.733Z""","936","materials/imgs/D81.png","arrowleft","","[""materials/imgs/D68.png"",""materials/imgs/D65.png""]","false","random","","",""
"","","","","","html-keyboard-response","425","731127","0.0-19.0-0.4-0.33","6j718wpcmd","","6j718wpcmd","""2024-11-12T18:56:35.733Z""","null","+","null","","","","","","",""
"","","","","","image-keyboard-response","426","737518","0.0-19.0-0.4-1.33","6j718wpcmd","","6j718wpcmd","""2024-11-12T18:56:35.733Z""","6386","materials/imgs/D80.png","arrowright","","[""materials/imgs/D51.png"",""materials/imgs/D111.png""]","false","random","","",""
"","","","","","html-keyboard-response","427","738022","0.0-19.0-0.4-0.34","6j718wpcmd","","6j718wpcmd","""2024-11-12T18:56:35.733Z""","null","+","null","","","","","","",""
"","","","","","image-keyboard-response","428","739150","0.0-19.0-0.4-1.34","6j718wpcmd","","6j718wpcmd","""2024-11-12T18:56:35.733Z""","1122","materials/imgs/D49.png","arrowright","","[""materials/imgs/D66.png"",""materials/imgs/D1.png""]","false","random","","",""
"","","","","","html-keyboard-response","429","739654","0.0-19.0-1.4-0.4","6j718wpcmd","","6j718wpcmd","""2024-11-12T18:56:35.733Z""","null","+","null","","","","","","",""
"","","","","","image-keyboard-response","430","740498","0.0-19.0-1.4-1.4","6j718wpcmd","","6j718wpcmd","""2024-11-12T18:56:35.733Z""","840","materials/imgs/D46.png","arrowleft","","[""materials/imgs/D46.png"",""materials/imgs/D26.png""]","","check","materials/imgs/D46.png","0","true"
"","","","","","html-keyboard-response","431","741001","0.0-19.0-2.4-0.8","6j718wpcmd","","6j718wpcmd","""2024-11-12T18:56:35.733Z""","null","+","null","","","","","","",""
"","","","","","image-keyboard-response","432","742696","0.0-19.0-2.4-1.8","6j718wpcmd","","6j718wpcmd","""2024-11-12T18:56:35.733Z""","1691","materials/imgs/D66.png","arrowleft","","[""materials/imgs/D85.png"",""materials/imgs/D25.png""]","false","validation","","",""
"","","","","","html-keyboard-response","433","743200","0.0-19.0-2.4-0.9","6j718wpcmd","","6j718wpcmd","""2024-11-12T18:56:35.733Z""","null","+","null","","","","","","",""
"","","","","","image-keyboard-response","434","747779","0.0-19.0-2.4-1.9","6j718wpcmd","","6j718wpcmd","""2024-11-12T18:56:35.733Z""","4575","materials/imgs/D47.png","arrowleft","","[""materials/imgs/D1.png"",""materials/imgs/D52.png""]","false","validation","","",""
