"success","timeout","failed_images","failed_audio","failed_video","trial_type","trial_index","time_elapsed","internal_node_id","subject_id","sona_id","subjectID","dateInfo","rt","stimulus","response","question_order","choices","speedy","sampleAlg","selected_image","selected_index","correct"
"true","false","[]","[]","[]","preload","0","433","0.0-0.0","7rnr2tkrfe","","7rnr2tkrfe","""2024-11-13T15:39:55.859Z""","","","","","","","","","",""
"true","","","","","fullscreen","1","3216","0.0-1.0","7rnr2tkrfe","","7rnr2tkrfe","""2024-11-13T15:39:55.859Z""","","","","","","","","","",""
"","","","","","html-keyboard-response","2","3228","0.0-2.0","7rnr2tkrfe","","7rnr2tkrfe","""2024-11-13T15:39:55.859Z""","null","","null","","","","","","",""
"","","","","","html-button-response","3","5725","0.0-3.0","7rnr2tkrfe","","7rnr2tkrfe","""2024-11-13T15:39:55.859Z""","2494","<div style='text-align:center; font-size:20px; line-height:25px; width: 1200px;'>
                Welcome to our experiment! <br>
                <br>At the bottom of this screen, you will see a button that says 'Begin Experiment.
                <br>Please only click that button when you are ready to complete the 25 minute experiment in one sitting. <br>
                <br> Once you click that button, it will not be possible to restart the experiment. <br><br>","0","","","","","","",""
"true","","","","","fullscreen","4","8941","0.0-4.0","7rnr2tkrfe","","7rnr2tkrfe","""2024-11-13T15:39:55.859Z""","","","","","","","","","",""
"","","","","","survey-multi-select","5","40161","0.0-5.0","7rnr2tkrfe","","7rnr2tkrfe","""2024-11-13T15:39:55.859Z""","31214","","{""Consent"":[""<strong>I consent</strong>""]}","[0]","","","","","",""
"","","","","","html-button-response","6","42002","0.0-6.0","7rnr2tkrfe","","7rnr2tkrfe","""2024-11-13T15:39:55.859Z""","1837","Welcome! <p> This experiment involves two parts: demographic information, followed by the experimental task.<p> It will take about 25 minutes to complete both parts.","0","","","","","","",""
"","","","","","survey-text","7","49668","0.0-7.0","7rnr2tkrfe","","7rnr2tkrfe","""2024-11-13T15:39:55.859Z""","7661","","{""Age"":""20"",""Gender"":""Female "",""Race/ethnicity"":""White ""}","","","","","","",""
"","","","","","html-button-response","8","63489","0.0-8.0","7rnr2tkrfe","","7rnr2tkrfe","""2024-11-13T15:39:55.859Z""","13818","<div style='text-align: center;'>
      <p>In each trial of this task, you will see three texture images: one target item on top, and two choices beneath the target item.</p>
      <p><strong>Please select the item that is most like the target item.</strong></p>
      <p>To select the option on the <strong>LEFT</strong>, press the <strong>LEFT ARROW</strong> key. 
      To select the option on the <strong>RIGHT</strong>, press the <strong>RIGHT ARROW</strong> key.</p>
                  <!-- Target Image at the Top -->
      <div style='margin: 20px;'>
        <img src='materials/imgs/instruction_images/InstructionImg1D78.png' alt='Target Image' style='width:200px; height:auto;' />
        <p><em>Target Image</em></p>
      </div>

      <!-- Two Choice Images Below -->
      <div style='display: flex; justify-content: center;'>
        <div style='margin-right: 50px;'>
          <img src='materials/imgs/instruction_images/InstructionImg2D34.png' alt='Choice Image 1' style='width:150px; height:auto;' />
          <p><em><strong>LEFT ARROW</strong></em></p>
        </div>
        <div style='margin-left: 50px;'>
          <img src='materials/imgs/instruction_images/InstructionImg3D80.png' alt='Choice Image 2' style='width:150px; height:auto;' />
          <p><em><strong>RIGHT ARROW</strong></em></p>
        </div>
      </div>
    </div>

      <p>When you are ready to proceed, please click 'Continue' to begin practice.</p>","0","","","","","","",""
"","","","","","html-keyboard-response","9","65993","0.0-9.0","7rnr2tkrfe","","7rnr2tkrfe","""2024-11-13T15:39:55.859Z""","null","+","null","","","","","","",""
"","","","","","html-keyboard-response","10","66495","0.0-10.0-0.0-0.0","7rnr2tkrfe","","7rnr2tkrfe","""2024-11-13T15:39:55.859Z""","null","+","null","","","","","","",""
"","","","","","image-keyboard-response","11","68594","0.0-10.0-0.0-1.0","7rnr2tkrfe","","7rnr2tkrfe","""2024-11-13T15:39:55.859Z""","2091","materials/imgs/D53.png","arrowleft","","[""materials/imgs/D22.png"",""materials/imgs/D106.png""]","false","random","","",""
"","","","","","html-keyboard-response","12","69096","0.0-10.0-0.0-0.1","7rnr2tkrfe","","7rnr2tkrfe","""2024-11-13T15:39:55.859Z""","null","+","null","","","","","","",""
"","","","","","image-keyboard-response","13","71815","0.0-10.0-0.0-1.1","7rnr2tkrfe","","7rnr2tkrfe","""2024-11-13T15:39:55.859Z""","2715","materials/imgs/D68.png","arrowleft","","[""materials/imgs/D1.png"",""materials/imgs/D74.png""]","false","random","","",""
"","","","","","html-keyboard-response","14","72316","0.0-10.0-0.0-0.2","7rnr2tkrfe","","7rnr2tkrfe","""2024-11-13T15:39:55.859Z""","null","+","null","","","","","","",""
"","","","","","image-keyboard-response","15","75624","0.0-10.0-0.0-1.2","7rnr2tkrfe","","7rnr2tkrfe","""2024-11-13T15:39:55.859Z""","3305","materials/imgs/D94.png","arrowleft","","[""materials/imgs/D35.png"",""materials/imgs/D111.png""]","false","random","","",""
"","","","","","html-keyboard-response","16","76126","0.0-10.0-0.0-0.3","7rnr2tkrfe","","7rnr2tkrfe","""2024-11-13T15:39:55.859Z""","null","+","null","","","","","","",""
"","","","","","image-keyboard-response","17","76994","0.0-10.0-0.0-1.3","7rnr2tkrfe","","7rnr2tkrfe","""2024-11-13T15:39:55.859Z""","865","materials/imgs/D56.png","arrowright","","[""materials/imgs/D82.png"",""materials/imgs/D65.png""]","false","random","","",""
"","","","","","html-keyboard-response","18","77496","0.0-10.0-0.0-0.4","7rnr2tkrfe","","7rnr2tkrfe","""2024-11-13T15:39:55.859Z""","null","+","null","","","","","","",""
"","","","","","image-keyboard-response","19","78668","0.0-10.0-0.0-1.4","7rnr2tkrfe","","7rnr2tkrfe","""2024-11-13T15:39:55.859Z""","1169","materials/imgs/D65.png","arrowleft","","[""materials/imgs/D18.png"",""materials/imgs/D9.png""]","false","random","","",""
"","","","","","html-keyboard-response","20","79170","0.0-10.0-0.0-0.5","7rnr2tkrfe","","7rnr2tkrfe","""2024-11-13T15:39:55.859Z""","null","+","null","","","","","","",""
"","","","","","image-keyboard-response","21","80611","0.0-10.0-0.0-1.5","7rnr2tkrfe","","7rnr2tkrfe","""2024-11-13T15:39:55.859Z""","1439","materials/imgs/D74.png","arrowright","","[""materials/imgs/D79.png"",""materials/imgs/D81.png""]","false","random","","",""
"","","","","","html-keyboard-response","22","81113","0.0-10.0-0.0-0.6","7rnr2tkrfe","","7rnr2tkrfe","""2024-11-13T15:39:55.859Z""","null","+","null","","","","","","",""
"","","","","","image-keyboard-response","23","82498","0.0-10.0-0.0-1.6","7rnr2tkrfe","","7rnr2tkrfe","""2024-11-13T15:39:55.859Z""","1382","materials/imgs/D80.png","arrowleft","","[""materials/imgs/D18.png"",""materials/imgs/D106.png""]","false","random","","",""
"","","","","","html-keyboard-response","24","82999","0.0-10.0-0.0-0.7","7rnr2tkrfe","","7rnr2tkrfe","""2024-11-13T15:39:55.859Z""","null","+","null","","","","","","",""
"","","","","","image-keyboard-response","25","84935","0.0-10.0-0.0-1.7","7rnr2tkrfe","","7rnr2tkrfe","""2024-11-13T15:39:55.859Z""","1933","materials/imgs/D20.png","arrowleft","","[""materials/imgs/D6.png"",""materials/imgs/D104.png""]","false","random","","",""
"","","","","","html-keyboard-response","26","85436","0.0-10.0-0.0-0.8","7rnr2tkrfe","","7rnr2tkrfe","""2024-11-13T15:39:55.859Z""","null","+","null","","","","","","",""
"","","","","","image-keyboard-response","27","87232","0.0-10.0-0.0-1.8","7rnr2tkrfe","","7rnr2tkrfe","""2024-11-13T15:39:55.859Z""","1793","materials/imgs/D8.png","arrowright","","[""materials/imgs/D18.png"",""materials/imgs/D46.png""]","false","random","","",""
"","","","","","html-keyboard-response","28","87733","0.0-10.0-0.0-0.9","7rnr2tkrfe","","7rnr2tkrfe","""2024-11-13T15:39:55.859Z""","null","+","null","","","","","","",""
"","","","","","image-keyboard-response","29","88829","0.0-10.0-0.0-1.9","7rnr2tkrfe","","7rnr2tkrfe","""2024-11-13T15:39:55.859Z""","1093","materials/imgs/D26.png","arrowleft","","[""materials/imgs/D103.png"",""materials/imgs/D29.png""]","false","random","","",""
"","","","","","html-button-response","30","93599","0.0-11.0","7rnr2tkrfe","","7rnr2tkrfe","""2024-11-13T15:39:55.859Z""","4769","<p>Great job!</p>
      <p>You are now ready to begin the experiment.</p>
      <p>There will be around 200 trials. You will have opportunities to take breaks at three stages of the trials.</p>
      <p>When you are ready to begin please click 'Continue'.</p>","0","","","","","","",""
"","","","","","html-keyboard-response","31","96103","0.0-12.0","7rnr2tkrfe","","7rnr2tkrfe","""2024-11-13T15:39:55.859Z""","null","+","null","","","","","","",""
"","","","","","html-keyboard-response","32","96605","0.0-13.0-0.0-0.0","7rnr2tkrfe","","7rnr2tkrfe","""2024-11-13T15:39:55.859Z""","null","+","null","","","","","","",""
"","","","","","image-keyboard-response","33","99297","0.0-13.0-0.0-1.0","7rnr2tkrfe","","7rnr2tkrfe","""2024-11-13T15:39:55.859Z""","2689","materials/imgs/D103.png","arrowleft","","[""materials/imgs/D47.png"",""materials/imgs/D85.png""]","false","random","","",""
"","","","","","html-keyboard-response","34","99800","0.0-13.0-0.0-0.1","7rnr2tkrfe","","7rnr2tkrfe","""2024-11-13T15:39:55.859Z""","null","+","null","","","","","","",""
"","","","","","image-keyboard-response","35","100464","0.0-13.0-0.0-1.1","7rnr2tkrfe","","7rnr2tkrfe","""2024-11-13T15:39:55.859Z""","662","materials/imgs/D56.png","arrowleft","","[""materials/imgs/D8.png"",""materials/imgs/D16.png""]","false","random","","",""
"","","","","","html-keyboard-response","36","100965","0.0-13.0-0.0-0.2","7rnr2tkrfe","","7rnr2tkrfe","""2024-11-13T15:39:55.859Z""","null","+","null","","","","","","",""
"","","","","","image-keyboard-response","37","102059","0.0-13.0-0.0-1.2","7rnr2tkrfe","","7rnr2tkrfe","""2024-11-13T15:39:55.859Z""","1091","materials/imgs/D95.png","arrowleft","","[""materials/imgs/D103.png"",""materials/imgs/D83.png""]","false","random","","",""
"","","","","","html-keyboard-response","38","102560","0.0-13.0-0.0-0.3","7rnr2tkrfe","","7rnr2tkrfe","""2024-11-13T15:39:55.859Z""","null","+","null","","","","","","",""
"","","","","","image-keyboard-response","39","103545","0.0-13.0-0.0-1.3","7rnr2tkrfe","","7rnr2tkrfe","""2024-11-13T15:39:55.859Z""","982","materials/imgs/D77.png","arrowright","","[""materials/imgs/D75.png"",""materials/imgs/D3.png""]","false","random","","",""
"","","","","","html-keyboard-response","40","104046","0.0-13.0-0.0-0.4","7rnr2tkrfe","","7rnr2tkrfe","""2024-11-13T15:39:55.859Z""","null","+","null","","","","","","",""
"","","","","","image-keyboard-response","41","104765","0.0-13.0-0.0-1.4","7rnr2tkrfe","","7rnr2tkrfe","""2024-11-13T15:39:55.859Z""","718","materials/imgs/D66.png","arrowright","","[""materials/imgs/D68.png"",""materials/imgs/D82.png""]","false","random","","",""
"","","","","","html-keyboard-response","42","105267","0.0-13.0-0.0-0.5","7rnr2tkrfe","","7rnr2tkrfe","""2024-11-13T15:39:55.859Z""","null","+","null","","","","","","",""
"","","","","","image-keyboard-response","43","106907","0.0-13.0-0.0-1.5","7rnr2tkrfe","","7rnr2tkrfe","""2024-11-13T15:39:55.859Z""","1637","materials/imgs/D20.png","arrowright","","[""materials/imgs/D76.png"",""materials/imgs/D11.png""]","false","random","","",""
"","","","","","html-keyboard-response","44","107408","0.0-13.0-0.0-0.6","7rnr2tkrfe","","7rnr2tkrfe","""2024-11-13T15:39:55.859Z""","null","+","null","","","","","","",""
"","","","","","image-keyboard-response","45","108566","0.0-13.0-0.0-1.6","7rnr2tkrfe","","7rnr2tkrfe","""2024-11-13T15:39:55.859Z""","1155","materials/imgs/D64.png","arrowleft","","[""materials/imgs/D6.png"",""materials/imgs/D16.png""]","false","random","","",""
"","","","","","html-keyboard-response","46","109067","0.0-13.0-1.0-0.0","7rnr2tkrfe","","7rnr2tkrfe","""2024-11-13T15:39:55.859Z""","null","+","null","","","","","","",""
"","","","","","image-keyboard-response","47","110015","0.0-13.0-1.0-1.0","7rnr2tkrfe","","7rnr2tkrfe","""2024-11-13T15:39:55.859Z""","945","materials/imgs/D18.png","arrowright","","[""materials/imgs/D8.png"",""materials/imgs/D18.png""]","","check","materials/imgs/D18.png","1","true"
"","","","","","html-keyboard-response","48","110517","0.0-13.0-2.0-0.0","7rnr2tkrfe","","7rnr2tkrfe","""2024-11-13T15:39:55.859Z""","null","+","null","","","","","","",""
"","","","","","image-keyboard-response","49","112902","0.0-13.0-2.0-1.0","7rnr2tkrfe","","7rnr2tkrfe","""2024-11-13T15:39:55.859Z""","2382","materials/imgs/D49.png","arrowright","","[""materials/imgs/D8.png"",""materials/imgs/D101.png""]","false","validation","","",""
"","","","","","html-keyboard-response","50","113404","0.0-13.0-2.0-0.1","7rnr2tkrfe","","7rnr2tkrfe","""2024-11-13T15:39:55.859Z""","null","+","null","","","","","","",""
"","","","","","image-keyboard-response","51","114398","0.0-13.0-2.0-1.1","7rnr2tkrfe","","7rnr2tkrfe","""2024-11-13T15:39:55.859Z""","993","materials/imgs/D111.png","arrowleft","","[""materials/imgs/D82.png"",""materials/imgs/D95.png""]","false","validation","","",""
"","","","","","html-keyboard-response","52","114900","0.0-13.0-0.1-0.7","7rnr2tkrfe","","7rnr2tkrfe","""2024-11-13T15:39:55.859Z""","null","+","null","","","","","","",""
"","","","","","image-keyboard-response","53","116196","0.0-13.0-0.1-1.7","7rnr2tkrfe","","7rnr2tkrfe","""2024-11-13T15:39:55.859Z""","1293","materials/imgs/D79.png","arrowleft","","[""materials/imgs/D51.png"",""materials/imgs/D34.png""]","false","random","","",""
"","","","","","html-keyboard-response","54","116699","0.0-13.0-0.1-0.8","7rnr2tkrfe","","7rnr2tkrfe","""2024-11-13T15:39:55.859Z""","null","+","null","","","","","","",""
"","","","","","image-keyboard-response","55","117575","0.0-13.0-0.1-1.8","7rnr2tkrfe","","7rnr2tkrfe","""2024-11-13T15:39:55.859Z""","875","materials/imgs/D104.png","arrowleft","","[""materials/imgs/D17.png"",""materials/imgs/D68.png""]","false","random","","",""
"","","","","","html-keyboard-response","56","118077","0.0-13.0-0.1-0.9","7rnr2tkrfe","","7rnr2tkrfe","""2024-11-13T15:39:55.859Z""","null","+","null","","","","","","",""
"","","","","","image-keyboard-response","57","119025","0.0-13.0-0.1-1.9","7rnr2tkrfe","","7rnr2tkrfe","""2024-11-13T15:39:55.859Z""","946","materials/imgs/D103.png","arrowright","","[""materials/imgs/D26.png"",""materials/imgs/D20.png""]","false","random","","",""
"","","","","","html-keyboard-response","58","119527","0.0-13.0-0.1-0.10","7rnr2tkrfe","","7rnr2tkrfe","""2024-11-13T15:39:55.859Z""","null","+","null","","","","","","",""
"","","","","","image-keyboard-response","59","120265","0.0-13.0-0.1-1.10","7rnr2tkrfe","","7rnr2tkrfe","""2024-11-13T15:39:55.859Z""","735","materials/imgs/D20.png","arrowright","","[""materials/imgs/D76.png"",""materials/imgs/D52.png""]","false","random","","",""
"","","","","","html-keyboard-response","60","120767","0.0-13.0-0.1-0.11","7rnr2tkrfe","","7rnr2tkrfe","""2024-11-13T15:39:55.859Z""","null","+","null","","","","","","",""
"","","","","","image-keyboard-response","61","123220","0.0-13.0-0.1-1.11","7rnr2tkrfe","","7rnr2tkrfe","""2024-11-13T15:39:55.859Z""","2450","materials/imgs/D17.png","arrowright","","[""materials/imgs/D34.png"",""materials/imgs/D8.png""]","false","random","","",""
"","","","","","html-keyboard-response","62","123722","0.0-13.0-0.1-0.12","7rnr2tkrfe","","7rnr2tkrfe","""2024-11-13T15:39:55.859Z""","null","+","null","","","","","","",""
"","","","","","image-keyboard-response","63","124926","0.0-13.0-0.1-1.12","7rnr2tkrfe","","7rnr2tkrfe","""2024-11-13T15:39:55.859Z""","1202","materials/imgs/D46.png","arrowleft","","[""materials/imgs/D65.png"",""materials/imgs/D18.png""]","false","random","","",""
"","","","","","html-keyboard-response","64","125428","0.0-13.0-0.1-0.13","7rnr2tkrfe","","7rnr2tkrfe","""2024-11-13T15:39:55.859Z""","null","+","null","","","","","","",""
"","","","","","image-keyboard-response","65","128922","0.0-13.0-0.1-1.13","7rnr2tkrfe","","7rnr2tkrfe","""2024-11-13T15:39:55.859Z""","3491","materials/imgs/D75.png","arrowleft","","[""materials/imgs/D14.png"",""materials/imgs/D53.png""]","false","random","","",""
"","","","","","html-keyboard-response","66","129422","0.0-13.0-1.1-0.1","7rnr2tkrfe","","7rnr2tkrfe","""2024-11-13T15:39:55.859Z""","null","+","null","","","","","","",""
"","","","","","image-keyboard-response","67","130462","0.0-13.0-1.1-1.1","7rnr2tkrfe","","7rnr2tkrfe","""2024-11-13T15:39:55.859Z""","1038","materials/imgs/D76.png","arrowleft","","[""materials/imgs/D76.png"",""materials/imgs/D78.png""]","","check","materials/imgs/D76.png","0","true"
"","","","","","html-keyboard-response","68","130963","0.0-13.0-2.1-0.2","7rnr2tkrfe","","7rnr2tkrfe","""2024-11-13T15:39:55.859Z""","null","+","null","","","","","","",""
"","","","","","image-keyboard-response","69","133555","0.0-13.0-2.1-1.2","7rnr2tkrfe","","7rnr2tkrfe","""2024-11-13T15:39:55.859Z""","2590","materials/imgs/D36.png","arrowleft","","[""materials/imgs/D47.png"",""materials/imgs/D49.png""]","false","validation","","",""
"","","","","","html-keyboard-response","70","134056","0.0-13.0-2.1-0.3","7rnr2tkrfe","","7rnr2tkrfe","""2024-11-13T15:39:55.859Z""","null","+","null","","","","","","",""
"","","","","","image-keyboard-response","71","135499","0.0-13.0-2.1-1.3","7rnr2tkrfe","","7rnr2tkrfe","""2024-11-13T15:39:55.859Z""","1441","materials/imgs/D47.png","arrowright","","[""materials/imgs/D1.png"",""materials/imgs/D52.png""]","false","validation","","",""
"","","","","","html-keyboard-response","72","136001","0.0-13.0-0.2-0.14","7rnr2tkrfe","","7rnr2tkrfe","""2024-11-13T15:39:55.859Z""","null","+","null","","","","","","",""
"","","","","","image-keyboard-response","73","137700","0.0-13.0-0.2-1.14","7rnr2tkrfe","","7rnr2tkrfe","""2024-11-13T15:39:55.859Z""","1696","materials/imgs/D79.png","arrowright","","[""materials/imgs/D24.png"",""materials/imgs/D85.png""]","false","random","","",""
"","","","","","html-keyboard-response","74","138201","0.0-13.0-0.2-0.15","7rnr2tkrfe","","7rnr2tkrfe","""2024-11-13T15:39:55.859Z""","null","+","null","","","","","","",""
"","","","","","image-keyboard-response","75","139055","0.0-13.0-0.2-1.15","7rnr2tkrfe","","7rnr2tkrfe","""2024-11-13T15:39:55.859Z""","851","materials/imgs/D17.png","arrowleft","","[""materials/imgs/D53.png"",""materials/imgs/D96.png""]","false","random","","",""
"","","","","","html-keyboard-response","76","139557","0.0-13.0-0.2-0.16","7rnr2tkrfe","","7rnr2tkrfe","""2024-11-13T15:39:55.859Z""","null","+","null","","","","","","",""
"","","","","","image-keyboard-response","77","143874","0.0-13.0-0.2-1.16","7rnr2tkrfe","","7rnr2tkrfe","""2024-11-13T15:39:55.859Z""","4314","materials/imgs/D36.png","arrowright","","[""materials/imgs/D106.png"",""materials/imgs/D29.png""]","false","random","","",""
"","","","","","html-keyboard-response","78","144375","0.0-13.0-0.2-0.17","7rnr2tkrfe","","7rnr2tkrfe","""2024-11-13T15:39:55.859Z""","null","+","null","","","","","","",""
"","","","","","image-keyboard-response","79","145006","0.0-13.0-0.2-1.17","7rnr2tkrfe","","7rnr2tkrfe","""2024-11-13T15:39:55.859Z""","628","materials/imgs/D3.png","arrowright","","[""materials/imgs/D26.png"",""materials/imgs/D36.png""]","false","random","","",""
"","","","","","html-keyboard-response","80","145508","0.0-13.0-0.2-0.18","7rnr2tkrfe","","7rnr2tkrfe","""2024-11-13T15:39:55.859Z""","null","+","null","","","","","","",""
"","","","","","image-keyboard-response","81","164510","0.0-13.0-0.2-1.18","7rnr2tkrfe","","7rnr2tkrfe","""2024-11-13T15:39:55.859Z""","19000","materials/imgs/D101.png","arrowleft","","[""materials/imgs/D111.png"",""materials/imgs/D68.png""]","false","random","","",""
"","","","","","html-keyboard-response","82","165012","0.0-13.0-0.2-0.19","7rnr2tkrfe","","7rnr2tkrfe","""2024-11-13T15:39:55.859Z""","null","+","null","","","","","","",""
"","","","","","image-keyboard-response","83","165766","0.0-13.0-0.2-1.19","7rnr2tkrfe","","7rnr2tkrfe","""2024-11-13T15:39:55.859Z""","752","materials/imgs/D8.png","arrowright","","[""materials/imgs/D49.png"",""materials/imgs/D80.png""]","false","random","","",""
"","","","","","html-keyboard-response","84","166268","0.0-13.0-0.2-0.20","7rnr2tkrfe","","7rnr2tkrfe","""2024-11-13T15:39:55.859Z""","null","+","null","","","","","","",""
"","","","","","image-keyboard-response","85","168133","0.0-13.0-0.2-1.20","7rnr2tkrfe","","7rnr2tkrfe","""2024-11-13T15:39:55.859Z""","1862","materials/imgs/D85.png","arrowleft","","[""materials/imgs/D24.png"",""materials/imgs/D22.png""]","false","random","","",""
"","","","","","html-keyboard-response","86","168634","0.0-13.0-1.2-0.2","7rnr2tkrfe","","7rnr2tkrfe","""2024-11-13T15:39:55.859Z""","null","+","null","","","","","","",""
"","","","","","image-keyboard-response","87","169338","0.0-13.0-1.2-1.2","7rnr2tkrfe","","7rnr2tkrfe","""2024-11-13T15:39:55.859Z""","702","materials/imgs/D46.png","arrowleft","","[""materials/imgs/D46.png"",""materials/imgs/D26.png""]","","check","materials/imgs/D46.png","0","true"
"","","","","","html-keyboard-response","88","169839","0.0-13.0-2.2-0.4","7rnr2tkrfe","","7rnr2tkrfe","""2024-11-13T15:39:55.859Z""","null","+","null","","","","","","",""
"","","","","","image-keyboard-response","89","170697","0.0-13.0-2.2-1.4","7rnr2tkrfe","","7rnr2tkrfe","""2024-11-13T15:39:55.859Z""","856","materials/imgs/D19.png","arrowleft","","[""materials/imgs/D111.png"",""materials/imgs/D56.png""]","false","validation","","",""
"","","","","","html-keyboard-response","90","171199","0.0-13.0-2.2-0.5","7rnr2tkrfe","","7rnr2tkrfe","""2024-11-13T15:39:55.859Z""","null","+","null","","","","","","",""
"","","","","","image-keyboard-response","91","173182","0.0-13.0-2.2-1.5","7rnr2tkrfe","","7rnr2tkrfe","""2024-11-13T15:39:55.859Z""","1981","materials/imgs/D77.png","arrowright","","[""materials/imgs/D102.png"",""materials/imgs/D65.png""]","false","validation","","",""
"","","","","","html-keyboard-response","92","173683","0.0-13.0-0.3-0.21","7rnr2tkrfe","","7rnr2tkrfe","""2024-11-13T15:39:55.859Z""","null","+","null","","","","","","",""
"","","","","","image-keyboard-response","93","175071","0.0-13.0-0.3-1.21","7rnr2tkrfe","","7rnr2tkrfe","""2024-11-13T15:39:55.859Z""","1385","materials/imgs/D103.png","arrowright","","[""materials/imgs/D84.png"",""materials/imgs/D53.png""]","false","random","","",""
"","","","","","html-keyboard-response","94","175573","0.0-13.0-0.3-0.22","7rnr2tkrfe","","7rnr2tkrfe","""2024-11-13T15:39:55.859Z""","null","+","null","","","","","","",""
"","","","","","image-keyboard-response","95","187917","0.0-13.0-0.3-1.22","7rnr2tkrfe","","7rnr2tkrfe","""2024-11-13T15:39:55.859Z""","12341","materials/imgs/D24.png","arrowleft","","[""materials/imgs/D55.png"",""materials/imgs/D37.png""]","false","random","","",""
"","","","","","html-keyboard-response","96","188418","0.0-13.0-0.3-0.23","7rnr2tkrfe","","7rnr2tkrfe","""2024-11-13T15:39:55.859Z""","null","+","null","","","","","","",""
"","","","","","image-keyboard-response","97","189998","0.0-13.0-0.3-1.23","7rnr2tkrfe","","7rnr2tkrfe","""2024-11-13T15:39:55.859Z""","1578","materials/imgs/D34.png","arrowleft","","[""materials/imgs/D77.png"",""materials/imgs/D24.png""]","false","random","","",""
"","","","","","html-keyboard-response","98","190500","0.0-13.0-0.3-0.24","7rnr2tkrfe","","7rnr2tkrfe","""2024-11-13T15:39:55.859Z""","null","+","null","","","","","","",""
"","","","","","image-keyboard-response","99","192534","0.0-13.0-0.3-1.24","7rnr2tkrfe","","7rnr2tkrfe","""2024-11-13T15:39:55.859Z""","2032","materials/imgs/D16.png","arrowleft","","[""materials/imgs/D80.png"",""materials/imgs/D36.png""]","false","random","","",""
"","","","","","html-keyboard-response","100","193036","0.0-13.0-0.3-0.25","7rnr2tkrfe","","7rnr2tkrfe","""2024-11-13T15:39:55.859Z""","null","+","null","","","","","","",""
"","","","","","image-keyboard-response","101","193723","0.0-13.0-0.3-1.25","7rnr2tkrfe","","7rnr2tkrfe","""2024-11-13T15:39:55.859Z""","684","materials/imgs/D94.png","arrowright","","[""materials/imgs/D3.png"",""materials/imgs/D64.png""]","false","random","","",""
"","","","","","html-keyboard-response","102","194224","0.0-13.0-0.3-0.26","7rnr2tkrfe","","7rnr2tkrfe","""2024-11-13T15:39:55.859Z""","null","+","null","","","","","","",""
"","","","","","image-keyboard-response","103","194975","0.0-13.0-0.3-1.26","7rnr2tkrfe","","7rnr2tkrfe","""2024-11-13T15:39:55.859Z""","749","materials/imgs/D57.png","arrowleft","","[""materials/imgs/D78.png"",""materials/imgs/D34.png""]","false","random","","",""
"","","","","","html-keyboard-response","104","195476","0.0-13.0-0.3-0.27","7rnr2tkrfe","","7rnr2tkrfe","""2024-11-13T15:39:55.859Z""","null","+","null","","","","","","",""
"","","","","","image-keyboard-response","105","196832","0.0-13.0-0.3-1.27","7rnr2tkrfe","","7rnr2tkrfe","""2024-11-13T15:39:55.859Z""","1353","materials/imgs/D34.png","arrowleft","","[""materials/imgs/D80.png"",""materials/imgs/D8.png""]","false","random","","",""
"","","","","","html-keyboard-response","106","197333","0.0-13.0-1.3-0.3","7rnr2tkrfe","","7rnr2tkrfe","""2024-11-13T15:39:55.859Z""","null","+","null","","","","","","",""
"","","","","","image-keyboard-response","107","197872","0.0-13.0-1.3-1.3","7rnr2tkrfe","","7rnr2tkrfe","""2024-11-13T15:39:55.859Z""","536","materials/imgs/D76.png","arrowleft","","[""materials/imgs/D76.png"",""materials/imgs/D78.png""]","","check","materials/imgs/D76.png","0","true"
"","","","","","html-keyboard-response","108","198373","0.0-13.0-2.3-0.6","7rnr2tkrfe","","7rnr2tkrfe","""2024-11-13T15:39:55.859Z""","null","+","null","","","","","","",""
"","","","","","image-keyboard-response","109","199853","0.0-13.0-2.3-1.6","7rnr2tkrfe","","7rnr2tkrfe","""2024-11-13T15:39:55.859Z""","1477","materials/imgs/D46.png","arrowleft","","[""materials/imgs/D92.png"",""materials/imgs/D77.png""]","false","validation","","",""
"","","","","","html-keyboard-response","110","200354","0.0-13.0-2.3-0.7","7rnr2tkrfe","","7rnr2tkrfe","""2024-11-13T15:39:55.859Z""","null","+","null","","","","","","",""
"","","","","","image-keyboard-response","111","202081","0.0-13.0-2.3-1.7","7rnr2tkrfe","","7rnr2tkrfe","""2024-11-13T15:39:55.859Z""","1725","materials/imgs/D48.png","arrowleft","","[""materials/imgs/D4.png"",""materials/imgs/D37.png""]","false","validation","","",""
"","","","","","html-keyboard-response","112","202582","0.0-13.0-0.4-0.28","7rnr2tkrfe","","7rnr2tkrfe","""2024-11-13T15:39:55.859Z""","null","+","null","","","","","","",""
"","","","","","image-keyboard-response","113","205215","0.0-13.0-0.4-1.28","7rnr2tkrfe","","7rnr2tkrfe","""2024-11-13T15:39:55.859Z""","2631","materials/imgs/D51.png","arrowleft","","[""materials/imgs/D75.png"",""materials/imgs/D29.png""]","false","random","","",""
"","","","","","html-keyboard-response","114","205717","0.0-13.0-0.4-0.29","7rnr2tkrfe","","7rnr2tkrfe","""2024-11-13T15:39:55.859Z""","null","+","null","","","","","","",""
"","","","","","image-keyboard-response","115","206441","0.0-13.0-0.4-1.29","7rnr2tkrfe","","7rnr2tkrfe","""2024-11-13T15:39:55.859Z""","722","materials/imgs/D64.png","arrowleft","","[""materials/imgs/D18.png"",""materials/imgs/D103.png""]","false","random","","",""
"","","","","","html-keyboard-response","116","206942","0.0-13.0-0.4-0.30","7rnr2tkrfe","","7rnr2tkrfe","""2024-11-13T15:39:55.859Z""","null","+","null","","","","","","",""
"","","","","","image-keyboard-response","117","207801","0.0-13.0-0.4-1.30","7rnr2tkrfe","","7rnr2tkrfe","""2024-11-13T15:39:55.859Z""","856","materials/imgs/D106.png","arrowright","","[""materials/imgs/D57.png"",""materials/imgs/D55.png""]","false","random","","",""
"","","","","","html-keyboard-response","118","208302","0.0-13.0-0.4-0.31","7rnr2tkrfe","","7rnr2tkrfe","""2024-11-13T15:39:55.859Z""","null","+","null","","","","","","",""
"","","","","","image-keyboard-response","119","210306","0.0-13.0-0.4-1.31","7rnr2tkrfe","","7rnr2tkrfe","""2024-11-13T15:39:55.859Z""","2002","materials/imgs/D49.png","arrowleft","","[""materials/imgs/D3.png"",""materials/imgs/D35.png""]","false","random","","",""
"","","","","","html-keyboard-response","120","210807","0.0-13.0-0.4-0.32","7rnr2tkrfe","","7rnr2tkrfe","""2024-11-13T15:39:55.859Z""","null","+","null","","","","","","",""
"","","","","","image-keyboard-response","121","211830","0.0-13.0-0.4-1.32","7rnr2tkrfe","","7rnr2tkrfe","""2024-11-13T15:39:55.859Z""","1020","materials/imgs/D74.png","arrowright","","[""materials/imgs/D106.png"",""materials/imgs/D36.png""]","false","random","","",""
"","","","","","html-keyboard-response","122","212331","0.0-13.0-0.4-0.33","7rnr2tkrfe","","7rnr2tkrfe","""2024-11-13T15:39:55.859Z""","null","+","null","","","","","","",""
"","","","","","image-keyboard-response","123","213719","0.0-13.0-0.4-1.33","7rnr2tkrfe","","7rnr2tkrfe","""2024-11-13T15:39:55.859Z""","1386","materials/imgs/D68.png","arrowright","","[""materials/imgs/D37.png"",""materials/imgs/D14.png""]","false","random","","",""
"","","","","","html-keyboard-response","124","214220","0.0-13.0-0.4-0.34","7rnr2tkrfe","","7rnr2tkrfe","""2024-11-13T15:39:55.859Z""","null","+","null","","","","","","",""
"","","","","","image-keyboard-response","125","215273","0.0-13.0-0.4-1.34","7rnr2tkrfe","","7rnr2tkrfe","""2024-11-13T15:39:55.859Z""","1050","materials/imgs/D37.png","arrowright","","[""materials/imgs/D46.png"",""materials/imgs/D111.png""]","false","random","","",""
"","","","","","html-keyboard-response","126","215774","0.0-13.0-1.4-0.4","7rnr2tkrfe","","7rnr2tkrfe","""2024-11-13T15:39:55.859Z""","null","+","null","","","","","","",""
"","","","","","image-keyboard-response","127","216310","0.0-13.0-1.4-1.4","7rnr2tkrfe","","7rnr2tkrfe","""2024-11-13T15:39:55.859Z""","534","materials/imgs/D8.png","arrowright","","[""materials/imgs/D18.png"",""materials/imgs/D8.png""]","","check","materials/imgs/D8.png","1","true"
"","","","","","html-keyboard-response","128","216811","0.0-13.0-2.4-0.8","7rnr2tkrfe","","7rnr2tkrfe","""2024-11-13T15:39:55.859Z""","null","+","null","","","","","","",""
"","","","","","image-keyboard-response","129","217477","0.0-13.0-2.4-1.8","7rnr2tkrfe","","7rnr2tkrfe","""2024-11-13T15:39:55.859Z""","663","materials/imgs/D105.png","arrowleft","","[""materials/imgs/D106.png"",""materials/imgs/D52.png""]","false","validation","","",""
"","","","","","html-keyboard-response","130","217979","0.0-13.0-2.4-0.9","7rnr2tkrfe","","7rnr2tkrfe","""2024-11-13T15:39:55.859Z""","null","+","null","","","","","","",""
"","","","","","image-keyboard-response","131","220522","0.0-13.0-2.4-1.9","7rnr2tkrfe","","7rnr2tkrfe","""2024-11-13T15:39:55.859Z""","2541","materials/imgs/D16.png","arrowleft","","[""materials/imgs/D52.png"",""materials/imgs/D25.png""]","false","validation","","",""
"","","","","","html-button-response","132","222829","0.0-14.0","7rnr2tkrfe","","7rnr2tkrfe","""2024-11-13T15:39:55.859Z""","2305","You have completed 25% of the trials. Please click 'Continue' when you are ready proceed.","0","","","","","","",""
"","","","","","html-keyboard-response","133","223332","0.0-15.0-0.0-0.0","7rnr2tkrfe","","7rnr2tkrfe","""2024-11-13T15:39:55.859Z""","null","+","null","","","","","","",""
"","","","","","image-keyboard-response","134","225799","0.0-15.0-0.0-1.0","7rnr2tkrfe","","7rnr2tkrfe","""2024-11-13T15:39:55.859Z""","2465","materials/imgs/D106.png","arrowleft","","[""materials/imgs/D4.png"",""materials/imgs/D111.png""]","false","random","","",""
"","","","","","html-keyboard-response","135","226300","0.0-15.0-0.0-0.1","7rnr2tkrfe","","7rnr2tkrfe","""2024-11-13T15:39:55.859Z""","null","+","null","","","","","","",""
"","","","","","image-keyboard-response","136","228923","0.0-15.0-0.0-1.1","7rnr2tkrfe","","7rnr2tkrfe","""2024-11-13T15:39:55.859Z""","2620","materials/imgs/D3.png","arrowleft","","[""materials/imgs/D29.png"",""materials/imgs/D20.png""]","false","random","","",""
"","","","","","html-keyboard-response","137","229424","0.0-15.0-0.0-0.2","7rnr2tkrfe","","7rnr2tkrfe","""2024-11-13T15:39:55.859Z""","null","+","null","","","","","","",""
"","","","","","image-keyboard-response","138","230360","0.0-15.0-0.0-1.2","7rnr2tkrfe","","7rnr2tkrfe","""2024-11-13T15:39:55.859Z""","924","materials/imgs/D11.png","arrowright","","[""materials/imgs/D32.png"",""materials/imgs/D3.png""]","false","random","","",""
"","","","","","html-keyboard-response","139","230861","0.0-15.0-0.0-0.3","7rnr2tkrfe","","7rnr2tkrfe","""2024-11-13T15:39:55.859Z""","null","+","null","","","","","","",""
"","","","","","image-keyboard-response","140","232490","0.0-15.0-0.0-1.3","7rnr2tkrfe","","7rnr2tkrfe","""2024-11-13T15:39:55.859Z""","1626","materials/imgs/D52.png","arrowright","","[""materials/imgs/D104.png"",""materials/imgs/D17.png""]","false","random","","",""
"","","","","","html-keyboard-response","141","232991","0.0-15.0-0.0-0.4","7rnr2tkrfe","","7rnr2tkrfe","""2024-11-13T15:39:55.859Z""","null","+","null","","","","","","",""
"","","","","","image-keyboard-response","142","233588","0.0-15.0-0.0-1.4","7rnr2tkrfe","","7rnr2tkrfe","""2024-11-13T15:39:55.859Z""","595","materials/imgs/D101.png","arrowleft","","[""materials/imgs/D35.png"",""materials/imgs/D37.png""]","false","random","","",""
"","","","","","html-keyboard-response","143","234090","0.0-15.0-0.0-0.5","7rnr2tkrfe","","7rnr2tkrfe","""2024-11-13T15:39:55.859Z""","null","+","null","","","","","","",""
"","","","","","image-keyboard-response","144","234898","0.0-15.0-0.0-1.5","7rnr2tkrfe","","7rnr2tkrfe","""2024-11-13T15:39:55.859Z""","806","materials/imgs/D64.png","arrowright","","[""materials/imgs/D4.png"",""materials/imgs/D55.png""]","false","random","","",""
"","","","","","html-keyboard-response","145","235400","0.0-15.0-0.0-0.6","7rnr2tkrfe","","7rnr2tkrfe","""2024-11-13T15:39:55.859Z""","null","+","null","","","","","","",""
"","","","","","image-keyboard-response","146","236057","0.0-15.0-0.0-1.6","7rnr2tkrfe","","7rnr2tkrfe","""2024-11-13T15:39:55.859Z""","654","materials/imgs/D26.png","arrowright","","[""materials/imgs/D9.png"",""materials/imgs/D94.png""]","false","random","","",""
"","","","","","html-keyboard-response","147","236558","0.0-15.0-1.0-0.0","7rnr2tkrfe","","7rnr2tkrfe","""2024-11-13T15:39:55.859Z""","null","+","null","","","","","","",""
"","","","","","image-keyboard-response","148","237168","0.0-15.0-1.0-1.0","7rnr2tkrfe","","7rnr2tkrfe","""2024-11-13T15:39:55.859Z""","608","materials/imgs/D26.png","arrowleft","","[""materials/imgs/D26.png"",""materials/imgs/D46.png""]","","check","materials/imgs/D26.png","0","true"
"","","","","","html-keyboard-response","149","237669","0.0-15.0-2.0-0.0","7rnr2tkrfe","","7rnr2tkrfe","""2024-11-13T15:39:55.859Z""","null","+","null","","","","","","",""
"","","","","","image-keyboard-response","150","239744","0.0-15.0-2.0-1.0","7rnr2tkrfe","","7rnr2tkrfe","""2024-11-13T15:39:55.859Z""","2073","materials/imgs/D35.png","arrowright","","[""materials/imgs/D83.png"",""materials/imgs/D24.png""]","false","validation","","",""
"","","","","","html-keyboard-response","151","240246","0.0-15.0-2.0-0.1","7rnr2tkrfe","","7rnr2tkrfe","""2024-11-13T15:39:55.859Z""","null","+","null","","","","","","",""
"","","","","","image-keyboard-response","152","251153","0.0-15.0-2.0-1.1","7rnr2tkrfe","","7rnr2tkrfe","""2024-11-13T15:39:55.859Z""","10906","materials/imgs/D20.png","arrowright","","[""materials/imgs/D84.png"",""materials/imgs/D85.png""]","false","validation","","",""
"","","","","","html-keyboard-response","153","251655","0.0-15.0-0.1-0.7","7rnr2tkrfe","","7rnr2tkrfe","""2024-11-13T15:39:55.859Z""","null","+","null","","","","","","",""
"","","","","","image-keyboard-response","154","252407","0.0-15.0-0.1-1.7","7rnr2tkrfe","","7rnr2tkrfe","""2024-11-13T15:39:55.859Z""","749","materials/imgs/D57.png","arrowright","","[""materials/imgs/D95.png"",""materials/imgs/D6.png""]","false","random","","",""
"","","","","","html-keyboard-response","155","252909","0.0-15.0-0.1-0.8","7rnr2tkrfe","","7rnr2tkrfe","""2024-11-13T15:39:55.859Z""","null","+","null","","","","","","",""
"","","","","","image-keyboard-response","156","253946","0.0-15.0-0.1-1.8","7rnr2tkrfe","","7rnr2tkrfe","""2024-11-13T15:39:55.859Z""","1035","materials/imgs/D96.png","arrowright","","[""materials/imgs/D47.png"",""materials/imgs/D1.png""]","false","random","","",""
"","","","","","html-keyboard-response","157","254447","0.0-15.0-0.1-0.9","7rnr2tkrfe","","7rnr2tkrfe","""2024-11-13T15:39:55.859Z""","null","+","null","","","","","","",""
"","","","","","image-keyboard-response","158","256174","0.0-15.0-0.1-1.9","7rnr2tkrfe","","7rnr2tkrfe","""2024-11-13T15:39:55.859Z""","1725","materials/imgs/D78.png","arrowright","","[""materials/imgs/D74.png"",""materials/imgs/D87.png""]","false","random","","",""
"","","","","","html-keyboard-response","159","256676","0.0-15.0-0.1-0.10","7rnr2tkrfe","","7rnr2tkrfe","""2024-11-13T15:39:55.859Z""","null","+","null","","","","","","",""
"","","","","","image-keyboard-response","160","258354","0.0-15.0-0.1-1.10","7rnr2tkrfe","","7rnr2tkrfe","""2024-11-13T15:39:55.859Z""","1676","materials/imgs/D85.png","arrowleft","","[""materials/imgs/D37.png"",""materials/imgs/D48.png""]","false","random","","",""
"","","","","","html-keyboard-response","161","258856","0.0-15.0-0.1-0.11","7rnr2tkrfe","","7rnr2tkrfe","""2024-11-13T15:39:55.859Z""","null","+","null","","","","","","",""
"","","","","","image-keyboard-response","162","265935","0.0-15.0-0.1-1.11","7rnr2tkrfe","","7rnr2tkrfe","""2024-11-13T15:39:55.859Z""","7077","materials/imgs/D37.png","arrowright","","[""materials/imgs/D79.png"",""materials/imgs/D101.png""]","false","random","","",""
"","","","","","html-keyboard-response","163","266437","0.0-15.0-0.1-0.12","7rnr2tkrfe","","7rnr2tkrfe","""2024-11-13T15:39:55.859Z""","null","+","null","","","","","","",""
"","","","","","image-keyboard-response","164","290369","0.0-15.0-0.1-1.12","7rnr2tkrfe","","7rnr2tkrfe","""2024-11-13T15:39:55.859Z""","23930","materials/imgs/D11.png","arrowleft","","[""materials/imgs/D4.png"",""materials/imgs/D8.png""]","false","random","","",""
"","","","","","html-keyboard-response","165","290871","0.0-15.0-0.1-0.13","7rnr2tkrfe","","7rnr2tkrfe","""2024-11-13T15:39:55.859Z""","null","+","null","","","","","","",""
"","","","","","image-keyboard-response","166","293124","0.0-15.0-0.1-1.13","7rnr2tkrfe","","7rnr2tkrfe","""2024-11-13T15:39:55.859Z""","2250","materials/imgs/D96.png","arrowright","","[""materials/imgs/D34.png"",""materials/imgs/D65.png""]","false","random","","",""
"","","","","","html-keyboard-response","167","293626","0.0-15.0-1.1-0.1","7rnr2tkrfe","","7rnr2tkrfe","""2024-11-13T15:39:55.859Z""","null","+","null","","","","","","",""
"","","","","","image-keyboard-response","168","294316","0.0-15.0-1.1-1.1","7rnr2tkrfe","","7rnr2tkrfe","""2024-11-13T15:39:55.859Z""","688","materials/imgs/D8.png","arrowright","","[""materials/imgs/D18.png"",""materials/imgs/D8.png""]","","check","materials/imgs/D8.png","1","true"
"","","","","","html-keyboard-response","169","294816","0.0-15.0-2.1-0.2","7rnr2tkrfe","","7rnr2tkrfe","""2024-11-13T15:39:55.859Z""","null","+","null","","","","","","",""
"","","","","","image-keyboard-response","170","296187","0.0-15.0-2.1-1.2","7rnr2tkrfe","","7rnr2tkrfe","""2024-11-13T15:39:55.859Z""","1368","materials/imgs/D49.png","arrowright","","[""materials/imgs/D8.png"",""materials/imgs/D101.png""]","false","validation","","",""
"","","","","","html-keyboard-response","171","296688","0.0-15.0-2.1-0.3","7rnr2tkrfe","","7rnr2tkrfe","""2024-11-13T15:39:55.859Z""","null","+","null","","","","","","",""
"","","","","","image-keyboard-response","172","298398","0.0-15.0-2.1-1.3","7rnr2tkrfe","","7rnr2tkrfe","""2024-11-13T15:39:55.859Z""","1708","materials/imgs/D82.png","arrowright","","[""materials/imgs/D83.png"",""materials/imgs/D22.png""]","false","validation","","",""
"","","","","","html-keyboard-response","173","298899","0.0-15.0-0.2-0.14","7rnr2tkrfe","","7rnr2tkrfe","""2024-11-13T15:39:55.859Z""","null","+","null","","","","","","",""
"","","","","","image-keyboard-response","174","299840","0.0-15.0-0.2-1.14","7rnr2tkrfe","","7rnr2tkrfe","""2024-11-13T15:39:55.859Z""","939","materials/imgs/D22.png","arrowleft","","[""materials/imgs/D55.png"",""materials/imgs/D64.png""]","false","random","","",""
"","","","","","html-keyboard-response","175","300341","0.0-15.0-0.2-0.15","7rnr2tkrfe","","7rnr2tkrfe","""2024-11-13T15:39:55.859Z""","null","+","null","","","","","","",""
"","","","","","image-keyboard-response","176","301990","0.0-15.0-0.2-1.15","7rnr2tkrfe","","7rnr2tkrfe","""2024-11-13T15:39:55.859Z""","1646","materials/imgs/D92.png","arrowleft","","[""materials/imgs/D82.png"",""materials/imgs/D75.png""]","false","random","","",""
"","","","","","html-keyboard-response","177","302491","0.0-15.0-0.2-0.16","7rnr2tkrfe","","7rnr2tkrfe","""2024-11-13T15:39:55.859Z""","null","+","null","","","","","","",""
"","","","","","image-keyboard-response","178","303841","0.0-15.0-0.2-1.16","7rnr2tkrfe","","7rnr2tkrfe","""2024-11-13T15:39:55.859Z""","1347","materials/imgs/D8.png","arrowleft","","[""materials/imgs/D47.png"",""materials/imgs/D49.png""]","false","random","","",""
"","","","","","html-keyboard-response","179","304343","0.0-15.0-0.2-0.17","7rnr2tkrfe","","7rnr2tkrfe","""2024-11-13T15:39:55.859Z""","null","+","null","","","","","","",""
"","","","","","image-keyboard-response","180","306122","0.0-15.0-0.2-1.17","7rnr2tkrfe","","7rnr2tkrfe","""2024-11-13T15:39:55.859Z""","1777","materials/imgs/D92.png","arrowright","","[""materials/imgs/D56.png"",""materials/imgs/D57.png""]","false","random","","",""
"","","","","","html-keyboard-response","181","306623","0.0-15.0-0.2-0.18","7rnr2tkrfe","","7rnr2tkrfe","""2024-11-13T15:39:55.859Z""","null","+","null","","","","","","",""
"","","","","","image-keyboard-response","182","307335","0.0-15.0-0.2-1.18","7rnr2tkrfe","","7rnr2tkrfe","""2024-11-13T15:39:55.859Z""","710","materials/imgs/D16.png","arrowleft","","[""materials/imgs/D53.png"",""materials/imgs/D51.png""]","false","random","","",""
"","","","","","html-keyboard-response","183","307836","0.0-15.0-0.2-0.19","7rnr2tkrfe","","7rnr2tkrfe","""2024-11-13T15:39:55.859Z""","null","+","null","","","","","","",""
"","","","","","image-keyboard-response","184","309006","0.0-15.0-0.2-1.19","7rnr2tkrfe","","7rnr2tkrfe","""2024-11-13T15:39:55.859Z""","1168","materials/imgs/D111.png","arrowright","","[""materials/imgs/D83.png"",""materials/imgs/D75.png""]","false","random","","",""
"","","","","","html-keyboard-response","185","309507","0.0-15.0-0.2-0.20","7rnr2tkrfe","","7rnr2tkrfe","""2024-11-13T15:39:55.859Z""","null","+","null","","","","","","",""
"","","","","","image-keyboard-response","186","310563","0.0-15.0-0.2-1.20","7rnr2tkrfe","","7rnr2tkrfe","""2024-11-13T15:39:55.859Z""","1054","materials/imgs/D32.png","arrowright","","[""materials/imgs/D49.png"",""materials/imgs/D103.png""]","false","random","","",""
"","","","","","html-keyboard-response","187","311064","0.0-15.0-1.2-0.2","7rnr2tkrfe","","7rnr2tkrfe","""2024-11-13T15:39:55.859Z""","null","+","null","","","","","","",""
"","","","","","image-keyboard-response","188","311701","0.0-15.0-1.2-1.2","7rnr2tkrfe","","7rnr2tkrfe","""2024-11-13T15:39:55.859Z""","635","materials/imgs/D8.png","arrowright","","[""materials/imgs/D18.png"",""materials/imgs/D8.png""]","","check","materials/imgs/D8.png","1","true"
"","","","","","html-keyboard-response","189","312201","0.0-15.0-2.2-0.4","7rnr2tkrfe","","7rnr2tkrfe","""2024-11-13T15:39:55.859Z""","null","+","null","","","","","","",""
"","","","","","image-keyboard-response","190","313489","0.0-15.0-2.2-1.4","7rnr2tkrfe","","7rnr2tkrfe","""2024-11-13T15:39:55.859Z""","1286","materials/imgs/D75.png","arrowleft","","[""materials/imgs/D96.png"",""materials/imgs/D4.png""]","false","validation","","",""
"","","","","","html-keyboard-response","191","313990","0.0-15.0-2.2-0.5","7rnr2tkrfe","","7rnr2tkrfe","""2024-11-13T15:39:55.859Z""","null","+","null","","","","","","",""
"","","","","","image-keyboard-response","192","314505","0.0-15.0-2.2-1.5","7rnr2tkrfe","","7rnr2tkrfe","""2024-11-13T15:39:55.859Z""","512","materials/imgs/D57.png","arrowright","","[""materials/imgs/D111.png"",""materials/imgs/D4.png""]","false","validation","","",""
"","","","","","html-keyboard-response","193","315006","0.0-15.0-0.3-0.21","7rnr2tkrfe","","7rnr2tkrfe","""2024-11-13T15:39:55.859Z""","null","+","null","","","","","","",""
"","","","","","image-keyboard-response","194","315624","0.0-15.0-0.3-1.21","7rnr2tkrfe","","7rnr2tkrfe","""2024-11-13T15:39:55.859Z""","616","materials/imgs/D77.png","arrowleft","","[""materials/imgs/D17.png"",""materials/imgs/D87.png""]","false","random","","",""
"","","","","","html-keyboard-response","195","316126","0.0-15.0-0.3-0.22","7rnr2tkrfe","","7rnr2tkrfe","""2024-11-13T15:39:55.859Z""","null","+","null","","","","","","",""
"","","","","","image-keyboard-response","196","317683","0.0-15.0-0.3-1.22","7rnr2tkrfe","","7rnr2tkrfe","""2024-11-13T15:39:55.859Z""","1555","materials/imgs/D95.png","arrowright","","[""materials/imgs/D75.png"",""materials/imgs/D78.png""]","false","random","","",""
"","","","","","html-keyboard-response","197","318184","0.0-15.0-0.3-0.23","7rnr2tkrfe","","7rnr2tkrfe","""2024-11-13T15:39:55.859Z""","null","+","null","","","","","","",""
"","","","","","image-keyboard-response","198","318816","0.0-15.0-0.3-1.23","7rnr2tkrfe","","7rnr2tkrfe","""2024-11-13T15:39:55.859Z""","629","materials/imgs/D68.png","arrowleft","","[""materials/imgs/D3.png"",""materials/imgs/D75.png""]","false","random","","",""
"","","","","","html-keyboard-response","199","319317","0.0-15.0-0.3-0.24","7rnr2tkrfe","","7rnr2tkrfe","""2024-11-13T15:39:55.859Z""","null","+","null","","","","","","",""
"","","","","","image-keyboard-response","200","319908","0.0-15.0-0.3-1.24","7rnr2tkrfe","","7rnr2tkrfe","""2024-11-13T15:39:55.859Z""","589","materials/imgs/D94.png","arrowright","","[""materials/imgs/D29.png"",""materials/imgs/D96.png""]","false","random","","",""
"","","","","","html-keyboard-response","201","320409","0.0-15.0-0.3-0.25","7rnr2tkrfe","","7rnr2tkrfe","""2024-11-13T15:39:55.859Z""","null","+","null","","","","","","",""
"","","","","","image-keyboard-response","202","322061","0.0-15.0-0.3-1.25","7rnr2tkrfe","","7rnr2tkrfe","""2024-11-13T15:39:55.859Z""","1651","materials/imgs/D48.png","arrowright","","[""materials/imgs/D106.png"",""materials/imgs/D83.png""]","false","random","","",""
"","","","","","html-keyboard-response","203","322562","0.0-15.0-0.3-0.26","7rnr2tkrfe","","7rnr2tkrfe","""2024-11-13T15:39:55.859Z""","null","+","null","","","","","","",""
"","","","","","image-keyboard-response","204","323918","0.0-15.0-0.3-1.26","7rnr2tkrfe","","7rnr2tkrfe","""2024-11-13T15:39:55.859Z""","1354","materials/imgs/D20.png","arrowright","","[""materials/imgs/D75.png"",""materials/imgs/D81.png""]","false","random","","",""
"","","","","","html-keyboard-response","205","324420","0.0-15.0-0.3-0.27","7rnr2tkrfe","","7rnr2tkrfe","""2024-11-13T15:39:55.859Z""","null","+","null","","","","","","",""
"","","","","","image-keyboard-response","206","326788","0.0-15.0-0.3-1.27","7rnr2tkrfe","","7rnr2tkrfe","""2024-11-13T15:39:55.859Z""","2367","materials/imgs/D19.png","arrowleft","","[""materials/imgs/D106.png"",""materials/imgs/D37.png""]","false","random","","",""
"","","","","","html-keyboard-response","207","327289","0.0-15.0-1.3-0.3","7rnr2tkrfe","","7rnr2tkrfe","""2024-11-13T15:39:55.859Z""","null","+","null","","","","","","",""
"","","","","","image-keyboard-response","208","327847","0.0-15.0-1.3-1.3","7rnr2tkrfe","","7rnr2tkrfe","""2024-11-13T15:39:55.859Z""","556","materials/imgs/D76.png","arrowleft","","[""materials/imgs/D76.png"",""materials/imgs/D78.png""]","","check","materials/imgs/D76.png","0","true"
"","","","","","html-keyboard-response","209","328348","0.0-15.0-2.3-0.6","7rnr2tkrfe","","7rnr2tkrfe","""2024-11-13T15:39:55.859Z""","null","+","null","","","","","","",""
"","","","","","image-keyboard-response","210","329908","0.0-15.0-2.3-1.6","7rnr2tkrfe","","7rnr2tkrfe","""2024-11-13T15:39:55.859Z""","1558","materials/imgs/D103.png","arrowleft","","[""materials/imgs/D76.png"",""materials/imgs/D106.png""]","false","validation","","",""
"","","","","","html-keyboard-response","211","330410","0.0-15.0-2.3-0.7","7rnr2tkrfe","","7rnr2tkrfe","""2024-11-13T15:39:55.859Z""","null","+","null","","","","","","",""
"","","","","","image-keyboard-response","212","331561","0.0-15.0-2.3-1.7","7rnr2tkrfe","","7rnr2tkrfe","""2024-11-13T15:39:55.859Z""","1149","materials/imgs/D79.png","arrowleft","","[""materials/imgs/D51.png"",""materials/imgs/D64.png""]","false","validation","","",""
"","","","","","html-keyboard-response","213","332062","0.0-15.0-0.4-0.28","7rnr2tkrfe","","7rnr2tkrfe","""2024-11-13T15:39:55.859Z""","null","+","null","","","","","","",""
"","","","","","image-keyboard-response","214","332983","0.0-15.0-0.4-1.28","7rnr2tkrfe","","7rnr2tkrfe","""2024-11-13T15:39:55.859Z""","919","materials/imgs/D82.png","arrowright","","[""materials/imgs/D37.png"",""materials/imgs/D81.png""]","false","random","","",""
"","","","","","html-keyboard-response","215","333484","0.0-15.0-0.4-0.29","7rnr2tkrfe","","7rnr2tkrfe","""2024-11-13T15:39:55.859Z""","null","+","null","","","","","","",""
"","","","","","image-keyboard-response","216","334804","0.0-15.0-0.4-1.29","7rnr2tkrfe","","7rnr2tkrfe","""2024-11-13T15:39:55.859Z""","1318","materials/imgs/D82.png","arrowleft","","[""materials/imgs/D17.png"",""materials/imgs/D83.png""]","false","random","","",""
"","","","","","html-keyboard-response","217","335306","0.0-15.0-0.4-0.30","7rnr2tkrfe","","7rnr2tkrfe","""2024-11-13T15:39:55.859Z""","null","+","null","","","","","","",""
"","","","","","image-keyboard-response","218","339174","0.0-15.0-0.4-1.30","7rnr2tkrfe","","7rnr2tkrfe","""2024-11-13T15:39:55.859Z""","3866","materials/imgs/D16.png","arrowleft","","[""materials/imgs/D103.png"",""materials/imgs/D51.png""]","false","random","","",""
"","","","","","html-keyboard-response","219","339676","0.0-15.0-0.4-0.31","7rnr2tkrfe","","7rnr2tkrfe","""2024-11-13T15:39:55.859Z""","null","+","null","","","","","","",""
"","","","","","image-keyboard-response","220","340990","0.0-15.0-0.4-1.31","7rnr2tkrfe","","7rnr2tkrfe","""2024-11-13T15:39:55.859Z""","1311","materials/imgs/D25.png","arrowright","","[""materials/imgs/D102.png"",""materials/imgs/D21.png""]","false","random","","",""
"","","","","","html-keyboard-response","221","341491","0.0-15.0-0.4-0.32","7rnr2tkrfe","","7rnr2tkrfe","""2024-11-13T15:39:55.859Z""","null","+","null","","","","","","",""
"","","","","","image-keyboard-response","222","342585","0.0-15.0-0.4-1.32","7rnr2tkrfe","","7rnr2tkrfe","""2024-11-13T15:39:55.859Z""","1091","materials/imgs/D19.png","arrowright","","[""materials/imgs/D95.png"",""materials/imgs/D20.png""]","false","random","","",""
"","","","","","html-keyboard-response","223","343086","0.0-15.0-0.4-0.33","7rnr2tkrfe","","7rnr2tkrfe","""2024-11-13T15:39:55.859Z""","null","+","null","","","","","","",""
"","","","","","image-keyboard-response","224","343753","0.0-15.0-0.4-1.33","7rnr2tkrfe","","7rnr2tkrfe","""2024-11-13T15:39:55.859Z""","664","materials/imgs/D95.png","arrowleft","","[""materials/imgs/D1.png"",""materials/imgs/D79.png""]","false","random","","",""
"","","","","","html-keyboard-response","225","344255","0.0-15.0-0.4-0.34","7rnr2tkrfe","","7rnr2tkrfe","""2024-11-13T15:39:55.859Z""","null","+","null","","","","","","",""
"","","","","","image-keyboard-response","226","345530","0.0-15.0-0.4-1.34","7rnr2tkrfe","","7rnr2tkrfe","""2024-11-13T15:39:55.859Z""","1273","materials/imgs/D11.png","arrowright","","[""materials/imgs/D34.png"",""materials/imgs/D21.png""]","false","random","","",""
"","","","","","html-keyboard-response","227","346032","0.0-15.0-1.4-0.4","7rnr2tkrfe","","7rnr2tkrfe","""2024-11-13T15:39:55.859Z""","null","+","null","","","","","","",""
"","","","","","image-keyboard-response","228","346636","0.0-15.0-1.4-1.4","7rnr2tkrfe","","7rnr2tkrfe","""2024-11-13T15:39:55.859Z""","602","materials/imgs/D64.png","arrowleft","","[""materials/imgs/D64.png"",""materials/imgs/D53.png""]","","check","materials/imgs/D64.png","0","true"
"","","","","","html-keyboard-response","229","347138","0.0-15.0-2.4-0.8","7rnr2tkrfe","","7rnr2tkrfe","""2024-11-13T15:39:55.859Z""","null","+","null","","","","","","",""
"","","","","","image-keyboard-response","230","349455","0.0-15.0-2.4-1.8","7rnr2tkrfe","","7rnr2tkrfe","""2024-11-13T15:39:55.859Z""","2315","materials/imgs/D52.png","arrowleft","","[""materials/imgs/D9.png"",""materials/imgs/D19.png""]","false","validation","","",""
"","","","","","html-keyboard-response","231","349956","0.0-15.0-2.4-0.9","7rnr2tkrfe","","7rnr2tkrfe","""2024-11-13T15:39:55.859Z""","null","+","null","","","","","","",""
"","","","","","image-keyboard-response","232","350546","0.0-15.0-2.4-1.9","7rnr2tkrfe","","7rnr2tkrfe","""2024-11-13T15:39:55.859Z""","588","materials/imgs/D9.png","arrowright","","[""materials/imgs/D103.png"",""materials/imgs/D4.png""]","false","validation","","",""
"","","","","","html-button-response","233","351935","0.0-16.0","7rnr2tkrfe","","7rnr2tkrfe","""2024-11-13T15:39:55.859Z""","1387","You have completed 50% of the trials. Please click 'Continue' when you are ready proceed.","0","","","","","","",""
"","","","","","html-keyboard-response","234","352436","0.0-17.0-0.0-0.0","7rnr2tkrfe","","7rnr2tkrfe","""2024-11-13T15:39:55.859Z""","null","+","null","","","","","","",""
"","","","","","image-keyboard-response","235","353148","0.0-17.0-0.0-1.0","7rnr2tkrfe","","7rnr2tkrfe","""2024-11-13T15:39:55.859Z""","710","materials/imgs/D66.png","arrowright","","[""materials/imgs/D77.png"",""materials/imgs/D9.png""]","false","random","","",""
"","","","","","html-keyboard-response","236","353650","0.0-17.0-0.0-0.1","7rnr2tkrfe","","7rnr2tkrfe","""2024-11-13T15:39:55.859Z""","null","+","null","","","","","","",""
"","","","","","image-keyboard-response","237","356687","0.0-17.0-0.0-1.1","7rnr2tkrfe","","7rnr2tkrfe","""2024-11-13T15:39:55.859Z""","3035","materials/imgs/D78.png","arrowright","","[""materials/imgs/D95.png"",""materials/imgs/D3.png""]","false","random","","",""
"","","","","","html-keyboard-response","238","357188","0.0-17.0-0.0-0.2","7rnr2tkrfe","","7rnr2tkrfe","""2024-11-13T15:39:55.859Z""","null","+","null","","","","","","",""
"","","","","","image-keyboard-response","239","358117","0.0-17.0-0.0-1.2","7rnr2tkrfe","","7rnr2tkrfe","""2024-11-13T15:39:55.859Z""","926","materials/imgs/D48.png","arrowright","","[""materials/imgs/D17.png"",""materials/imgs/D14.png""]","false","random","","",""
"","","","","","html-keyboard-response","240","358619","0.0-17.0-0.0-0.3","7rnr2tkrfe","","7rnr2tkrfe","""2024-11-13T15:39:55.859Z""","null","+","null","","","","","","",""
"","","","","","image-keyboard-response","241","359906","0.0-17.0-0.0-1.3","7rnr2tkrfe","","7rnr2tkrfe","""2024-11-13T15:39:55.859Z""","1284","materials/imgs/D96.png","arrowleft","","[""materials/imgs/D65.png"",""materials/imgs/D66.png""]","false","random","","",""
"","","","","","html-keyboard-response","242","360407","0.0-17.0-0.0-0.4","7rnr2tkrfe","","7rnr2tkrfe","""2024-11-13T15:39:55.859Z""","null","+","null","","","","","","",""
"","","","","","image-keyboard-response","243","361163","0.0-17.0-0.0-1.4","7rnr2tkrfe","","7rnr2tkrfe","""2024-11-13T15:39:55.859Z""","753","materials/imgs/D35.png","arrowleft","","[""materials/imgs/D95.png"",""materials/imgs/D48.png""]","false","random","","",""
"","","","","","html-keyboard-response","244","361664","0.0-17.0-0.0-0.5","7rnr2tkrfe","","7rnr2tkrfe","""2024-11-13T15:39:55.859Z""","null","+","null","","","","","","",""
"","","","","","image-keyboard-response","245","362386","0.0-17.0-0.0-1.5","7rnr2tkrfe","","7rnr2tkrfe","""2024-11-13T15:39:55.859Z""","720","materials/imgs/D84.png","arrowleft","","[""materials/imgs/D92.png"",""materials/imgs/D6.png""]","false","random","","",""
"","","","","","html-keyboard-response","246","362887","0.0-17.0-0.0-0.6","7rnr2tkrfe","","7rnr2tkrfe","""2024-11-13T15:39:55.859Z""","null","+","null","","","","","","",""
"","","","","","image-keyboard-response","247","363501","0.0-17.0-0.0-1.6","7rnr2tkrfe","","7rnr2tkrfe","""2024-11-13T15:39:55.859Z""","611","materials/imgs/D21.png","arrowright","","[""materials/imgs/D56.png"",""materials/imgs/D55.png""]","false","random","","",""
"","","","","","html-keyboard-response","248","364002","0.0-17.0-1.0-0.0","7rnr2tkrfe","","7rnr2tkrfe","""2024-11-13T15:39:55.859Z""","null","+","null","","","","","","",""
"","","","","","image-keyboard-response","249","364590","0.0-17.0-1.0-1.0","7rnr2tkrfe","","7rnr2tkrfe","""2024-11-13T15:39:55.859Z""","586","materials/imgs/D46.png","arrowleft","","[""materials/imgs/D46.png"",""materials/imgs/D26.png""]","","check","materials/imgs/D46.png","0","true"
"","","","","","html-keyboard-response","250","365092","0.0-17.0-2.0-0.0","7rnr2tkrfe","","7rnr2tkrfe","""2024-11-13T15:39:55.859Z""","null","+","null","","","","","","",""
"","","","","","image-keyboard-response","251","365754","0.0-17.0-2.0-1.0","7rnr2tkrfe","","7rnr2tkrfe","""2024-11-13T15:39:55.859Z""","659","materials/imgs/D82.png","arrowright","","[""materials/imgs/D83.png"",""materials/imgs/D22.png""]","false","validation","","",""
"","","","","","html-keyboard-response","252","366255","0.0-17.0-2.0-0.1","7rnr2tkrfe","","7rnr2tkrfe","""2024-11-13T15:39:55.859Z""","null","+","null","","","","","","",""
"","","","","","image-keyboard-response","253","368250","0.0-17.0-2.0-1.1","7rnr2tkrfe","","7rnr2tkrfe","""2024-11-13T15:39:55.859Z""","1992","materials/imgs/D77.png","arrowright","","[""materials/imgs/D102.png"",""materials/imgs/D65.png""]","false","validation","","",""
"","","","","","html-keyboard-response","254","368751","0.0-17.0-0.1-0.7","7rnr2tkrfe","","7rnr2tkrfe","""2024-11-13T15:39:55.859Z""","null","+","null","","","","","","",""
"","","","","","image-keyboard-response","255","374814","0.0-17.0-0.1-1.7","7rnr2tkrfe","","7rnr2tkrfe","""2024-11-13T15:39:55.859Z""","6060","materials/imgs/D18.png","arrowright","","[""materials/imgs/D101.png"",""materials/imgs/D17.png""]","false","random","","",""
"","","","","","html-keyboard-response","256","375315","0.0-17.0-0.1-0.8","7rnr2tkrfe","","7rnr2tkrfe","""2024-11-13T15:39:55.859Z""","null","+","null","","","","","","",""
"","","","","","image-keyboard-response","257","376454","0.0-17.0-0.1-1.8","7rnr2tkrfe","","7rnr2tkrfe","""2024-11-13T15:39:55.859Z""","1136","materials/imgs/D64.png","arrowright","","[""materials/imgs/D47.png"",""materials/imgs/D56.png""]","false","random","","",""
"","","","","","html-keyboard-response","258","376956","0.0-17.0-0.1-0.9","7rnr2tkrfe","","7rnr2tkrfe","""2024-11-13T15:39:55.859Z""","null","+","null","","","","","","",""
"","","","","","image-keyboard-response","259","378567","0.0-17.0-0.1-1.9","7rnr2tkrfe","","7rnr2tkrfe","""2024-11-13T15:39:55.859Z""","1608","materials/imgs/D32.png","arrowright","","[""materials/imgs/D34.png"",""materials/imgs/D52.png""]","false","random","","",""
"","","","","","html-keyboard-response","260","379068","0.0-17.0-0.1-0.10","7rnr2tkrfe","","7rnr2tkrfe","""2024-11-13T15:39:55.859Z""","null","+","null","","","","","","",""
"","","","","","image-keyboard-response","261","380230","0.0-17.0-0.1-1.10","7rnr2tkrfe","","7rnr2tkrfe","""2024-11-13T15:39:55.859Z""","1159","materials/imgs/D51.png","arrowright","","[""materials/imgs/D9.png"",""materials/imgs/D53.png""]","false","random","","",""
"","","","","","html-keyboard-response","262","380732","0.0-17.0-0.1-0.11","7rnr2tkrfe","","7rnr2tkrfe","""2024-11-13T15:39:55.859Z""","null","+","null","","","","","","",""
"","","","","","image-keyboard-response","263","381416","0.0-17.0-0.1-1.11","7rnr2tkrfe","","7rnr2tkrfe","""2024-11-13T15:39:55.859Z""","682","materials/imgs/D78.png","arrowright","","[""materials/imgs/D101.png"",""materials/imgs/D87.png""]","false","random","","",""
"","","","","","html-keyboard-response","264","381917","0.0-17.0-0.1-0.12","7rnr2tkrfe","","7rnr2tkrfe","""2024-11-13T15:39:55.859Z""","null","+","null","","","","","","",""
"","","","","","image-keyboard-response","265","383124","0.0-17.0-0.1-1.12","7rnr2tkrfe","","7rnr2tkrfe","""2024-11-13T15:39:55.859Z""","1204","materials/imgs/D37.png","arrowright","","[""materials/imgs/D47.png"",""materials/imgs/D65.png""]","false","random","","",""
"","","","","","html-keyboard-response","266","383626","0.0-17.0-0.1-0.13","7rnr2tkrfe","","7rnr2tkrfe","""2024-11-13T15:39:55.859Z""","null","+","null","","","","","","",""
"","","","","","image-keyboard-response","267","384322","0.0-17.0-0.1-1.13","7rnr2tkrfe","","7rnr2tkrfe","""2024-11-13T15:39:55.859Z""","694","materials/imgs/D106.png","arrowleft","","[""materials/imgs/D79.png"",""materials/imgs/D92.png""]","false","random","","",""
"","","","","","html-keyboard-response","268","384824","0.0-17.0-1.1-0.1","7rnr2tkrfe","","7rnr2tkrfe","""2024-11-13T15:39:55.859Z""","null","+","null","","","","","","",""
"","","","","","image-keyboard-response","269","385422","0.0-17.0-1.1-1.1","7rnr2tkrfe","","7rnr2tkrfe","""2024-11-13T15:39:55.859Z""","596","materials/imgs/D8.png","arrowright","","[""materials/imgs/D18.png"",""materials/imgs/D8.png""]","","check","materials/imgs/D8.png","1","true"
"","","","","","html-keyboard-response","270","385924","0.0-17.0-2.1-0.2","7rnr2tkrfe","","7rnr2tkrfe","""2024-11-13T15:39:55.859Z""","null","+","null","","","","","","",""
"","","","","","image-keyboard-response","271","387231","0.0-17.0-2.1-1.2","7rnr2tkrfe","","7rnr2tkrfe","""2024-11-13T15:39:55.859Z""","1305","materials/imgs/D47.png","arrowright","","[""materials/imgs/D1.png"",""materials/imgs/D52.png""]","false","validation","","",""
"","","","","","html-keyboard-response","272","387732","0.0-17.0-2.1-0.3","7rnr2tkrfe","","7rnr2tkrfe","""2024-11-13T15:39:55.859Z""","null","+","null","","","","","","",""
"","","","","","image-keyboard-response","273","388735","0.0-17.0-2.1-1.3","7rnr2tkrfe","","7rnr2tkrfe","""2024-11-13T15:39:55.859Z""","1002","materials/imgs/D48.png","arrowright","","[""materials/imgs/D4.png"",""materials/imgs/D37.png""]","false","validation","","",""
"","","","","","html-keyboard-response","274","389237","0.0-17.0-0.2-0.14","7rnr2tkrfe","","7rnr2tkrfe","""2024-11-13T15:39:55.859Z""","null","+","null","","","","","","",""
"","","","","","image-keyboard-response","275","390458","0.0-17.0-0.2-1.14","7rnr2tkrfe","","7rnr2tkrfe","""2024-11-13T15:39:55.859Z""","1219","materials/imgs/D29.png","arrowleft","","[""materials/imgs/D53.png"",""materials/imgs/D94.png""]","false","random","","",""
"","","","","","html-keyboard-response","276","390959","0.0-17.0-0.2-0.15","7rnr2tkrfe","","7rnr2tkrfe","""2024-11-13T15:39:55.859Z""","null","+","null","","","","","","",""
"","","","","","image-keyboard-response","277","391873","0.0-17.0-0.2-1.15","7rnr2tkrfe","","7rnr2tkrfe","""2024-11-13T15:39:55.859Z""","912","materials/imgs/D74.png","arrowleft","","[""materials/imgs/D6.png"",""materials/imgs/D37.png""]","false","random","","",""
"","","","","","html-keyboard-response","278","392375","0.0-17.0-0.2-0.16","7rnr2tkrfe","","7rnr2tkrfe","""2024-11-13T15:39:55.859Z""","null","+","null","","","","","","",""
"","","","","","image-keyboard-response","279","394442","0.0-17.0-0.2-1.16","7rnr2tkrfe","","7rnr2tkrfe","""2024-11-13T15:39:55.859Z""","2065","materials/imgs/D102.png","arrowright","","[""materials/imgs/D24.png"",""materials/imgs/D87.png""]","false","random","","",""
"","","","","","html-keyboard-response","280","394943","0.0-17.0-0.2-0.17","7rnr2tkrfe","","7rnr2tkrfe","""2024-11-13T15:39:55.859Z""","null","+","null","","","","","","",""
"","","","","","image-keyboard-response","281","396179","0.0-17.0-0.2-1.17","7rnr2tkrfe","","7rnr2tkrfe","""2024-11-13T15:39:55.859Z""","1233","materials/imgs/D51.png","arrowright","","[""materials/imgs/D95.png"",""materials/imgs/D18.png""]","false","random","","",""
"","","","","","html-keyboard-response","282","396681","0.0-17.0-0.2-0.18","7rnr2tkrfe","","7rnr2tkrfe","""2024-11-13T15:39:55.859Z""","null","+","null","","","","","","",""
"","","","","","image-keyboard-response","283","397647","0.0-17.0-0.2-1.18","7rnr2tkrfe","","7rnr2tkrfe","""2024-11-13T15:39:55.859Z""","964","materials/imgs/D1.png","arrowright","","[""materials/imgs/D9.png"",""materials/imgs/D47.png""]","false","random","","",""
"","","","","","html-keyboard-response","284","398148","0.0-17.0-0.2-0.19","7rnr2tkrfe","","7rnr2tkrfe","""2024-11-13T15:39:55.859Z""","null","+","null","","","","","","",""
"","","","","","image-keyboard-response","285","399537","0.0-17.0-0.2-1.19","7rnr2tkrfe","","7rnr2tkrfe","""2024-11-13T15:39:55.859Z""","1387","materials/imgs/D111.png","arrowleft","","[""materials/imgs/D84.png"",""materials/imgs/D57.png""]","false","random","","",""
"","","","","","html-keyboard-response","286","400039","0.0-17.0-0.2-0.20","7rnr2tkrfe","","7rnr2tkrfe","""2024-11-13T15:39:55.859Z""","null","+","null","","","","","","",""
"","","","","","image-keyboard-response","287","401255","0.0-17.0-0.2-1.20","7rnr2tkrfe","","7rnr2tkrfe","""2024-11-13T15:39:55.859Z""","1214","materials/imgs/D37.png","arrowleft","","[""materials/imgs/D92.png"",""materials/imgs/D9.png""]","false","random","","",""
"","","","","","html-keyboard-response","288","401756","0.0-17.0-1.2-0.2","7rnr2tkrfe","","7rnr2tkrfe","""2024-11-13T15:39:55.859Z""","null","+","null","","","","","","",""
"","","","","","image-keyboard-response","289","402325","0.0-17.0-1.2-1.2","7rnr2tkrfe","","7rnr2tkrfe","""2024-11-13T15:39:55.859Z""","567","materials/imgs/D64.png","arrowleft","","[""materials/imgs/D64.png"",""materials/imgs/D53.png""]","","check","materials/imgs/D64.png","0","true"
"","","","","","html-keyboard-response","290","402827","0.0-17.0-2.2-0.4","7rnr2tkrfe","","7rnr2tkrfe","""2024-11-13T15:39:55.859Z""","null","+","null","","","","","","",""
"","","","","","image-keyboard-response","291","412889","0.0-17.0-2.2-1.4","7rnr2tkrfe","","7rnr2tkrfe","""2024-11-13T15:39:55.859Z""","10060","materials/imgs/D66.png","arrowleft","","[""materials/imgs/D85.png"",""materials/imgs/D25.png""]","false","validation","","",""
"","","","","","html-keyboard-response","292","413390","0.0-17.0-2.2-0.5","7rnr2tkrfe","","7rnr2tkrfe","""2024-11-13T15:39:55.859Z""","null","+","null","","","","","","",""
"","","","","","image-keyboard-response","293","414261","0.0-17.0-2.2-1.5","7rnr2tkrfe","","7rnr2tkrfe","""2024-11-13T15:39:55.859Z""","869","materials/imgs/D1.png","arrowleft","","[""materials/imgs/D57.png"",""materials/imgs/D76.png""]","false","validation","","",""
"","","","","","html-keyboard-response","294","414763","0.0-17.0-0.3-0.21","7rnr2tkrfe","","7rnr2tkrfe","""2024-11-13T15:39:55.859Z""","null","+","null","","","","","","",""
"","","","","","image-keyboard-response","295","415797","0.0-17.0-0.3-1.21","7rnr2tkrfe","","7rnr2tkrfe","""2024-11-13T15:39:55.859Z""","1032","materials/imgs/D18.png","arrowleft","","[""materials/imgs/D16.png"",""materials/imgs/D79.png""]","false","random","","",""
"","","","","","html-keyboard-response","296","416298","0.0-17.0-0.3-0.22","7rnr2tkrfe","","7rnr2tkrfe","""2024-11-13T15:39:55.859Z""","null","+","null","","","","","","",""
"","","","","","image-keyboard-response","297","416745","0.0-17.0-0.3-1.22","7rnr2tkrfe","","7rnr2tkrfe","""2024-11-13T15:39:55.859Z""","445","materials/imgs/D24.png","arrowleft","","[""materials/imgs/D84.png"",""materials/imgs/D79.png""]","true","random","","",""
"","","","","","html-keyboard-response","298","420442","0.0-17.0-0.3-2.22-0.22","7rnr2tkrfe","","7rnr2tkrfe","""2024-11-13T15:39:55.859Z""","3695","<p><strong>You're going too fast.</strong><p>Please slow down and assess each triplet.<p>Press 'y' to continue.</p></p>","y","","","","","","",""
"","","","","","html-keyboard-response","299","420943","0.0-17.0-0.3-0.23","7rnr2tkrfe","","7rnr2tkrfe","""2024-11-13T15:39:55.859Z""","null","+","null","","","","","","",""
"","","","","","image-keyboard-response","300","422293","0.0-17.0-0.3-1.23","7rnr2tkrfe","","7rnr2tkrfe","""2024-11-13T15:39:55.859Z""","1348","materials/imgs/D74.png","arrowright","","[""materials/imgs/D49.png"",""materials/imgs/D111.png""]","false","random","","",""
"","","","","","html-keyboard-response","301","422795","0.0-17.0-0.3-0.24","7rnr2tkrfe","","7rnr2tkrfe","""2024-11-13T15:39:55.859Z""","null","+","null","","","","","","",""
"","","","","","image-keyboard-response","302","424037","0.0-17.0-0.3-1.24","7rnr2tkrfe","","7rnr2tkrfe","""2024-11-13T15:39:55.859Z""","1240","materials/imgs/D34.png","arrowright","","[""materials/imgs/D19.png"",""materials/imgs/D103.png""]","false","random","","",""
"","","","","","html-keyboard-response","303","424539","0.0-17.0-0.3-0.25","7rnr2tkrfe","","7rnr2tkrfe","""2024-11-13T15:39:55.859Z""","null","+","null","","","","","","",""
"","","","","","image-keyboard-response","304","426138","0.0-17.0-0.3-1.25","7rnr2tkrfe","","7rnr2tkrfe","""2024-11-13T15:39:55.859Z""","1596","materials/imgs/D79.png","arrowright","","[""materials/imgs/D20.png"",""materials/imgs/D84.png""]","false","random","","",""
"","","","","","html-keyboard-response","305","426638","0.0-17.0-0.3-0.26","7rnr2tkrfe","","7rnr2tkrfe","""2024-11-13T15:39:55.859Z""","null","+","null","","","","","","",""
"","","","","","image-keyboard-response","306","428331","0.0-17.0-0.3-1.26","7rnr2tkrfe","","7rnr2tkrfe","""2024-11-13T15:39:55.859Z""","1691","materials/imgs/D80.png","arrowright","","[""materials/imgs/D18.png"",""materials/imgs/D78.png""]","false","random","","",""
"","","","","","html-keyboard-response","307","428833","0.0-17.0-0.3-0.27","7rnr2tkrfe","","7rnr2tkrfe","""2024-11-13T15:39:55.859Z""","null","+","null","","","","","","",""
"","","","","","image-keyboard-response","308","430362","0.0-17.0-0.3-1.27","7rnr2tkrfe","","7rnr2tkrfe","""2024-11-13T15:39:55.859Z""","1527","materials/imgs/D76.png","arrowright","","[""materials/imgs/D52.png"",""materials/imgs/D18.png""]","false","random","","",""
"","","","","","html-keyboard-response","309","430863","0.0-17.0-1.3-0.3","7rnr2tkrfe","","7rnr2tkrfe","""2024-11-13T15:39:55.859Z""","null","+","null","","","","","","",""
"","","","","","image-keyboard-response","310","432189","0.0-17.0-1.3-1.3","7rnr2tkrfe","","7rnr2tkrfe","""2024-11-13T15:39:55.859Z""","1324","materials/imgs/D78.png","arrowright","","[""materials/imgs/D76.png"",""materials/imgs/D78.png""]","","check","materials/imgs/D78.png","1","true"
"","","","","","html-keyboard-response","311","432691","0.0-17.0-2.3-0.6","7rnr2tkrfe","","7rnr2tkrfe","""2024-11-13T15:39:55.859Z""","null","+","null","","","","","","",""
"","","","","","image-keyboard-response","312","434449","0.0-17.0-2.3-1.6","7rnr2tkrfe","","7rnr2tkrfe","""2024-11-13T15:39:55.859Z""","1756","materials/imgs/D24.png","arrowleft","","[""materials/imgs/D36.png"",""materials/imgs/D8.png""]","false","validation","","",""
"","","","","","html-keyboard-response","313","434950","0.0-17.0-2.3-0.7","7rnr2tkrfe","","7rnr2tkrfe","""2024-11-13T15:39:55.859Z""","null","+","null","","","","","","",""
"","","","","","image-keyboard-response","314","436602","0.0-17.0-2.3-1.7","7rnr2tkrfe","","7rnr2tkrfe","""2024-11-13T15:39:55.859Z""","1650","materials/imgs/D106.png","arrowright","","[""materials/imgs/D57.png"",""materials/imgs/D18.png""]","false","validation","","",""
"","","","","","html-keyboard-response","315","437103","0.0-17.0-0.4-0.28","7rnr2tkrfe","","7rnr2tkrfe","""2024-11-13T15:39:55.859Z""","null","+","null","","","","","","",""
"","","","","","image-keyboard-response","316","439664","0.0-17.0-0.4-1.28","7rnr2tkrfe","","7rnr2tkrfe","""2024-11-13T15:39:55.859Z""","2559","materials/imgs/D48.png","arrowleft","","[""materials/imgs/D18.png"",""materials/imgs/D94.png""]","false","random","","",""
"","","","","","html-keyboard-response","317","440166","0.0-17.0-0.4-0.29","7rnr2tkrfe","","7rnr2tkrfe","""2024-11-13T15:39:55.859Z""","null","+","null","","","","","","",""
"","","","","","image-keyboard-response","318","442036","0.0-17.0-0.4-1.29","7rnr2tkrfe","","7rnr2tkrfe","""2024-11-13T15:39:55.859Z""","1868","materials/imgs/D57.png","arrowleft","","[""materials/imgs/D82.png"",""materials/imgs/D35.png""]","false","random","","",""
"","","","","","html-keyboard-response","319","442538","0.0-17.0-0.4-0.30","7rnr2tkrfe","","7rnr2tkrfe","""2024-11-13T15:39:55.859Z""","null","+","null","","","","","","",""
"","","","","","image-keyboard-response","320","444191","0.0-17.0-0.4-1.30","7rnr2tkrfe","","7rnr2tkrfe","""2024-11-13T15:39:55.859Z""","1651","materials/imgs/D49.png","arrowright","","[""materials/imgs/D84.png"",""materials/imgs/D17.png""]","false","random","","",""
"","","","","","html-keyboard-response","321","444693","0.0-17.0-0.4-0.31","7rnr2tkrfe","","7rnr2tkrfe","""2024-11-13T15:39:55.859Z""","null","+","null","","","","","","",""
"","","","","","image-keyboard-response","322","445919","0.0-17.0-0.4-1.31","7rnr2tkrfe","","7rnr2tkrfe","""2024-11-13T15:39:55.859Z""","1223","materials/imgs/D36.png","arrowleft","","[""materials/imgs/D55.png"",""materials/imgs/D92.png""]","false","random","","",""
"","","","","","html-keyboard-response","323","446420","0.0-17.0-0.4-0.32","7rnr2tkrfe","","7rnr2tkrfe","""2024-11-13T15:39:55.859Z""","null","+","null","","","","","","",""
"","","","","","image-keyboard-response","324","447580","0.0-17.0-0.4-1.32","7rnr2tkrfe","","7rnr2tkrfe","""2024-11-13T15:39:55.859Z""","1158","materials/imgs/D57.png","arrowleft","","[""materials/imgs/D56.png"",""materials/imgs/D95.png""]","false","random","","",""
"","","","","","html-keyboard-response","325","448081","0.0-17.0-0.4-0.33","7rnr2tkrfe","","7rnr2tkrfe","""2024-11-13T15:39:55.859Z""","null","+","null","","","","","","",""
"","","","","","image-keyboard-response","326","449546","0.0-17.0-0.4-1.33","7rnr2tkrfe","","7rnr2tkrfe","""2024-11-13T15:39:55.859Z""","1462","materials/imgs/D106.png","arrowleft","","[""materials/imgs/D49.png"",""materials/imgs/D37.png""]","false","random","","",""
"","","","","","html-keyboard-response","327","450047","0.0-17.0-0.4-0.34","7rnr2tkrfe","","7rnr2tkrfe","""2024-11-13T15:39:55.859Z""","null","+","null","","","","","","",""
"","","","","","image-keyboard-response","328","450844","0.0-17.0-0.4-1.34","7rnr2tkrfe","","7rnr2tkrfe","""2024-11-13T15:39:55.859Z""","795","materials/imgs/D32.png","arrowright","","[""materials/imgs/D1.png"",""materials/imgs/D84.png""]","false","random","","",""
"","","","","","html-keyboard-response","329","451345","0.0-17.0-1.4-0.4","7rnr2tkrfe","","7rnr2tkrfe","""2024-11-13T15:39:55.859Z""","null","+","null","","","","","","",""
"","","","","","image-keyboard-response","330","452396","0.0-17.0-1.4-1.4","7rnr2tkrfe","","7rnr2tkrfe","""2024-11-13T15:39:55.859Z""","1049","materials/imgs/D101.png","arrowright","","[""materials/imgs/D106.png"",""materials/imgs/D101.png""]","","check","materials/imgs/D101.png","1","true"
"","","","","","html-keyboard-response","331","452898","0.0-17.0-2.4-0.8","7rnr2tkrfe","","7rnr2tkrfe","""2024-11-13T15:39:55.859Z""","null","+","null","","","","","","",""
"","","","","","image-keyboard-response","332","454250","0.0-17.0-2.4-1.8","7rnr2tkrfe","","7rnr2tkrfe","""2024-11-13T15:39:55.859Z""","1350","materials/imgs/D84.png","arrowright","","[""materials/imgs/D106.png"",""materials/imgs/D37.png""]","false","validation","","",""
"","","","","","html-keyboard-response","333","454751","0.0-17.0-2.4-0.9","7rnr2tkrfe","","7rnr2tkrfe","""2024-11-13T15:39:55.859Z""","null","+","null","","","","","","",""
"","","","","","image-keyboard-response","334","456598","0.0-17.0-2.4-1.9","7rnr2tkrfe","","7rnr2tkrfe","""2024-11-13T15:39:55.859Z""","1844","materials/imgs/D103.png","arrowright","","[""materials/imgs/D76.png"",""materials/imgs/D106.png""]","false","validation","","",""
"","","","","","html-button-response","335","457866","0.0-18.0","7rnr2tkrfe","","7rnr2tkrfe","""2024-11-13T15:39:55.859Z""","1266","You have completed 75% of the trials. Please click 'Continue' when you are ready proceed.","0","","","","","","",""
"","","","","","html-keyboard-response","336","458367","0.0-19.0-0.0-0.0","7rnr2tkrfe","","7rnr2tkrfe","""2024-11-13T15:39:55.859Z""","null","+","null","","","","","","",""
"","","","","","image-keyboard-response","337","460838","0.0-19.0-0.0-1.0","7rnr2tkrfe","","7rnr2tkrfe","""2024-11-13T15:39:55.859Z""","2468","materials/imgs/D102.png","arrowright","","[""materials/imgs/D17.png"",""materials/imgs/D46.png""]","false","random","","",""
"","","","","","html-keyboard-response","338","461339","0.0-19.0-0.0-0.1","7rnr2tkrfe","","7rnr2tkrfe","""2024-11-13T15:39:55.859Z""","null","+","null","","","","","","",""
"","","","","","image-keyboard-response","339","464279","0.0-19.0-0.0-1.1","7rnr2tkrfe","","7rnr2tkrfe","""2024-11-13T15:39:55.859Z""","2938","materials/imgs/D32.png","arrowleft","","[""materials/imgs/D6.png"",""materials/imgs/D36.png""]","false","random","","",""
"","","","","","html-keyboard-response","340","464781","0.0-19.0-0.0-0.2","7rnr2tkrfe","","7rnr2tkrfe","""2024-11-13T15:39:55.859Z""","null","+","null","","","","","","",""
"","","","","","image-keyboard-response","341","465636","0.0-19.0-0.0-1.2","7rnr2tkrfe","","7rnr2tkrfe","""2024-11-13T15:39:55.859Z""","853","materials/imgs/D53.png","arrowleft","","[""materials/imgs/D52.png"",""materials/imgs/D92.png""]","false","random","","",""
"","","","","","html-keyboard-response","342","466137","0.0-19.0-0.0-0.3","7rnr2tkrfe","","7rnr2tkrfe","""2024-11-13T15:39:55.859Z""","null","+","null","","","","","","",""
"","","","","","image-keyboard-response","343","467214","0.0-19.0-0.0-1.3","7rnr2tkrfe","","7rnr2tkrfe","""2024-11-13T15:39:55.859Z""","1074","materials/imgs/D8.png","arrowright","","[""materials/imgs/D104.png"",""materials/imgs/D34.png""]","false","random","","",""
"","","","","","html-keyboard-response","344","467716","0.0-19.0-0.0-0.4","7rnr2tkrfe","","7rnr2tkrfe","""2024-11-13T15:39:55.859Z""","null","+","null","","","","","","",""
"","","","","","image-keyboard-response","345","468377","0.0-19.0-0.0-1.4","7rnr2tkrfe","","7rnr2tkrfe","""2024-11-13T15:39:55.859Z""","659","materials/imgs/D95.png","arrowright","","[""materials/imgs/D16.png"",""materials/imgs/D94.png""]","false","random","","",""
"","","","","","html-keyboard-response","346","468878","0.0-19.0-0.0-0.5","7rnr2tkrfe","","7rnr2tkrfe","""2024-11-13T15:39:55.859Z""","null","+","null","","","","","","",""
"","","","","","image-keyboard-response","347","469992","0.0-19.0-0.0-1.5","7rnr2tkrfe","","7rnr2tkrfe","""2024-11-13T15:39:55.859Z""","1111","materials/imgs/D74.png","arrowright","","[""materials/imgs/D11.png"",""materials/imgs/D3.png""]","false","random","","",""
"","","","","","html-keyboard-response","348","470494","0.0-19.0-0.0-0.6","7rnr2tkrfe","","7rnr2tkrfe","""2024-11-13T15:39:55.859Z""","null","+","null","","","","","","",""
"","","","","","image-keyboard-response","349","473294","0.0-19.0-0.0-1.6","7rnr2tkrfe","","7rnr2tkrfe","""2024-11-13T15:39:55.859Z""","2797","materials/imgs/D106.png","arrowleft","","[""materials/imgs/D26.png"",""materials/imgs/D56.png""]","false","random","","",""
"","","","","","html-keyboard-response","350","473795","0.0-19.0-1.0-0.0","7rnr2tkrfe","","7rnr2tkrfe","""2024-11-13T15:39:55.859Z""","null","+","null","","","","","","",""
"","","","","","image-keyboard-response","351","474343","0.0-19.0-1.0-1.0","7rnr2tkrfe","","7rnr2tkrfe","""2024-11-13T15:39:55.859Z""","545","materials/imgs/D46.png","arrowleft","","[""materials/imgs/D46.png"",""materials/imgs/D26.png""]","","check","materials/imgs/D46.png","0","true"
"","","","","","html-keyboard-response","352","474844","0.0-19.0-2.0-0.0","7rnr2tkrfe","","7rnr2tkrfe","""2024-11-13T15:39:55.859Z""","null","+","null","","","","","","",""
"","","","","","image-keyboard-response","353","475615","0.0-19.0-2.0-1.0","7rnr2tkrfe","","7rnr2tkrfe","""2024-11-13T15:39:55.859Z""","768","materials/imgs/D51.png","arrowright","","[""materials/imgs/D92.png"",""materials/imgs/D20.png""]","false","validation","","",""
"","","","","","html-keyboard-response","354","476116","0.0-19.0-2.0-0.1","7rnr2tkrfe","","7rnr2tkrfe","""2024-11-13T15:39:55.859Z""","null","+","null","","","","","","",""
"","","","","","image-keyboard-response","355","477803","0.0-19.0-2.0-1.1","7rnr2tkrfe","","7rnr2tkrfe","""2024-11-13T15:39:55.859Z""","1685","materials/imgs/D4.png","arrowleft","","[""materials/imgs/D52.png"",""materials/imgs/D83.png""]","false","validation","","",""
"","","","","","html-keyboard-response","356","478305","0.0-19.0-0.1-0.7","7rnr2tkrfe","","7rnr2tkrfe","""2024-11-13T15:39:55.859Z""","null","+","null","","","","","","",""
"","","","","","image-keyboard-response","357","480108","0.0-19.0-0.1-1.7","7rnr2tkrfe","","7rnr2tkrfe","""2024-11-13T15:39:55.859Z""","1801","materials/imgs/D37.png","arrowright","","[""materials/imgs/D75.png"",""materials/imgs/D21.png""]","false","random","","",""
"","","","","","html-keyboard-response","358","480609","0.0-19.0-0.1-0.8","7rnr2tkrfe","","7rnr2tkrfe","""2024-11-13T15:39:55.859Z""","null","+","null","","","","","","",""
"","","","","","image-keyboard-response","359","481922","0.0-19.0-0.1-1.8","7rnr2tkrfe","","7rnr2tkrfe","""2024-11-13T15:39:55.859Z""","1311","materials/imgs/D111.png","arrowleft","","[""materials/imgs/D3.png"",""materials/imgs/D26.png""]","false","random","","",""
"","","","","","html-keyboard-response","360","482423","0.0-19.0-0.1-0.9","7rnr2tkrfe","","7rnr2tkrfe","""2024-11-13T15:39:55.859Z""","null","+","null","","","","","","",""
"","","","","","image-keyboard-response","361","484042","0.0-19.0-0.1-1.9","7rnr2tkrfe","","7rnr2tkrfe","""2024-11-13T15:39:55.859Z""","1617","materials/imgs/D36.png","arrowright","","[""materials/imgs/D101.png"",""materials/imgs/D8.png""]","false","random","","",""
"","","","","","html-keyboard-response","362","484543","0.0-19.0-0.1-0.10","7rnr2tkrfe","","7rnr2tkrfe","""2024-11-13T15:39:55.859Z""","null","+","null","","","","","","",""
"","","","","","image-keyboard-response","363","485862","0.0-19.0-0.1-1.10","7rnr2tkrfe","","7rnr2tkrfe","""2024-11-13T15:39:55.859Z""","1317","materials/imgs/D34.png","arrowleft","","[""materials/imgs/D55.png"",""materials/imgs/D20.png""]","false","random","","",""
"","","","","","html-keyboard-response","364","486364","0.0-19.0-0.1-0.11","7rnr2tkrfe","","7rnr2tkrfe","""2024-11-13T15:39:55.859Z""","null","+","null","","","","","","",""
"","","","","","image-keyboard-response","365","488784","0.0-19.0-0.1-1.11","7rnr2tkrfe","","7rnr2tkrfe","""2024-11-13T15:39:55.859Z""","2418","materials/imgs/D83.png","arrowleft","","[""materials/imgs/D24.png"",""materials/imgs/D4.png""]","false","random","","",""
"","","","","","html-keyboard-response","366","489285","0.0-19.0-0.1-0.12","7rnr2tkrfe","","7rnr2tkrfe","""2024-11-13T15:39:55.859Z""","null","+","null","","","","","","",""
"","","","","","image-keyboard-response","367","490415","0.0-19.0-0.1-1.12","7rnr2tkrfe","","7rnr2tkrfe","""2024-11-13T15:39:55.859Z""","1128","materials/imgs/D53.png","arrowleft","","[""materials/imgs/D82.png"",""materials/imgs/D51.png""]","false","random","","",""
"","","","","","html-keyboard-response","368","490917","0.0-19.0-0.1-0.13","7rnr2tkrfe","","7rnr2tkrfe","""2024-11-13T15:39:55.859Z""","null","+","null","","","","","","",""
"","","","","","image-keyboard-response","369","492020","0.0-19.0-0.1-1.13","7rnr2tkrfe","","7rnr2tkrfe","""2024-11-13T15:39:55.859Z""","1101","materials/imgs/D84.png","arrowleft","","[""materials/imgs/D4.png"",""materials/imgs/D47.png""]","false","random","","",""
"","","","","","html-keyboard-response","370","492521","0.0-19.0-1.1-0.1","7rnr2tkrfe","","7rnr2tkrfe","""2024-11-13T15:39:55.859Z""","null","+","null","","","","","","",""
"","","","","","image-keyboard-response","371","493125","0.0-19.0-1.1-1.1","7rnr2tkrfe","","7rnr2tkrfe","""2024-11-13T15:39:55.859Z""","604","materials/imgs/D53.png","arrowright","","[""materials/imgs/D64.png"",""materials/imgs/D53.png""]","","check","materials/imgs/D53.png","1","true"
"","","","","","html-keyboard-response","372","493627","0.0-19.0-2.1-0.2","7rnr2tkrfe","","7rnr2tkrfe","""2024-11-13T15:39:55.859Z""","null","+","null","","","","","","",""
"","","","","","image-keyboard-response","373","494576","0.0-19.0-2.1-1.2","7rnr2tkrfe","","7rnr2tkrfe","""2024-11-13T15:39:55.859Z""","947","materials/imgs/D83.png","arrowleft","","[""materials/imgs/D24.png"",""materials/imgs/D8.png""]","false","validation","","",""
"","","","","","html-keyboard-response","374","495078","0.0-19.0-2.1-0.3","7rnr2tkrfe","","7rnr2tkrfe","""2024-11-13T15:39:55.859Z""","null","+","null","","","","","","",""
"","","","","","image-keyboard-response","375","495937","0.0-19.0-2.1-1.3","7rnr2tkrfe","","7rnr2tkrfe","""2024-11-13T15:39:55.859Z""","857","materials/imgs/D92.png","arrowright","","[""materials/imgs/D56.png"",""materials/imgs/D77.png""]","false","validation","","",""
"","","","","","html-keyboard-response","376","496438","0.0-19.0-0.2-0.14","7rnr2tkrfe","","7rnr2tkrfe","""2024-11-13T15:39:55.859Z""","null","+","null","","","","","","",""
"","","","","","image-keyboard-response","377","498014","0.0-19.0-0.2-1.14","7rnr2tkrfe","","7rnr2tkrfe","""2024-11-13T15:39:55.859Z""","1574","materials/imgs/D94.png","arrowleft","","[""materials/imgs/D64.png"",""materials/imgs/D46.png""]","false","random","","",""
"","","","","","html-keyboard-response","378","498515","0.0-19.0-0.2-0.15","7rnr2tkrfe","","7rnr2tkrfe","""2024-11-13T15:39:55.859Z""","null","+","null","","","","","","",""
"","","","","","image-keyboard-response","379","499997","0.0-19.0-0.2-1.15","7rnr2tkrfe","","7rnr2tkrfe","""2024-11-13T15:39:55.859Z""","1480","materials/imgs/D26.png","arrowright","","[""materials/imgs/D32.png"",""materials/imgs/D49.png""]","false","random","","",""
"","","","","","html-keyboard-response","380","500499","0.0-19.0-0.2-0.16","7rnr2tkrfe","","7rnr2tkrfe","""2024-11-13T15:39:55.859Z""","null","+","null","","","","","","",""
"","","","","","image-keyboard-response","381","501327","0.0-19.0-0.2-1.16","7rnr2tkrfe","","7rnr2tkrfe","""2024-11-13T15:39:55.859Z""","826","materials/imgs/D55.png","arrowright","","[""materials/imgs/D64.png"",""materials/imgs/D29.png""]","false","random","","",""
"","","","","","html-keyboard-response","382","501828","0.0-19.0-0.2-0.17","7rnr2tkrfe","","7rnr2tkrfe","""2024-11-13T15:39:55.859Z""","null","+","null","","","","","","",""
"","","","","","image-keyboard-response","383","503509","0.0-19.0-0.2-1.17","7rnr2tkrfe","","7rnr2tkrfe","""2024-11-13T15:39:55.859Z""","1679","materials/imgs/D95.png","arrowleft","","[""materials/imgs/D76.png"",""materials/imgs/D111.png""]","false","random","","",""
"","","","","","html-keyboard-response","384","504011","0.0-19.0-0.2-0.18","7rnr2tkrfe","","7rnr2tkrfe","""2024-11-13T15:39:55.859Z""","null","+","null","","","","","","",""
"","","","","","image-keyboard-response","385","505076","0.0-19.0-0.2-1.18","7rnr2tkrfe","","7rnr2tkrfe","""2024-11-13T15:39:55.859Z""","1063","materials/imgs/D4.png","arrowright","","[""materials/imgs/D64.png"",""materials/imgs/D79.png""]","false","random","","",""
"","","","","","html-keyboard-response","386","505577","0.0-19.0-0.2-0.19","7rnr2tkrfe","","7rnr2tkrfe","""2024-11-13T15:39:55.859Z""","null","+","null","","","","","","",""
"","","","","","image-keyboard-response","387","507077","0.0-19.0-0.2-1.19","7rnr2tkrfe","","7rnr2tkrfe","""2024-11-13T15:39:55.859Z""","1498","materials/imgs/D75.png","arrowright","","[""materials/imgs/D49.png"",""materials/imgs/D34.png""]","false","random","","",""
"","","","","","html-keyboard-response","388","507578","0.0-19.0-0.2-0.20","7rnr2tkrfe","","7rnr2tkrfe","""2024-11-13T15:39:55.859Z""","null","+","null","","","","","","",""
"","","","","","image-keyboard-response","389","508719","0.0-19.0-0.2-1.20","7rnr2tkrfe","","7rnr2tkrfe","""2024-11-13T15:39:55.859Z""","1139","materials/imgs/D104.png","arrowright","","[""materials/imgs/D78.png"",""materials/imgs/D111.png""]","false","random","","",""
"","","","","","html-keyboard-response","390","509221","0.0-19.0-1.2-0.2","7rnr2tkrfe","","7rnr2tkrfe","""2024-11-13T15:39:55.859Z""","null","+","null","","","","","","",""
"","","","","","image-keyboard-response","391","509990","0.0-19.0-1.2-1.2","7rnr2tkrfe","","7rnr2tkrfe","""2024-11-13T15:39:55.859Z""","768","materials/imgs/D76.png","arrowleft","","[""materials/imgs/D76.png"",""materials/imgs/D78.png""]","","check","materials/imgs/D76.png","0","true"
"","","","","","html-keyboard-response","392","510492","0.0-19.0-2.2-0.4","7rnr2tkrfe","","7rnr2tkrfe","""2024-11-13T15:39:55.859Z""","null","+","null","","","","","","",""
"","","","","","image-keyboard-response","393","511753","0.0-19.0-2.2-1.4","7rnr2tkrfe","","7rnr2tkrfe","""2024-11-13T15:39:55.859Z""","1259","materials/imgs/D101.png","arrowright","","[""materials/imgs/D76.png"",""materials/imgs/D47.png""]","false","validation","","",""
"","","","","","html-keyboard-response","394","512255","0.0-19.0-2.2-0.5","7rnr2tkrfe","","7rnr2tkrfe","""2024-11-13T15:39:55.859Z""","null","+","null","","","","","","",""
"","","","","","image-keyboard-response","395","514206","0.0-19.0-2.2-1.5","7rnr2tkrfe","","7rnr2tkrfe","""2024-11-13T15:39:55.859Z""","1949","materials/imgs/D111.png","arrowleft","","[""materials/imgs/D82.png"",""materials/imgs/D95.png""]","false","validation","","",""
"","","","","","html-keyboard-response","396","514707","0.0-19.0-0.3-0.21","7rnr2tkrfe","","7rnr2tkrfe","""2024-11-13T15:39:55.859Z""","null","+","null","","","","","","",""
"","","","","","image-keyboard-response","397","516268","0.0-19.0-0.3-1.21","7rnr2tkrfe","","7rnr2tkrfe","""2024-11-13T15:39:55.859Z""","1558","materials/imgs/D85.png","arrowright","","[""materials/imgs/D57.png"",""materials/imgs/D68.png""]","false","random","","",""
"","","","","","html-keyboard-response","398","516769","0.0-19.0-0.3-0.22","7rnr2tkrfe","","7rnr2tkrfe","""2024-11-13T15:39:55.859Z""","null","+","null","","","","","","",""
"","","","","","image-keyboard-response","399","519396","0.0-19.0-0.3-1.22","7rnr2tkrfe","","7rnr2tkrfe","""2024-11-13T15:39:55.859Z""","2624","materials/imgs/D68.png","arrowleft","","[""materials/imgs/D11.png"",""materials/imgs/D55.png""]","false","random","","",""
"","","","","","html-keyboard-response","400","519897","0.0-19.0-0.3-0.23","7rnr2tkrfe","","7rnr2tkrfe","""2024-11-13T15:39:55.859Z""","null","+","null","","","","","","",""
"","","","","","image-keyboard-response","401","521150","0.0-19.0-0.3-1.23","7rnr2tkrfe","","7rnr2tkrfe","""2024-11-13T15:39:55.859Z""","1250","materials/imgs/D75.png","arrowright","","[""materials/imgs/D92.png"",""materials/imgs/D36.png""]","false","random","","",""
"","","","","","html-keyboard-response","402","521651","0.0-19.0-0.3-0.24","7rnr2tkrfe","","7rnr2tkrfe","""2024-11-13T15:39:55.859Z""","null","+","null","","","","","","",""
"","","","","","image-keyboard-response","403","523706","0.0-19.0-0.3-1.24","7rnr2tkrfe","","7rnr2tkrfe","""2024-11-13T15:39:55.859Z""","2053","materials/imgs/D111.png","arrowleft","","[""materials/imgs/D46.png"",""materials/imgs/D34.png""]","false","random","","",""
"","","","","","html-keyboard-response","404","524208","0.0-19.0-0.3-0.25","7rnr2tkrfe","","7rnr2tkrfe","""2024-11-13T15:39:55.859Z""","null","+","null","","","","","","",""
"","","","","","image-keyboard-response","405","526260","0.0-19.0-0.3-1.25","7rnr2tkrfe","","7rnr2tkrfe","""2024-11-13T15:39:55.859Z""","2049","materials/imgs/D66.png","arrowleft","","[""materials/imgs/D29.png"",""materials/imgs/D14.png""]","false","random","","",""
"","","","","","html-keyboard-response","406","526761","0.0-19.0-0.3-0.26","7rnr2tkrfe","","7rnr2tkrfe","""2024-11-13T15:39:55.859Z""","null","+","null","","","","","","",""
"","","","","","image-keyboard-response","407","528240","0.0-19.0-0.3-1.26","7rnr2tkrfe","","7rnr2tkrfe","""2024-11-13T15:39:55.859Z""","1476","materials/imgs/D64.png","arrowleft","","[""materials/imgs/D1.png"",""materials/imgs/D68.png""]","false","random","","",""
"","","","","","html-keyboard-response","408","528741","0.0-19.0-0.3-0.27","7rnr2tkrfe","","7rnr2tkrfe","""2024-11-13T15:39:55.859Z""","null","+","null","","","","","","",""
"","","","","","image-keyboard-response","409","531835","0.0-19.0-0.3-1.27","7rnr2tkrfe","","7rnr2tkrfe","""2024-11-13T15:39:55.859Z""","3092","materials/imgs/D56.png","arrowleft","","[""materials/imgs/D101.png"",""materials/imgs/D57.png""]","false","random","","",""
"","","","","","html-keyboard-response","410","532337","0.0-19.0-1.3-0.3","7rnr2tkrfe","","7rnr2tkrfe","""2024-11-13T15:39:55.859Z""","null","+","null","","","","","","",""
"","","","","","image-keyboard-response","411","532989","0.0-19.0-1.3-1.3","7rnr2tkrfe","","7rnr2tkrfe","""2024-11-13T15:39:55.859Z""","650","materials/imgs/D106.png","arrowleft","","[""materials/imgs/D106.png"",""materials/imgs/D101.png""]","","check","materials/imgs/D106.png","0","true"
"","","","","","html-keyboard-response","412","533490","0.0-19.0-2.3-0.6","7rnr2tkrfe","","7rnr2tkrfe","""2024-11-13T15:39:55.859Z""","null","+","null","","","","","","",""
"","","","","","image-keyboard-response","413","534802","0.0-19.0-2.3-1.6","7rnr2tkrfe","","7rnr2tkrfe","""2024-11-13T15:39:55.859Z""","1309","materials/imgs/D68.png","arrowright","","[""materials/imgs/D96.png"",""materials/imgs/D48.png""]","false","validation","","",""
"","","","","","html-keyboard-response","414","535304","0.0-19.0-2.3-0.7","7rnr2tkrfe","","7rnr2tkrfe","""2024-11-13T15:39:55.859Z""","null","+","null","","","","","","",""
"","","","","","image-keyboard-response","415","538147","0.0-19.0-2.3-1.7","7rnr2tkrfe","","7rnr2tkrfe","""2024-11-13T15:39:55.859Z""","2841","materials/imgs/D68.png","arrowright","","[""materials/imgs/D96.png"",""materials/imgs/D48.png""]","false","validation","","",""
"","","","","","html-keyboard-response","416","538649","0.0-19.0-0.4-0.28","7rnr2tkrfe","","7rnr2tkrfe","""2024-11-13T15:39:55.859Z""","null","+","null","","","","","","",""
"","","","","","image-keyboard-response","417","539692","0.0-19.0-0.4-1.28","7rnr2tkrfe","","7rnr2tkrfe","""2024-11-13T15:39:55.859Z""","1040","materials/imgs/D66.png","arrowright","","[""materials/imgs/D96.png"",""materials/imgs/D101.png""]","false","random","","",""
"","","","","","html-keyboard-response","418","540193","0.0-19.0-0.4-0.29","7rnr2tkrfe","","7rnr2tkrfe","""2024-11-13T15:39:55.859Z""","null","+","null","","","","","","",""
"","","","","","image-keyboard-response","419","541353","0.0-19.0-0.4-1.29","7rnr2tkrfe","","7rnr2tkrfe","""2024-11-13T15:39:55.859Z""","1158","materials/imgs/D76.png","arrowleft","","[""materials/imgs/D51.png"",""materials/imgs/D49.png""]","false","random","","",""
"","","","","","html-keyboard-response","420","541854","0.0-19.0-0.4-0.30","7rnr2tkrfe","","7rnr2tkrfe","""2024-11-13T15:39:55.859Z""","null","+","null","","","","","","",""
"","","","","","image-keyboard-response","421","543035","0.0-19.0-0.4-1.30","7rnr2tkrfe","","7rnr2tkrfe","""2024-11-13T15:39:55.859Z""","1178","materials/imgs/D74.png","arrowleft","","[""materials/imgs/D111.png"",""materials/imgs/D29.png""]","false","random","","",""
"","","","","","html-keyboard-response","422","543537","0.0-19.0-0.4-0.31","7rnr2tkrfe","","7rnr2tkrfe","""2024-11-13T15:39:55.859Z""","null","+","null","","","","","","",""
"","","","","","image-keyboard-response","423","545285","0.0-19.0-0.4-1.31","7rnr2tkrfe","","7rnr2tkrfe","""2024-11-13T15:39:55.859Z""","1745","materials/imgs/D19.png","arrowleft","","[""materials/imgs/D66.png"",""materials/imgs/D68.png""]","false","random","","",""
"","","","","","html-keyboard-response","424","545786","0.0-19.0-0.4-0.32","7rnr2tkrfe","","7rnr2tkrfe","""2024-11-13T15:39:55.859Z""","null","+","null","","","","","","",""
"","","","","","image-keyboard-response","425","547461","0.0-19.0-0.4-1.32","7rnr2tkrfe","","7rnr2tkrfe","""2024-11-13T15:39:55.859Z""","1672","materials/imgs/D18.png","arrowleft","","[""materials/imgs/D6.png"",""materials/imgs/D94.png""]","false","random","","",""
"","","","","","html-keyboard-response","426","547962","0.0-19.0-0.4-0.33","7rnr2tkrfe","","7rnr2tkrfe","""2024-11-13T15:39:55.859Z""","null","+","null","","","","","","",""
"","","","","","image-keyboard-response","427","549240","0.0-19.0-0.4-1.33","7rnr2tkrfe","","7rnr2tkrfe","""2024-11-13T15:39:55.859Z""","1276","materials/imgs/D94.png","arrowright","","[""materials/imgs/D22.png"",""materials/imgs/D96.png""]","false","random","","",""
"","","","","","html-keyboard-response","428","549742","0.0-19.0-0.4-0.34","7rnr2tkrfe","","7rnr2tkrfe","""2024-11-13T15:39:55.859Z""","null","+","null","","","","","","",""
"","","","","","image-keyboard-response","429","551310","0.0-19.0-0.4-1.34","7rnr2tkrfe","","7rnr2tkrfe","""2024-11-13T15:39:55.859Z""","1566","materials/imgs/D76.png","arrowleft","","[""materials/imgs/D53.png"",""materials/imgs/D37.png""]","false","random","","",""
"","","","","","html-keyboard-response","430","551811","0.0-19.0-1.4-0.4","7rnr2tkrfe","","7rnr2tkrfe","""2024-11-13T15:39:55.859Z""","null","+","null","","","","","","",""
"","","","","","image-keyboard-response","431","553187","0.0-19.0-1.4-1.4","7rnr2tkrfe","","7rnr2tkrfe","""2024-11-13T15:39:55.859Z""","1374","materials/imgs/D76.png","arrowleft","","[""materials/imgs/D76.png"",""materials/imgs/D78.png""]","","check","materials/imgs/D76.png","0","true"
"","","","","","html-keyboard-response","432","553689","0.0-19.0-2.4-0.8","7rnr2tkrfe","","7rnr2tkrfe","""2024-11-13T15:39:55.859Z""","null","+","null","","","","","","",""
"","","","","","image-keyboard-response","433","556742","0.0-19.0-2.4-1.8","7rnr2tkrfe","","7rnr2tkrfe","""2024-11-13T15:39:55.859Z""","3051","materials/imgs/D56.png","arrowleft","","[""materials/imgs/D25.png"",""materials/imgs/D105.png""]","false","validation","","",""
"","","","","","html-keyboard-response","434","557243","0.0-19.0-2.4-0.9","7rnr2tkrfe","","7rnr2tkrfe","""2024-11-13T15:39:55.859Z""","null","+","null","","","","","","",""
"","","","","","image-keyboard-response","435","558496","0.0-19.0-2.4-1.9","7rnr2tkrfe","","7rnr2tkrfe","""2024-11-13T15:39:55.859Z""","1250","materials/imgs/D81.png","arrowright","","[""materials/imgs/D105.png"",""materials/imgs/D24.png""]","false","validation","","",""
