"success","timeout","failed_images","failed_audio","failed_video","trial_type","trial_index","time_elapsed","internal_node_id","subject_id","sona_id","subjectID","dateInfo","rt","stimulus","response","question_order","choices","speedy","sampleAlg","selected_image","selected_index","correct"
"true","false","[]","[]","[]","preload","0","728","0.0-0.0","7scbk0szh7","","7scbk0szh7","""2024-11-12T20:35:00.012Z""","","","","","","","","","",""
"true","","","","","fullscreen","1","2955","0.0-1.0","7scbk0szh7","","7scbk0szh7","""2024-11-12T20:35:00.012Z""","","","","","","","","","",""
"","","","","","html-keyboard-response","2","2966","0.0-2.0","7scbk0szh7","","7scbk0szh7","""2024-11-12T20:35:00.012Z""","null","","null","","","","","","",""
"","","","","","html-button-response","3","8619","0.0-3.0","7scbk0szh7","","7scbk0szh7","""2024-11-12T20:35:00.012Z""","5652","<div style='text-align:center; font-size:20px; line-height:25px; width: 1200px;'>
                Welcome to our experiment! <br>
                <br>At the bottom of this screen, you will see a button that says 'Begin Experiment.
                <br>Please only click that button when you are ready to complete the 25 minute experiment in one sitting. <br>
                <br> Once you click that button, it will not be possible to restart the experiment. <br><br>","0","","","","","","",""
"true","","","","","fullscreen","4","11454","0.0-4.0","7scbk0szh7","","7scbk0szh7","""2024-11-12T20:35:00.012Z""","","","","","","","","","",""
"","","","","","survey-multi-select","5","52854","0.0-5.0","7scbk0szh7","","7scbk0szh7","""2024-11-12T20:35:00.012Z""","41397","","{""Consent"":[""<strong>I consent</strong>""]}","[0]","","","","","",""
"","","","","","html-button-response","6","56020","0.0-6.0","7scbk0szh7","","7scbk0szh7","""2024-11-12T20:35:00.012Z""","3165","Welcome! <p> This experiment involves two parts: demographic information, followed by the experimental task.<p> It will take about 25 minutes to complete both parts.","0","","","","","","",""
"","","","","","survey-text","7","66087","0.0-7.0","7scbk0szh7","","7scbk0szh7","""2024-11-12T20:35:00.012Z""","10064","","{""Age"":""18"",""Gender"":""female"",""Race/ethnicity"":""white""}","","","","","","",""
"","","","","","html-button-response","8","92720","0.0-8.0","7scbk0szh7","","7scbk0szh7","""2024-11-12T20:35:00.012Z""","26631","<div style='text-align: center;'>
      <p>In each trial of this task, you will see three texture images: one target item on top, and two choices beneath the target item.</p>
      <p><strong>Please select the item that is most like the target item.</strong></p>
      <p>To select the option on the <strong>LEFT</strong>, press the <strong>LEFT ARROW</strong> key. 
      To select the option on the <strong>RIGHT</strong>, press the <strong>RIGHT ARROW</strong> key.</p>
                  <!-- Target Image at the Top -->
      <div style='margin: 20px;'>
        <img src='materials/imgs/instruction_images/InstructionImg1D78.png' alt='Target Image' style='width:200px; height:auto;' />
        <p><em>Target Image</em></p>
      </div>

      <!-- Two Choice Images Below -->
      <div style='display: flex; justify-content: center;'>
        <div style='margin-right: 50px;'>
          <img src='materials/imgs/instruction_images/InstructionImg2D34.png' alt='Choice Image 1' style='width:150px; height:auto;' />
          <p><em><strong>LEFT ARROW</strong></em></p>
        </div>
        <div style='margin-left: 50px;'>
          <img src='materials/imgs/instruction_images/InstructionImg3D80.png' alt='Choice Image 2' style='width:150px; height:auto;' />
          <p><em><strong>RIGHT ARROW</strong></em></p>
        </div>
      </div>
    </div>

      <p>When you are ready to proceed, please click 'Continue' to begin practice.</p>","0","","","","","","",""
"","","","","","html-keyboard-response","9","95224","0.0-9.0","7scbk0szh7","","7scbk0szh7","""2024-11-12T20:35:00.012Z""","null","+","null","","","","","","",""
"","","","","","html-keyboard-response","10","95726","0.0-10.0-0.0-0.0","7scbk0szh7","","7scbk0szh7","""2024-11-12T20:35:00.012Z""","null","+","null","","","","","","",""
"","","","","","image-keyboard-response","11","102099","0.0-10.0-0.0-1.0","7scbk0szh7","","7scbk0szh7","""2024-11-12T20:35:00.012Z""","6365","materials/imgs/D102.png","arrowright","","[""materials/imgs/D106.png"",""materials/imgs/D78.png""]","false","random","","",""
"","","","","","html-keyboard-response","12","102601","0.0-10.0-0.0-0.1","7scbk0szh7","","7scbk0szh7","""2024-11-12T20:35:00.012Z""","null","+","null","","","","","","",""
"","","","","","image-keyboard-response","13","106659","0.0-10.0-0.0-1.1","7scbk0szh7","","7scbk0szh7","""2024-11-12T20:35:00.012Z""","4057","materials/imgs/D55.png","arrowleft","","[""materials/imgs/D29.png"",""materials/imgs/D75.png""]","false","random","","",""
"","","","","","html-keyboard-response","14","107161","0.0-10.0-0.0-0.2","7scbk0szh7","","7scbk0szh7","""2024-11-12T20:35:00.012Z""","null","+","null","","","","","","",""
"","","","","","image-keyboard-response","15","113566","0.0-10.0-0.0-1.2","7scbk0szh7","","7scbk0szh7","""2024-11-12T20:35:00.012Z""","6403","materials/imgs/D22.png","arrowleft","","[""materials/imgs/D3.png"",""materials/imgs/D51.png""]","false","random","","",""
"","","","","","html-keyboard-response","16","114068","0.0-10.0-0.0-0.3","7scbk0szh7","","7scbk0szh7","""2024-11-12T20:35:00.012Z""","null","+","null","","","","","","",""
"","","","","","image-keyboard-response","17","116998","0.0-10.0-0.0-1.3","7scbk0szh7","","7scbk0szh7","""2024-11-12T20:35:00.012Z""","2929","materials/imgs/D35.png","arrowright","","[""materials/imgs/D85.png"",""materials/imgs/D80.png""]","false","random","","",""
"","","","","","html-keyboard-response","18","117499","0.0-10.0-0.0-0.4","7scbk0szh7","","7scbk0szh7","""2024-11-12T20:35:00.012Z""","null","+","null","","","","","","",""
"","","","","","image-keyboard-response","19","123990","0.0-10.0-0.0-1.4","7scbk0szh7","","7scbk0szh7","""2024-11-12T20:35:00.012Z""","6489","materials/imgs/D106.png","arrowright","","[""materials/imgs/D1.png"",""materials/imgs/D34.png""]","false","random","","",""
"","","","","","html-keyboard-response","20","124491","0.0-10.0-0.0-0.5","7scbk0szh7","","7scbk0szh7","""2024-11-12T20:35:00.012Z""","null","+","null","","","","","","",""
"","","","","","image-keyboard-response","21","129204","0.0-10.0-0.0-1.5","7scbk0szh7","","7scbk0szh7","""2024-11-12T20:35:00.012Z""","4712","materials/imgs/D105.png","arrowleft","","[""materials/imgs/D21.png"",""materials/imgs/D51.png""]","false","random","","",""
"","","","","","html-keyboard-response","22","129706","0.0-10.0-0.0-0.6","7scbk0szh7","","7scbk0szh7","""2024-11-12T20:35:00.012Z""","null","+","null","","","","","","",""
"","","","","","image-keyboard-response","23","134191","0.0-10.0-0.0-1.6","7scbk0szh7","","7scbk0szh7","""2024-11-12T20:35:00.012Z""","4483","materials/imgs/D104.png","arrowleft","","[""materials/imgs/D78.png"",""materials/imgs/D102.png""]","false","random","","",""
"","","","","","html-keyboard-response","24","134693","0.0-10.0-0.0-0.7","7scbk0szh7","","7scbk0szh7","""2024-11-12T20:35:00.012Z""","null","+","null","","","","","","",""
"","","","","","image-keyboard-response","25","138005","0.0-10.0-0.0-1.7","7scbk0szh7","","7scbk0szh7","""2024-11-12T20:35:00.012Z""","3310","materials/imgs/D77.png","arrowleft","","[""materials/imgs/D95.png"",""materials/imgs/D64.png""]","false","random","","",""
"","","","","","html-keyboard-response","26","138506","0.0-10.0-0.0-0.8","7scbk0szh7","","7scbk0szh7","""2024-11-12T20:35:00.012Z""","null","+","null","","","","","","",""
"","","","","","image-keyboard-response","27","141938","0.0-10.0-0.0-1.8","7scbk0szh7","","7scbk0szh7","""2024-11-12T20:35:00.012Z""","3430","materials/imgs/D77.png","arrowright","","[""materials/imgs/D35.png"",""materials/imgs/D68.png""]","false","random","","",""
"","","","","","html-keyboard-response","28","142440","0.0-10.0-0.0-0.9","7scbk0szh7","","7scbk0szh7","""2024-11-12T20:35:00.012Z""","null","+","null","","","","","","",""
"","","","","","image-keyboard-response","29","146603","0.0-10.0-0.0-1.9","7scbk0szh7","","7scbk0szh7","""2024-11-12T20:35:00.012Z""","4162","materials/imgs/D96.png","arrowleft","","[""materials/imgs/D55.png"",""materials/imgs/D19.png""]","false","random","","",""
"","","","","","html-button-response","30","176540","0.0-11.0","7scbk0szh7","","7scbk0szh7","""2024-11-12T20:35:00.012Z""","29936","<p>Great job!</p>
      <p>You are now ready to begin the experiment.</p>
      <p>There will be around 200 trials. You will have opportunities to take breaks at three stages of the trials.</p>
      <p>When you are ready to begin please click 'Continue'.</p>","0","","","","","","",""
"","","","","","html-keyboard-response","31","179044","0.0-12.0","7scbk0szh7","","7scbk0szh7","""2024-11-12T20:35:00.012Z""","null","+","null","","","","","","",""
"","","","","","html-keyboard-response","32","179545","0.0-13.0-0.0-0.0","7scbk0szh7","","7scbk0szh7","""2024-11-12T20:35:00.012Z""","null","+","null","","","","","","",""
"","","","","","image-keyboard-response","33","183155","0.0-13.0-0.0-1.0","7scbk0szh7","","7scbk0szh7","""2024-11-12T20:35:00.012Z""","3607","materials/imgs/D104.png","arrowright","","[""materials/imgs/D96.png"",""materials/imgs/D18.png""]","false","random","","",""
"","","","","","html-keyboard-response","34","183656","0.0-13.0-0.0-0.1","7scbk0szh7","","7scbk0szh7","""2024-11-12T20:35:00.012Z""","null","+","null","","","","","","",""
"","","","","","image-keyboard-response","35","187344","0.0-13.0-0.0-1.1","7scbk0szh7","","7scbk0szh7","""2024-11-12T20:35:00.012Z""","3686","materials/imgs/D75.png","arrowright","","[""materials/imgs/D83.png"",""materials/imgs/D1.png""]","false","random","","",""
"","","","","","html-keyboard-response","36","187845","0.0-13.0-0.0-0.2","7scbk0szh7","","7scbk0szh7","""2024-11-12T20:35:00.012Z""","null","+","null","","","","","","",""
"","","","","","image-keyboard-response","37","191479","0.0-13.0-0.0-1.2","7scbk0szh7","","7scbk0szh7","""2024-11-12T20:35:00.012Z""","3633","materials/imgs/D52.png","arrowleft","","[""materials/imgs/D101.png"",""materials/imgs/D4.png""]","false","random","","",""
"","","","","","html-keyboard-response","38","191981","0.0-13.0-0.0-0.3","7scbk0szh7","","7scbk0szh7","""2024-11-12T20:35:00.012Z""","null","+","null","","","","","","",""
"","","","","","image-keyboard-response","39","196373","0.0-13.0-0.0-1.3","7scbk0szh7","","7scbk0szh7","""2024-11-12T20:35:00.012Z""","4390","materials/imgs/D74.png","arrowright","","[""materials/imgs/D81.png"",""materials/imgs/D20.png""]","false","random","","",""
"","","","","","html-keyboard-response","40","196875","0.0-13.0-0.0-0.4","7scbk0szh7","","7scbk0szh7","""2024-11-12T20:35:00.012Z""","null","+","null","","","","","","",""
"","","","","","image-keyboard-response","41","207443","0.0-13.0-0.0-1.4","7scbk0szh7","","7scbk0szh7","""2024-11-12T20:35:00.012Z""","10567","materials/imgs/D49.png","arrowright","","[""materials/imgs/D85.png"",""materials/imgs/D47.png""]","false","random","","",""
"","","","","","html-keyboard-response","42","207945","0.0-13.0-0.0-0.5","7scbk0szh7","","7scbk0szh7","""2024-11-12T20:35:00.012Z""","null","+","null","","","","","","",""
"","","","","","image-keyboard-response","43","211076","0.0-13.0-0.0-1.5","7scbk0szh7","","7scbk0szh7","""2024-11-12T20:35:00.012Z""","3130","materials/imgs/D65.png","arrowleft","","[""materials/imgs/D24.png"",""materials/imgs/D106.png""]","false","random","","",""
"","","","","","html-keyboard-response","44","211578","0.0-13.0-0.0-0.6","7scbk0szh7","","7scbk0szh7","""2024-11-12T20:35:00.012Z""","null","+","null","","","","","","",""
"","","","","","image-keyboard-response","45","217338","0.0-13.0-0.0-1.6","7scbk0szh7","","7scbk0szh7","""2024-11-12T20:35:00.012Z""","5759","materials/imgs/D104.png","arrowleft","","[""materials/imgs/D22.png"",""materials/imgs/D19.png""]","false","random","","",""
"","","","","","html-keyboard-response","46","217839","0.0-13.0-1.0-0.0","7scbk0szh7","","7scbk0szh7","""2024-11-12T20:35:00.012Z""","null","+","null","","","","","","",""
"","","","","","image-keyboard-response","47","222069","0.0-13.0-1.0-1.0","7scbk0szh7","","7scbk0szh7","""2024-11-12T20:35:00.012Z""","4228","materials/imgs/D26.png","arrowleft","","[""materials/imgs/D26.png"",""materials/imgs/D46.png""]","","check","materials/imgs/D26.png","0","true"
"","","","","","html-keyboard-response","48","222570","0.0-13.0-2.0-0.0","7scbk0szh7","","7scbk0szh7","""2024-11-12T20:35:00.012Z""","null","+","null","","","","","","",""
"","","","","","image-keyboard-response","49","225944","0.0-13.0-2.0-1.0","7scbk0szh7","","7scbk0szh7","""2024-11-12T20:35:00.012Z""","3373","materials/imgs/D4.png","arrowleft","","[""materials/imgs/D52.png"",""materials/imgs/D83.png""]","false","validation","","",""
"","","","","","html-keyboard-response","50","226446","0.0-13.0-2.0-0.1","7scbk0szh7","","7scbk0szh7","""2024-11-12T20:35:00.012Z""","null","+","null","","","","","","",""
"","","","","","image-keyboard-response","51","228222","0.0-13.0-2.0-1.1","7scbk0szh7","","7scbk0szh7","""2024-11-12T20:35:00.012Z""","1775","materials/imgs/D81.png","arrowright","","[""materials/imgs/D105.png"",""materials/imgs/D24.png""]","false","validation","","",""
"","","","","","html-keyboard-response","52","228723","0.0-13.0-0.1-0.7","7scbk0szh7","","7scbk0szh7","""2024-11-12T20:35:00.012Z""","null","+","null","","","","","","",""
"","","","","","image-keyboard-response","53","232108","0.0-13.0-0.1-1.7","7scbk0szh7","","7scbk0szh7","""2024-11-12T20:35:00.012Z""","3384","materials/imgs/D35.png","arrowleft","","[""materials/imgs/D103.png"",""materials/imgs/D105.png""]","false","random","","",""
"","","","","","html-keyboard-response","54","232610","0.0-13.0-0.1-0.8","7scbk0szh7","","7scbk0szh7","""2024-11-12T20:35:00.012Z""","null","+","null","","","","","","",""
"","","","","","image-keyboard-response","55","236180","0.0-13.0-0.1-1.8","7scbk0szh7","","7scbk0szh7","""2024-11-12T20:35:00.012Z""","3569","materials/imgs/D66.png","arrowright","","[""materials/imgs/D36.png"",""materials/imgs/D32.png""]","false","random","","",""
"","","","","","html-keyboard-response","56","236681","0.0-13.0-0.1-0.9","7scbk0szh7","","7scbk0szh7","""2024-11-12T20:35:00.012Z""","null","+","null","","","","","","",""
"","","","","","image-keyboard-response","57","238895","0.0-13.0-0.1-1.9","7scbk0szh7","","7scbk0szh7","""2024-11-12T20:35:00.012Z""","2212","materials/imgs/D24.png","arrowright","","[""materials/imgs/D19.png"",""materials/imgs/D36.png""]","false","random","","",""
"","","","","","html-keyboard-response","58","239396","0.0-13.0-0.1-0.10","7scbk0szh7","","7scbk0szh7","""2024-11-12T20:35:00.012Z""","null","+","null","","","","","","",""
"","","","","","image-keyboard-response","59","242698","0.0-13.0-0.1-1.10","7scbk0szh7","","7scbk0szh7","""2024-11-12T20:35:00.012Z""","3301","materials/imgs/D105.png","arrowright","","[""materials/imgs/D57.png"",""materials/imgs/D77.png""]","false","random","","",""
"","","","","","html-keyboard-response","60","243200","0.0-13.0-0.1-0.11","7scbk0szh7","","7scbk0szh7","""2024-11-12T20:35:00.012Z""","null","+","null","","","","","","",""
"","","","","","image-keyboard-response","61","253629","0.0-13.0-0.1-1.11","7scbk0szh7","","7scbk0szh7","""2024-11-12T20:35:00.012Z""","10427","materials/imgs/D53.png","arrowright","","[""materials/imgs/D49.png"",""materials/imgs/D55.png""]","false","random","","",""
"","","","","","html-keyboard-response","62","254131","0.0-13.0-0.1-0.12","7scbk0szh7","","7scbk0szh7","""2024-11-12T20:35:00.012Z""","null","+","null","","","","","","",""
"","","","","","image-keyboard-response","63","259936","0.0-13.0-0.1-1.12","7scbk0szh7","","7scbk0szh7","""2024-11-12T20:35:00.012Z""","5804","materials/imgs/D20.png","arrowleft","","[""materials/imgs/D66.png"",""materials/imgs/D19.png""]","false","random","","",""
"","","","","","html-keyboard-response","64","260438","0.0-13.0-0.1-0.13","7scbk0szh7","","7scbk0szh7","""2024-11-12T20:35:00.012Z""","null","+","null","","","","","","",""
"","","","","","image-keyboard-response","65","263353","0.0-13.0-0.1-1.13","7scbk0szh7","","7scbk0szh7","""2024-11-12T20:35:00.012Z""","2914","materials/imgs/D19.png","arrowright","","[""materials/imgs/D57.png"",""materials/imgs/D52.png""]","false","random","","",""
"","","","","","html-keyboard-response","66","263855","0.0-13.0-1.1-0.1","7scbk0szh7","","7scbk0szh7","""2024-11-12T20:35:00.012Z""","null","+","null","","","","","","",""
"","","","","","image-keyboard-response","67","265186","0.0-13.0-1.1-1.1","7scbk0szh7","","7scbk0szh7","""2024-11-12T20:35:00.012Z""","1330","materials/imgs/D26.png","arrowleft","","[""materials/imgs/D26.png"",""materials/imgs/D46.png""]","","check","materials/imgs/D26.png","0","true"
"","","","","","html-keyboard-response","68","265687","0.0-13.0-2.1-0.2","7scbk0szh7","","7scbk0szh7","""2024-11-12T20:35:00.012Z""","null","+","null","","","","","","",""
"","","","","","image-keyboard-response","69","269371","0.0-13.0-2.1-1.2","7scbk0szh7","","7scbk0szh7","""2024-11-12T20:35:00.012Z""","3682","materials/imgs/D25.png","arrowleft","","[""materials/imgs/D103.png"",""materials/imgs/D64.png""]","false","validation","","",""
"","","","","","html-keyboard-response","70","269872","0.0-13.0-2.1-0.3","7scbk0szh7","","7scbk0szh7","""2024-11-12T20:35:00.012Z""","null","+","null","","","","","","",""
"","","","","","image-keyboard-response","71","272023","0.0-13.0-2.1-1.3","7scbk0szh7","","7scbk0szh7","""2024-11-12T20:35:00.012Z""","2150","materials/imgs/D3.png","arrowleft","","[""materials/imgs/D79.png"",""materials/imgs/D48.png""]","false","validation","","",""
"","","","","","html-keyboard-response","72","272525","0.0-13.0-0.2-0.14","7scbk0szh7","","7scbk0szh7","""2024-11-12T20:35:00.012Z""","null","+","null","","","","","","",""
"","","","","","image-keyboard-response","73","273829","0.0-13.0-0.2-1.14","7scbk0szh7","","7scbk0szh7","""2024-11-12T20:35:00.012Z""","1303","materials/imgs/D24.png","arrowright","","[""materials/imgs/D74.png"",""materials/imgs/D4.png""]","false","random","","",""
"","","","","","html-keyboard-response","74","274330","0.0-13.0-0.2-0.15","7scbk0szh7","","7scbk0szh7","""2024-11-12T20:35:00.012Z""","null","+","null","","","","","","",""
"","","","","","image-keyboard-response","75","278960","0.0-13.0-0.2-1.15","7scbk0szh7","","7scbk0szh7","""2024-11-12T20:35:00.012Z""","4628","materials/imgs/D77.png","arrowleft","","[""materials/imgs/D84.png"",""materials/imgs/D4.png""]","false","random","","",""
"","","","","","html-keyboard-response","76","279461","0.0-13.0-0.2-0.16","7scbk0szh7","","7scbk0szh7","""2024-11-12T20:35:00.012Z""","null","+","null","","","","","","",""
"","","","","","image-keyboard-response","77","285987","0.0-13.0-0.2-1.16","7scbk0szh7","","7scbk0szh7","""2024-11-12T20:35:00.012Z""","6524","materials/imgs/D106.png","arrowright","","[""materials/imgs/D29.png"",""materials/imgs/D84.png""]","false","random","","",""
"","","","","","html-keyboard-response","78","286488","0.0-13.0-0.2-0.17","7scbk0szh7","","7scbk0szh7","""2024-11-12T20:35:00.012Z""","null","+","null","","","","","","",""
"","","","","","image-keyboard-response","79","291393","0.0-13.0-0.2-1.17","7scbk0szh7","","7scbk0szh7","""2024-11-12T20:35:00.012Z""","4903","materials/imgs/D65.png","arrowright","","[""materials/imgs/D37.png"",""materials/imgs/D94.png""]","false","random","","",""
"","","","","","html-keyboard-response","80","291895","0.0-13.0-0.2-0.18","7scbk0szh7","","7scbk0szh7","""2024-11-12T20:35:00.012Z""","null","+","null","","","","","","",""
"","","","","","image-keyboard-response","81","298804","0.0-13.0-0.2-1.18","7scbk0szh7","","7scbk0szh7","""2024-11-12T20:35:00.012Z""","6908","materials/imgs/D105.png","arrowleft","","[""materials/imgs/D74.png"",""materials/imgs/D75.png""]","false","random","","",""
"","","","","","html-keyboard-response","82","299306","0.0-13.0-0.2-0.19","7scbk0szh7","","7scbk0szh7","""2024-11-12T20:35:00.012Z""","null","+","null","","","","","","",""
"","","","","","image-keyboard-response","83","302304","0.0-13.0-0.2-1.19","7scbk0szh7","","7scbk0szh7","""2024-11-12T20:35:00.012Z""","2997","materials/imgs/D35.png","arrowright","","[""materials/imgs/D18.png"",""materials/imgs/D102.png""]","false","random","","",""
"","","","","","html-keyboard-response","84","302805","0.0-13.0-0.2-0.20","7scbk0szh7","","7scbk0szh7","""2024-11-12T20:35:00.012Z""","null","+","null","","","","","","",""
"","","","","","image-keyboard-response","85","304939","0.0-13.0-0.2-1.20","7scbk0szh7","","7scbk0szh7","""2024-11-12T20:35:00.012Z""","2133","materials/imgs/D18.png","arrowleft","","[""materials/imgs/D106.png"",""materials/imgs/D66.png""]","false","random","","",""
"","","","","","html-keyboard-response","86","305440","0.0-13.0-1.2-0.2","7scbk0szh7","","7scbk0szh7","""2024-11-12T20:35:00.012Z""","null","+","null","","","","","","",""
"","","","","","image-keyboard-response","87","306572","0.0-13.0-1.2-1.2","7scbk0szh7","","7scbk0szh7","""2024-11-12T20:35:00.012Z""","1131","materials/imgs/D8.png","arrowright","","[""materials/imgs/D18.png"",""materials/imgs/D8.png""]","","check","materials/imgs/D8.png","1","true"
"","","","","","html-keyboard-response","88","307074","0.0-13.0-2.2-0.4","7scbk0szh7","","7scbk0szh7","""2024-11-12T20:35:00.012Z""","null","+","null","","","","","","",""
"","","","","","image-keyboard-response","89","308490","0.0-13.0-2.2-1.4","7scbk0szh7","","7scbk0szh7","""2024-11-12T20:35:00.012Z""","1414","materials/imgs/D22.png","arrowleft","","[""materials/imgs/D4.png"",""materials/imgs/D25.png""]","false","validation","","",""
"","","","","","html-keyboard-response","90","308991","0.0-13.0-2.2-0.5","7scbk0szh7","","7scbk0szh7","""2024-11-12T20:35:00.012Z""","null","+","null","","","","","","",""
"","","","","","image-keyboard-response","91","311243","0.0-13.0-2.2-1.5","7scbk0szh7","","7scbk0szh7","""2024-11-12T20:35:00.012Z""","2251","materials/imgs/D96.png","arrowright","","[""materials/imgs/D46.png"",""materials/imgs/D18.png""]","false","validation","","",""
"","","","","","html-keyboard-response","92","311745","0.0-13.0-0.3-0.21","7scbk0szh7","","7scbk0szh7","""2024-11-12T20:35:00.012Z""","null","+","null","","","","","","",""
"","","","","","image-keyboard-response","93","312572","0.0-13.0-0.3-1.21","7scbk0szh7","","7scbk0szh7","""2024-11-12T20:35:00.012Z""","826","materials/imgs/D92.png","arrowleft","","[""materials/imgs/D29.png"",""materials/imgs/D46.png""]","false","random","","",""
"","","","","","html-keyboard-response","94","313074","0.0-13.0-0.3-0.22","7scbk0szh7","","7scbk0szh7","""2024-11-12T20:35:00.012Z""","null","+","null","","","","","","",""
"","","","","","image-keyboard-response","95","316473","0.0-13.0-0.3-1.22","7scbk0szh7","","7scbk0szh7","""2024-11-12T20:35:00.012Z""","3398","materials/imgs/D25.png","arrowright","","[""materials/imgs/D34.png"",""materials/imgs/D8.png""]","false","random","","",""
"","","","","","html-keyboard-response","96","316974","0.0-13.0-0.3-0.23","7scbk0szh7","","7scbk0szh7","""2024-11-12T20:35:00.012Z""","null","+","null","","","","","","",""
"","","","","","image-keyboard-response","97","318970","0.0-13.0-0.3-1.23","7scbk0szh7","","7scbk0szh7","""2024-11-12T20:35:00.012Z""","1994","materials/imgs/D48.png","arrowright","","[""materials/imgs/D16.png"",""materials/imgs/D85.png""]","false","random","","",""
"","","","","","html-keyboard-response","98","319472","0.0-13.0-0.3-0.24","7scbk0szh7","","7scbk0szh7","""2024-11-12T20:35:00.012Z""","null","+","null","","","","","","",""
"","","","","","image-keyboard-response","99","322608","0.0-13.0-0.3-1.24","7scbk0szh7","","7scbk0szh7","""2024-11-12T20:35:00.012Z""","3135","materials/imgs/D74.png","arrowleft","","[""materials/imgs/D56.png"",""materials/imgs/D47.png""]","false","random","","",""
"","","","","","html-keyboard-response","100","323109","0.0-13.0-0.3-0.25","7scbk0szh7","","7scbk0szh7","""2024-11-12T20:35:00.012Z""","null","+","null","","","","","","",""
"","","","","","image-keyboard-response","101","328083","0.0-13.0-0.3-1.25","7scbk0szh7","","7scbk0szh7","""2024-11-12T20:35:00.012Z""","4973","materials/imgs/D111.png","arrowleft","","[""materials/imgs/D85.png"",""materials/imgs/D36.png""]","false","random","","",""
"","","","","","html-keyboard-response","102","328584","0.0-13.0-0.3-0.26","7scbk0szh7","","7scbk0szh7","""2024-11-12T20:35:00.012Z""","null","+","null","","","","","","",""
"","","","","","image-keyboard-response","103","331051","0.0-13.0-0.3-1.26","7scbk0szh7","","7scbk0szh7","""2024-11-12T20:35:00.012Z""","2465","materials/imgs/D26.png","arrowleft","","[""materials/imgs/D68.png"",""materials/imgs/D87.png""]","false","random","","",""
"","","","","","html-keyboard-response","104","331553","0.0-13.0-0.3-0.27","7scbk0szh7","","7scbk0szh7","""2024-11-12T20:35:00.012Z""","null","+","null","","","","","","",""
"","","","","","image-keyboard-response","105","333773","0.0-13.0-0.3-1.27","7scbk0szh7","","7scbk0szh7","""2024-11-12T20:35:00.012Z""","2219","materials/imgs/D1.png","arrowleft","","[""materials/imgs/D8.png"",""materials/imgs/D66.png""]","false","random","","",""
"","","","","","html-keyboard-response","106","334274","0.0-13.0-1.3-0.3","7scbk0szh7","","7scbk0szh7","""2024-11-12T20:35:00.012Z""","null","+","null","","","","","","",""
"","","","","","image-keyboard-response","107","335423","0.0-13.0-1.3-1.3","7scbk0szh7","","7scbk0szh7","""2024-11-12T20:35:00.012Z""","1148","materials/imgs/D8.png","arrowright","","[""materials/imgs/D18.png"",""materials/imgs/D8.png""]","","check","materials/imgs/D8.png","1","true"
"","","","","","html-keyboard-response","108","335924","0.0-13.0-2.3-0.6","7scbk0szh7","","7scbk0szh7","""2024-11-12T20:35:00.012Z""","null","+","null","","","","","","",""
"","","","","","image-keyboard-response","109","338976","0.0-13.0-2.3-1.6","7scbk0szh7","","7scbk0szh7","""2024-11-12T20:35:00.012Z""","3051","materials/imgs/D68.png","arrowleft","","[""materials/imgs/D96.png"",""materials/imgs/D48.png""]","false","validation","","",""
"","","","","","html-keyboard-response","110","339478","0.0-13.0-2.3-0.7","7scbk0szh7","","7scbk0szh7","""2024-11-12T20:35:00.012Z""","null","+","null","","","","","","",""
"","","","","","image-keyboard-response","111","341728","0.0-13.0-2.3-1.7","7scbk0szh7","","7scbk0szh7","""2024-11-12T20:35:00.012Z""","2250","materials/imgs/D11.png","arrowleft","","[""materials/imgs/D83.png"",""materials/imgs/D48.png""]","false","validation","","",""
"","","","","","html-keyboard-response","112","342230","0.0-13.0-0.4-0.28","7scbk0szh7","","7scbk0szh7","""2024-11-12T20:35:00.012Z""","null","+","null","","","","","","",""
"","","","","","image-keyboard-response","113","344286","0.0-13.0-0.4-1.28","7scbk0szh7","","7scbk0szh7","""2024-11-12T20:35:00.012Z""","2055","materials/imgs/D102.png","arrowright","","[""materials/imgs/D77.png"",""materials/imgs/D80.png""]","false","random","","",""
"","","","","","html-keyboard-response","114","344788","0.0-13.0-0.4-0.29","7scbk0szh7","","7scbk0szh7","""2024-11-12T20:35:00.012Z""","null","+","null","","","","","","",""
"","","","","","image-keyboard-response","115","347812","0.0-13.0-0.4-1.29","7scbk0szh7","","7scbk0szh7","""2024-11-12T20:35:00.012Z""","3024","materials/imgs/D16.png","arrowright","","[""materials/imgs/D111.png"",""materials/imgs/D52.png""]","false","random","","",""
"","","","","","html-keyboard-response","116","348314","0.0-13.0-0.4-0.30","7scbk0szh7","","7scbk0szh7","""2024-11-12T20:35:00.012Z""","null","+","null","","","","","","",""
"","","","","","image-keyboard-response","117","351874","0.0-13.0-0.4-1.30","7scbk0szh7","","7scbk0szh7","""2024-11-12T20:35:00.012Z""","3559","materials/imgs/D84.png","arrowright","","[""materials/imgs/D21.png"",""materials/imgs/D53.png""]","false","random","","",""
"","","","","","html-keyboard-response","118","352376","0.0-13.0-0.4-0.31","7scbk0szh7","","7scbk0szh7","""2024-11-12T20:35:00.012Z""","null","+","null","","","","","","",""
"","","","","","image-keyboard-response","119","354836","0.0-13.0-0.4-1.31","7scbk0szh7","","7scbk0szh7","""2024-11-12T20:35:00.012Z""","2459","materials/imgs/D80.png","arrowright","","[""materials/imgs/D92.png"",""materials/imgs/D77.png""]","false","random","","",""
"","","","","","html-keyboard-response","120","355337","0.0-13.0-0.4-0.32","7scbk0szh7","","7scbk0szh7","""2024-11-12T20:35:00.012Z""","null","+","null","","","","","","",""
"","","","","","image-keyboard-response","121","358559","0.0-13.0-0.4-1.32","7scbk0szh7","","7scbk0szh7","""2024-11-12T20:35:00.012Z""","3220","materials/imgs/D83.png","arrowright","","[""materials/imgs/D95.png"",""materials/imgs/D18.png""]","false","random","","",""
"","","","","","html-keyboard-response","122","359061","0.0-13.0-0.4-0.33","7scbk0szh7","","7scbk0szh7","""2024-11-12T20:35:00.012Z""","null","+","null","","","","","","",""
"","","","","","image-keyboard-response","123","360701","0.0-13.0-0.4-1.33","7scbk0szh7","","7scbk0szh7","""2024-11-12T20:35:00.012Z""","1640","materials/imgs/D85.png","arrowright","","[""materials/imgs/D8.png"",""materials/imgs/D76.png""]","false","random","","",""
"","","","","","html-keyboard-response","124","361202","0.0-13.0-0.4-0.34","7scbk0szh7","","7scbk0szh7","""2024-11-12T20:35:00.012Z""","null","+","null","","","","","","",""
"","","","","","image-keyboard-response","125","363658","0.0-13.0-0.4-1.34","7scbk0szh7","","7scbk0szh7","""2024-11-12T20:35:00.012Z""","2454","materials/imgs/D82.png","arrowleft","","[""materials/imgs/D49.png"",""materials/imgs/D37.png""]","false","random","","",""
"","","","","","html-keyboard-response","126","364159","0.0-13.0-1.4-0.4","7scbk0szh7","","7scbk0szh7","""2024-11-12T20:35:00.012Z""","null","+","null","","","","","","",""
"","","","","","image-keyboard-response","127","365386","0.0-13.0-1.4-1.4","7scbk0szh7","","7scbk0szh7","""2024-11-12T20:35:00.012Z""","1227","materials/imgs/D64.png","arrowleft","","[""materials/imgs/D64.png"",""materials/imgs/D53.png""]","","check","materials/imgs/D64.png","0","true"
"","","","","","html-keyboard-response","128","365887","0.0-13.0-2.4-0.8","7scbk0szh7","","7scbk0szh7","""2024-11-12T20:35:00.012Z""","null","+","null","","","","","","",""
"","","","","","image-keyboard-response","129","370396","0.0-13.0-2.4-1.8","7scbk0szh7","","7scbk0szh7","""2024-11-12T20:35:00.012Z""","4507","materials/imgs/D83.png","arrowright","","[""materials/imgs/D24.png"",""materials/imgs/D8.png""]","false","validation","","",""
"","","","","","html-keyboard-response","130","370897","0.0-13.0-2.4-0.9","7scbk0szh7","","7scbk0szh7","""2024-11-12T20:35:00.012Z""","null","+","null","","","","","","",""
"","","","","","image-keyboard-response","131","372405","0.0-13.0-2.4-1.9","7scbk0szh7","","7scbk0szh7","""2024-11-12T20:35:00.012Z""","1507","materials/imgs/D68.png","arrowleft","","[""materials/imgs/D96.png"",""materials/imgs/D48.png""]","false","validation","","",""
"","","","","","html-button-response","132","374311","0.0-14.0","7scbk0szh7","","7scbk0szh7","""2024-11-12T20:35:00.012Z""","1905","You have completed 25% of the trials. Please click 'Continue' when you are ready proceed.","0","","","","","","",""
"","","","","","html-keyboard-response","133","374812","0.0-15.0-0.0-0.0","7scbk0szh7","","7scbk0szh7","""2024-11-12T20:35:00.012Z""","null","+","null","","","","","","",""
"","","","","","image-keyboard-response","134","377636","0.0-15.0-0.0-1.0","7scbk0szh7","","7scbk0szh7","""2024-11-12T20:35:00.012Z""","2823","materials/imgs/D34.png","arrowright","","[""materials/imgs/D66.png"",""materials/imgs/D94.png""]","false","random","","",""
"","","","","","html-keyboard-response","135","378137","0.0-15.0-0.0-0.1","7scbk0szh7","","7scbk0szh7","""2024-11-12T20:35:00.012Z""","null","+","null","","","","","","",""
"","","","","","image-keyboard-response","136","379763","0.0-15.0-0.0-1.1","7scbk0szh7","","7scbk0szh7","""2024-11-12T20:35:00.012Z""","1625","materials/imgs/D6.png","arrowleft","","[""materials/imgs/D102.png"",""materials/imgs/D68.png""]","false","random","","",""
"","","","","","html-keyboard-response","137","380265","0.0-15.0-0.0-0.2","7scbk0szh7","","7scbk0szh7","""2024-11-12T20:35:00.012Z""","null","+","null","","","","","","",""
"","","","","","image-keyboard-response","138","381542","0.0-15.0-0.0-1.2","7scbk0szh7","","7scbk0szh7","""2024-11-12T20:35:00.012Z""","1276","materials/imgs/D105.png","arrowright","","[""materials/imgs/D94.png"",""materials/imgs/D83.png""]","false","random","","",""
"","","","","","html-keyboard-response","139","382044","0.0-15.0-0.0-0.3","7scbk0szh7","","7scbk0szh7","""2024-11-12T20:35:00.012Z""","null","+","null","","","","","","",""
"","","","","","image-keyboard-response","140","383621","0.0-15.0-0.0-1.3","7scbk0szh7","","7scbk0szh7","""2024-11-12T20:35:00.012Z""","1575","materials/imgs/D66.png","arrowright","","[""materials/imgs/D87.png"",""materials/imgs/D52.png""]","false","random","","",""
"","","","","","html-keyboard-response","141","384122","0.0-15.0-0.0-0.4","7scbk0szh7","","7scbk0szh7","""2024-11-12T20:35:00.012Z""","null","+","null","","","","","","",""
"","","","","","image-keyboard-response","142","385216","0.0-15.0-0.0-1.4","7scbk0szh7","","7scbk0szh7","""2024-11-12T20:35:00.012Z""","1093","materials/imgs/D22.png","arrowright","","[""materials/imgs/D25.png"",""materials/imgs/D66.png""]","false","random","","",""
"","","","","","html-keyboard-response","143","385718","0.0-15.0-0.0-0.5","7scbk0szh7","","7scbk0szh7","""2024-11-12T20:35:00.012Z""","null","+","null","","","","","","",""
"","","","","","image-keyboard-response","144","391954","0.0-15.0-0.0-1.5","7scbk0szh7","","7scbk0szh7","""2024-11-12T20:35:00.012Z""","6234","materials/imgs/D19.png","arrowright","","[""materials/imgs/D94.png"",""materials/imgs/D74.png""]","false","random","","",""
"","","","","","html-keyboard-response","145","392455","0.0-15.0-0.0-0.6","7scbk0szh7","","7scbk0szh7","""2024-11-12T20:35:00.012Z""","null","+","null","","","","","","",""
"","","","","","image-keyboard-response","146","393639","0.0-15.0-0.0-1.6","7scbk0szh7","","7scbk0szh7","""2024-11-12T20:35:00.012Z""","1183","materials/imgs/D55.png","arrowleft","","[""materials/imgs/D84.png"",""materials/imgs/D37.png""]","false","random","","",""
"","","","","","html-keyboard-response","147","394141","0.0-15.0-1.0-0.0","7scbk0szh7","","7scbk0szh7","""2024-11-12T20:35:00.012Z""","null","+","null","","","","","","",""
"","","","","","image-keyboard-response","148","394833","0.0-15.0-1.0-1.0","7scbk0szh7","","7scbk0szh7","""2024-11-12T20:35:00.012Z""","691","materials/imgs/D76.png","arrowleft","","[""materials/imgs/D76.png"",""materials/imgs/D78.png""]","","check","materials/imgs/D76.png","0","true"
"","","","","","html-keyboard-response","149","395334","0.0-15.0-2.0-0.0","7scbk0szh7","","7scbk0szh7","""2024-11-12T20:35:00.012Z""","null","+","null","","","","","","",""
"","","","","","image-keyboard-response","150","397253","0.0-15.0-2.0-1.0","7scbk0szh7","","7scbk0szh7","""2024-11-12T20:35:00.012Z""","1918","materials/imgs/D84.png","arrowright","","[""materials/imgs/D106.png"",""materials/imgs/D37.png""]","false","validation","","",""
"","","","","","html-keyboard-response","151","397755","0.0-15.0-2.0-0.1","7scbk0szh7","","7scbk0szh7","""2024-11-12T20:35:00.012Z""","null","+","null","","","","","","",""
"","","","","","image-keyboard-response","152","399035","0.0-15.0-2.0-1.1","7scbk0szh7","","7scbk0szh7","""2024-11-12T20:35:00.012Z""","1279","materials/imgs/D47.png","arrowleft","","[""materials/imgs/D1.png"",""materials/imgs/D52.png""]","false","validation","","",""
"","","","","","html-keyboard-response","153","399536","0.0-15.0-0.1-0.7","7scbk0szh7","","7scbk0szh7","""2024-11-12T20:35:00.012Z""","null","+","null","","","","","","",""
"","","","","","image-keyboard-response","154","401123","0.0-15.0-0.1-1.7","7scbk0szh7","","7scbk0szh7","""2024-11-12T20:35:00.012Z""","1585","materials/imgs/D37.png","arrowright","","[""materials/imgs/D6.png"",""materials/imgs/D102.png""]","false","random","","",""
"","","","","","html-keyboard-response","155","401625","0.0-15.0-0.1-0.8","7scbk0szh7","","7scbk0szh7","""2024-11-12T20:35:00.012Z""","null","+","null","","","","","","",""
"","","","","","image-keyboard-response","156","402429","0.0-15.0-0.1-1.8","7scbk0szh7","","7scbk0szh7","""2024-11-12T20:35:00.012Z""","803","materials/imgs/D57.png","arrowleft","","[""materials/imgs/D4.png"",""materials/imgs/D34.png""]","false","random","","",""
"","","","","","html-keyboard-response","157","402931","0.0-15.0-0.1-0.9","7scbk0szh7","","7scbk0szh7","""2024-11-12T20:35:00.012Z""","null","+","null","","","","","","",""
"","","","","","image-keyboard-response","158","404259","0.0-15.0-0.1-1.9","7scbk0szh7","","7scbk0szh7","""2024-11-12T20:35:00.012Z""","1327","materials/imgs/D105.png","arrowright","","[""materials/imgs/D52.png"",""materials/imgs/D36.png""]","false","random","","",""
"","","","","","html-keyboard-response","159","404760","0.0-15.0-0.1-0.10","7scbk0szh7","","7scbk0szh7","""2024-11-12T20:35:00.012Z""","null","+","null","","","","","","",""
"","","","","","image-keyboard-response","160","405762","0.0-15.0-0.1-1.10","7scbk0szh7","","7scbk0szh7","""2024-11-12T20:35:00.012Z""","1001","materials/imgs/D78.png","arrowleft","","[""materials/imgs/D83.png"",""materials/imgs/D25.png""]","false","random","","",""
"","","","","","html-keyboard-response","161","406263","0.0-15.0-0.1-0.11","7scbk0szh7","","7scbk0szh7","""2024-11-12T20:35:00.012Z""","null","+","null","","","","","","",""
"","","","","","image-keyboard-response","162","407155","0.0-15.0-0.1-1.11","7scbk0szh7","","7scbk0szh7","""2024-11-12T20:35:00.012Z""","890","materials/imgs/D79.png","arrowleft","","[""materials/imgs/D76.png"",""materials/imgs/D52.png""]","false","random","","",""
"","","","","","html-keyboard-response","163","407656","0.0-15.0-0.1-0.12","7scbk0szh7","","7scbk0szh7","""2024-11-12T20:35:00.012Z""","null","+","null","","","","","","",""
"","","","","","image-keyboard-response","164","409297","0.0-15.0-0.1-1.12","7scbk0szh7","","7scbk0szh7","""2024-11-12T20:35:00.012Z""","1640","materials/imgs/D104.png","arrowleft","","[""materials/imgs/D78.png"",""materials/imgs/D51.png""]","false","random","","",""
"","","","","","html-keyboard-response","165","409799","0.0-15.0-0.1-0.13","7scbk0szh7","","7scbk0szh7","""2024-11-12T20:35:00.012Z""","null","+","null","","","","","","",""
"","","","","","image-keyboard-response","166","411890","0.0-15.0-0.1-1.13","7scbk0szh7","","7scbk0szh7","""2024-11-12T20:35:00.012Z""","2090","materials/imgs/D82.png","arrowleft","","[""materials/imgs/D103.png"",""materials/imgs/D35.png""]","false","random","","",""
"","","","","","html-keyboard-response","167","412392","0.0-15.0-1.1-0.1","7scbk0szh7","","7scbk0szh7","""2024-11-12T20:35:00.012Z""","null","+","null","","","","","","",""
"","","","","","image-keyboard-response","168","413124","0.0-15.0-1.1-1.1","7scbk0szh7","","7scbk0szh7","""2024-11-12T20:35:00.012Z""","731","materials/imgs/D53.png","arrowright","","[""materials/imgs/D64.png"",""materials/imgs/D53.png""]","","check","materials/imgs/D53.png","1","true"
"","","","","","html-keyboard-response","169","413625","0.0-15.0-2.1-0.2","7scbk0szh7","","7scbk0szh7","""2024-11-12T20:35:00.012Z""","null","+","null","","","","","","",""
"","","","","","image-keyboard-response","170","415220","0.0-15.0-2.1-1.2","7scbk0szh7","","7scbk0szh7","""2024-11-12T20:35:00.012Z""","1593","materials/imgs/D37.png","arrowright","","[""materials/imgs/D84.png"",""materials/imgs/D111.png""]","false","validation","","",""
"","","","","","html-keyboard-response","171","415721","0.0-15.0-2.1-0.3","7scbk0szh7","","7scbk0szh7","""2024-11-12T20:35:00.012Z""","null","+","null","","","","","","",""
"","","","","","image-keyboard-response","172","417233","0.0-15.0-2.1-1.3","7scbk0szh7","","7scbk0szh7","""2024-11-12T20:35:00.012Z""","1511","materials/imgs/D85.png","arrowleft","","[""materials/imgs/D6.png"",""materials/imgs/D111.png""]","false","validation","","",""
"","","","","","html-keyboard-response","173","417735","0.0-15.0-0.2-0.14","7scbk0szh7","","7scbk0szh7","""2024-11-12T20:35:00.012Z""","null","+","null","","","","","","",""
"","","","","","image-keyboard-response","174","419444","0.0-15.0-0.2-1.14","7scbk0szh7","","7scbk0szh7","""2024-11-12T20:35:00.012Z""","1708","materials/imgs/D8.png","arrowleft","","[""materials/imgs/D24.png"",""materials/imgs/D80.png""]","false","random","","",""
"","","","","","html-keyboard-response","175","419946","0.0-15.0-0.2-0.15","7scbk0szh7","","7scbk0szh7","""2024-11-12T20:35:00.012Z""","null","+","null","","","","","","",""
"","","","","","image-keyboard-response","176","421179","0.0-15.0-0.2-1.15","7scbk0szh7","","7scbk0szh7","""2024-11-12T20:35:00.012Z""","1227","materials/imgs/D52.png","arrowright","","[""materials/imgs/D85.png"",""materials/imgs/D3.png""]","false","random","","",""
"","","","","","html-keyboard-response","177","421681","0.0-15.0-0.2-0.16","7scbk0szh7","","7scbk0szh7","""2024-11-12T20:35:00.012Z""","null","+","null","","","","","","",""
"","","","","","image-keyboard-response","178","423340","0.0-15.0-0.2-1.16","7scbk0szh7","","7scbk0szh7","""2024-11-12T20:35:00.012Z""","1657","materials/imgs/D83.png","arrowright","","[""materials/imgs/D32.png"",""materials/imgs/D68.png""]","false","random","","",""
"","","","","","html-keyboard-response","179","423841","0.0-15.0-0.2-0.17","7scbk0szh7","","7scbk0szh7","""2024-11-12T20:35:00.012Z""","null","+","null","","","","","","",""
"","","","","","image-keyboard-response","180","426094","0.0-15.0-0.2-1.17","7scbk0szh7","","7scbk0szh7","""2024-11-12T20:35:00.012Z""","2251","materials/imgs/D49.png","arrowleft","","[""materials/imgs/D32.png"",""materials/imgs/D111.png""]","false","random","","",""
"","","","","","html-keyboard-response","181","426594","0.0-15.0-0.2-0.18","7scbk0szh7","","7scbk0szh7","""2024-11-12T20:35:00.012Z""","null","+","null","","","","","","",""
"","","","","","image-keyboard-response","182","428680","0.0-15.0-0.2-1.18","7scbk0szh7","","7scbk0szh7","""2024-11-12T20:35:00.012Z""","2084","materials/imgs/D82.png","arrowleft","","[""materials/imgs/D52.png"",""materials/imgs/D16.png""]","false","random","","",""
"","","","","","html-keyboard-response","183","429181","0.0-15.0-0.2-0.19","7scbk0szh7","","7scbk0szh7","""2024-11-12T20:35:00.012Z""","null","+","null","","","","","","",""
"","","","","","image-keyboard-response","184","430715","0.0-15.0-0.2-1.19","7scbk0szh7","","7scbk0szh7","""2024-11-12T20:35:00.012Z""","1533","materials/imgs/D106.png","arrowleft","","[""materials/imgs/D29.png"",""materials/imgs/D26.png""]","false","random","","",""
"","","","","","html-keyboard-response","185","431217","0.0-15.0-0.2-0.20","7scbk0szh7","","7scbk0szh7","""2024-11-12T20:35:00.012Z""","null","+","null","","","","","","",""
"","","","","","image-keyboard-response","186","432041","0.0-15.0-0.2-1.20","7scbk0szh7","","7scbk0szh7","""2024-11-12T20:35:00.012Z""","823","materials/imgs/D57.png","arrowleft","","[""materials/imgs/D9.png"",""materials/imgs/D102.png""]","false","random","","",""
"","","","","","html-keyboard-response","187","432542","0.0-15.0-1.2-0.2","7scbk0szh7","","7scbk0szh7","""2024-11-12T20:35:00.012Z""","null","+","null","","","","","","",""
"","","","","","image-keyboard-response","188","433234","0.0-15.0-1.2-1.2","7scbk0szh7","","7scbk0szh7","""2024-11-12T20:35:00.012Z""","691","materials/imgs/D53.png","arrowright","","[""materials/imgs/D64.png"",""materials/imgs/D53.png""]","","check","materials/imgs/D53.png","1","true"
"","","","","","html-keyboard-response","189","433735","0.0-15.0-2.2-0.4","7scbk0szh7","","7scbk0szh7","""2024-11-12T20:35:00.012Z""","null","+","null","","","","","","",""
"","","","","","image-keyboard-response","190","435439","0.0-15.0-2.2-1.4","7scbk0szh7","","7scbk0szh7","""2024-11-12T20:35:00.012Z""","1703","materials/imgs/D64.png","arrowright","","[""materials/imgs/D6.png"",""materials/imgs/D81.png""]","false","validation","","",""
"","","","","","html-keyboard-response","191","435941","0.0-15.0-2.2-0.5","7scbk0szh7","","7scbk0szh7","""2024-11-12T20:35:00.012Z""","null","+","null","","","","","","",""
"","","","","","image-keyboard-response","192","437629","0.0-15.0-2.2-1.5","7scbk0szh7","","7scbk0szh7","""2024-11-12T20:35:00.012Z""","1687","materials/imgs/D49.png","arrowright","","[""materials/imgs/D8.png"",""materials/imgs/D101.png""]","false","validation","","",""
"","","","","","html-keyboard-response","193","438131","0.0-15.0-0.3-0.21","7scbk0szh7","","7scbk0szh7","""2024-11-12T20:35:00.012Z""","null","+","null","","","","","","",""
"","","","","","image-keyboard-response","194","438785","0.0-15.0-0.3-1.21","7scbk0szh7","","7scbk0szh7","""2024-11-12T20:35:00.012Z""","653","materials/imgs/D21.png","arrowleft","","[""materials/imgs/D53.png"",""materials/imgs/D46.png""]","false","random","","",""
"","","","","","html-keyboard-response","195","439286","0.0-15.0-0.3-0.22","7scbk0szh7","","7scbk0szh7","""2024-11-12T20:35:00.012Z""","null","+","null","","","","","","",""
"","","","","","image-keyboard-response","196","440224","0.0-15.0-0.3-1.22","7scbk0szh7","","7scbk0szh7","""2024-11-12T20:35:00.012Z""","936","materials/imgs/D24.png","arrowright","","[""materials/imgs/D49.png"",""materials/imgs/D66.png""]","false","random","","",""
"","","","","","html-keyboard-response","197","440725","0.0-15.0-0.3-0.23","7scbk0szh7","","7scbk0szh7","""2024-11-12T20:35:00.012Z""","null","+","null","","","","","","",""
"","","","","","image-keyboard-response","198","443625","0.0-15.0-0.3-1.23","7scbk0szh7","","7scbk0szh7","""2024-11-12T20:35:00.012Z""","2899","materials/imgs/D34.png","arrowleft","","[""materials/imgs/D104.png"",""materials/imgs/D101.png""]","false","random","","",""
"","","","","","html-keyboard-response","199","444126","0.0-15.0-0.3-0.24","7scbk0szh7","","7scbk0szh7","""2024-11-12T20:35:00.012Z""","null","+","null","","","","","","",""
"","","","","","image-keyboard-response","200","446023","0.0-15.0-0.3-1.24","7scbk0szh7","","7scbk0szh7","""2024-11-12T20:35:00.012Z""","1896","materials/imgs/D79.png","arrowleft","","[""materials/imgs/D65.png"",""materials/imgs/D25.png""]","false","random","","",""
"","","","","","html-keyboard-response","201","446524","0.0-15.0-0.3-0.25","7scbk0szh7","","7scbk0szh7","""2024-11-12T20:35:00.012Z""","null","+","null","","","","","","",""
"","","","","","image-keyboard-response","202","447477","0.0-15.0-0.3-1.25","7scbk0szh7","","7scbk0szh7","""2024-11-12T20:35:00.012Z""","952","materials/imgs/D80.png","arrowright","","[""materials/imgs/D1.png"",""materials/imgs/D84.png""]","false","random","","",""
"","","","","","html-keyboard-response","203","447979","0.0-15.0-0.3-0.26","7scbk0szh7","","7scbk0szh7","""2024-11-12T20:35:00.012Z""","null","+","null","","","","","","",""
"","","","","","image-keyboard-response","204","449876","0.0-15.0-0.3-1.26","7scbk0szh7","","7scbk0szh7","""2024-11-12T20:35:00.012Z""","1896","materials/imgs/D22.png","arrowright","","[""materials/imgs/D78.png"",""materials/imgs/D82.png""]","false","random","","",""
"","","","","","html-keyboard-response","205","450378","0.0-15.0-0.3-0.27","7scbk0szh7","","7scbk0szh7","""2024-11-12T20:35:00.012Z""","null","+","null","","","","","","",""
"","","","","","image-keyboard-response","206","451456","0.0-15.0-0.3-1.27","7scbk0szh7","","7scbk0szh7","""2024-11-12T20:35:00.012Z""","1077","materials/imgs/D79.png","arrowleft","","[""materials/imgs/D80.png"",""materials/imgs/D1.png""]","false","random","","",""
"","","","","","html-keyboard-response","207","451958","0.0-15.0-1.3-0.3","7scbk0szh7","","7scbk0szh7","""2024-11-12T20:35:00.012Z""","null","+","null","","","","","","",""
"","","","","","image-keyboard-response","208","452642","0.0-15.0-1.3-1.3","7scbk0szh7","","7scbk0szh7","""2024-11-12T20:35:00.012Z""","683","materials/imgs/D76.png","arrowleft","","[""materials/imgs/D76.png"",""materials/imgs/D78.png""]","","check","materials/imgs/D76.png","0","true"
"","","","","","html-keyboard-response","209","453143","0.0-15.0-2.3-0.6","7scbk0szh7","","7scbk0szh7","""2024-11-12T20:35:00.012Z""","null","+","null","","","","","","",""
"","","","","","image-keyboard-response","210","455405","0.0-15.0-2.3-1.6","7scbk0szh7","","7scbk0szh7","""2024-11-12T20:35:00.012Z""","2261","materials/imgs/D51.png","arrowleft","","[""materials/imgs/D92.png"",""materials/imgs/D20.png""]","false","validation","","",""
"","","","","","html-keyboard-response","211","455906","0.0-15.0-2.3-0.7","7scbk0szh7","","7scbk0szh7","""2024-11-12T20:35:00.012Z""","null","+","null","","","","","","",""
"","","","","","image-keyboard-response","212","456543","0.0-15.0-2.3-1.7","7scbk0szh7","","7scbk0szh7","""2024-11-12T20:35:00.012Z""","635","materials/imgs/D105.png","arrowleft","","[""materials/imgs/D106.png"",""materials/imgs/D52.png""]","false","validation","","",""
"","","","","","html-keyboard-response","213","457044","0.0-15.0-0.4-0.28","7scbk0szh7","","7scbk0szh7","""2024-11-12T20:35:00.012Z""","null","+","null","","","","","","",""
"","","","","","image-keyboard-response","214","460033","0.0-15.0-0.4-1.28","7scbk0szh7","","7scbk0szh7","""2024-11-12T20:35:00.012Z""","2987","materials/imgs/D74.png","arrowright","","[""materials/imgs/D51.png"",""materials/imgs/D84.png""]","false","random","","",""
"","","","","","html-keyboard-response","215","460534","0.0-15.0-0.4-0.29","7scbk0szh7","","7scbk0szh7","""2024-11-12T20:35:00.012Z""","null","+","null","","","","","","",""
"","","","","","image-keyboard-response","216","461684","0.0-15.0-0.4-1.29","7scbk0szh7","","7scbk0szh7","""2024-11-12T20:35:00.012Z""","1149","materials/imgs/D18.png","arrowleft","","[""materials/imgs/D80.png"",""materials/imgs/D29.png""]","false","random","","",""
"","","","","","html-keyboard-response","217","462185","0.0-15.0-0.4-0.30","7scbk0szh7","","7scbk0szh7","""2024-11-12T20:35:00.012Z""","null","+","null","","","","","","",""
"","","","","","image-keyboard-response","218","464345","0.0-15.0-0.4-1.30","7scbk0szh7","","7scbk0szh7","""2024-11-12T20:35:00.012Z""","2158","materials/imgs/D111.png","arrowright","","[""materials/imgs/D79.png"",""materials/imgs/D102.png""]","false","random","","",""
"","","","","","html-keyboard-response","219","464847","0.0-15.0-0.4-0.31","7scbk0szh7","","7scbk0szh7","""2024-11-12T20:35:00.012Z""","null","+","null","","","","","","",""
"","","","","","image-keyboard-response","220","466981","0.0-15.0-0.4-1.31","7scbk0szh7","","7scbk0szh7","""2024-11-12T20:35:00.012Z""","2133","materials/imgs/D1.png","arrowright","","[""materials/imgs/D20.png"",""materials/imgs/D53.png""]","false","random","","",""
"","","","","","html-keyboard-response","221","467483","0.0-15.0-0.4-0.32","7scbk0szh7","","7scbk0szh7","""2024-11-12T20:35:00.012Z""","null","+","null","","","","","","",""
"","","","","","image-keyboard-response","222","469133","0.0-15.0-0.4-1.32","7scbk0szh7","","7scbk0szh7","""2024-11-12T20:35:00.012Z""","1648","materials/imgs/D19.png","arrowright","","[""materials/imgs/D51.png"",""materials/imgs/D4.png""]","false","random","","",""
"","","","","","html-keyboard-response","223","469634","0.0-15.0-0.4-0.33","7scbk0szh7","","7scbk0szh7","""2024-11-12T20:35:00.012Z""","null","+","null","","","","","","",""
"","","","","","image-keyboard-response","224","471174","0.0-15.0-0.4-1.33","7scbk0szh7","","7scbk0szh7","""2024-11-12T20:35:00.012Z""","1539","materials/imgs/D16.png","arrowright","","[""materials/imgs/D52.png"",""materials/imgs/D82.png""]","false","random","","",""
"","","","","","html-keyboard-response","225","471676","0.0-15.0-0.4-0.34","7scbk0szh7","","7scbk0szh7","""2024-11-12T20:35:00.012Z""","null","+","null","","","","","","",""
"","","","","","image-keyboard-response","226","474684","0.0-15.0-0.4-1.34","7scbk0szh7","","7scbk0szh7","""2024-11-12T20:35:00.012Z""","3007","materials/imgs/D75.png","arrowleft","","[""materials/imgs/D6.png"",""materials/imgs/D77.png""]","false","random","","",""
"","","","","","html-keyboard-response","227","475186","0.0-15.0-1.4-0.4","7scbk0szh7","","7scbk0szh7","""2024-11-12T20:35:00.012Z""","null","+","null","","","","","","",""
"","","","","","image-keyboard-response","228","475832","0.0-15.0-1.4-1.4","7scbk0szh7","","7scbk0szh7","""2024-11-12T20:35:00.012Z""","645","materials/imgs/D26.png","arrowleft","","[""materials/imgs/D26.png"",""materials/imgs/D46.png""]","","check","materials/imgs/D26.png","0","true"
"","","","","","html-keyboard-response","229","476333","0.0-15.0-2.4-0.8","7scbk0szh7","","7scbk0szh7","""2024-11-12T20:35:00.012Z""","null","+","null","","","","","","",""
"","","","","","image-keyboard-response","230","478729","0.0-15.0-2.4-1.8","7scbk0szh7","","7scbk0szh7","""2024-11-12T20:35:00.012Z""","2395","materials/imgs/D92.png","arrowright","","[""materials/imgs/D56.png"",""materials/imgs/D77.png""]","false","validation","","",""
"","","","","","html-keyboard-response","231","479231","0.0-15.0-2.4-0.9","7scbk0szh7","","7scbk0szh7","""2024-11-12T20:35:00.012Z""","null","+","null","","","","","","",""
"","","","","","image-keyboard-response","232","481040","0.0-15.0-2.4-1.9","7scbk0szh7","","7scbk0szh7","""2024-11-12T20:35:00.012Z""","1808","materials/imgs/D56.png","arrowleft","","[""materials/imgs/D25.png"",""materials/imgs/D105.png""]","false","validation","","",""
"","","","","","html-button-response","233","527665","0.0-16.0","7scbk0szh7","","7scbk0szh7","""2024-11-12T20:35:00.012Z""","46624","You have completed 50% of the trials. Please click 'Continue' when you are ready proceed.","0","","","","","","",""
"","","","","","html-keyboard-response","234","528167","0.0-17.0-0.0-0.0","7scbk0szh7","","7scbk0szh7","""2024-11-12T20:35:00.012Z""","null","+","null","","","","","","",""
"","","","","","image-keyboard-response","235","530826","0.0-17.0-0.0-1.0","7scbk0szh7","","7scbk0szh7","""2024-11-12T20:35:00.012Z""","2658","materials/imgs/D34.png","arrowleft","","[""materials/imgs/D56.png"",""materials/imgs/D17.png""]","false","random","","",""
"","","","","","html-keyboard-response","236","531328","0.0-17.0-0.0-0.1","7scbk0szh7","","7scbk0szh7","""2024-11-12T20:35:00.012Z""","null","+","null","","","","","","",""
"","","","","","image-keyboard-response","237","532508","0.0-17.0-0.0-1.1","7scbk0szh7","","7scbk0szh7","""2024-11-12T20:35:00.012Z""","1179","materials/imgs/D34.png","arrowleft","","[""materials/imgs/D48.png"",""materials/imgs/D83.png""]","false","random","","",""
"","","","","","html-keyboard-response","238","533010","0.0-17.0-0.0-0.2","7scbk0szh7","","7scbk0szh7","""2024-11-12T20:35:00.012Z""","null","+","null","","","","","","",""
"","","","","","image-keyboard-response","239","534497","0.0-17.0-0.0-1.2","7scbk0szh7","","7scbk0szh7","""2024-11-12T20:35:00.012Z""","1486","materials/imgs/D21.png","arrowleft","","[""materials/imgs/D85.png"",""materials/imgs/D94.png""]","false","random","","",""
"","","","","","html-keyboard-response","240","534999","0.0-17.0-0.0-0.3","7scbk0szh7","","7scbk0szh7","""2024-11-12T20:35:00.012Z""","null","+","null","","","","","","",""
"","","","","","image-keyboard-response","241","537892","0.0-17.0-0.0-1.3","7scbk0szh7","","7scbk0szh7","""2024-11-12T20:35:00.012Z""","2892","materials/imgs/D29.png","arrowright","","[""materials/imgs/D8.png"",""materials/imgs/D79.png""]","false","random","","",""
"","","","","","html-keyboard-response","242","538394","0.0-17.0-0.0-0.4","7scbk0szh7","","7scbk0szh7","""2024-11-12T20:35:00.012Z""","null","+","null","","","","","","",""
"","","","","","image-keyboard-response","243","539409","0.0-17.0-0.0-1.4","7scbk0szh7","","7scbk0szh7","""2024-11-12T20:35:00.012Z""","1014","materials/imgs/D29.png","arrowright","","[""materials/imgs/D49.png"",""materials/imgs/D57.png""]","false","random","","",""
"","","","","","html-keyboard-response","244","539911","0.0-17.0-0.0-0.5","7scbk0szh7","","7scbk0szh7","""2024-11-12T20:35:00.012Z""","null","+","null","","","","","","",""
"","","","","","image-keyboard-response","245","541180","0.0-17.0-0.0-1.5","7scbk0szh7","","7scbk0szh7","""2024-11-12T20:35:00.012Z""","1268","materials/imgs/D8.png","arrowright","","[""materials/imgs/D51.png"",""materials/imgs/D75.png""]","false","random","","",""
"","","","","","html-keyboard-response","246","541682","0.0-17.0-0.0-0.6","7scbk0szh7","","7scbk0szh7","""2024-11-12T20:35:00.012Z""","null","+","null","","","","","","",""
"","","","","","image-keyboard-response","247","542472","0.0-17.0-0.0-1.6","7scbk0szh7","","7scbk0szh7","""2024-11-12T20:35:00.012Z""","789","materials/imgs/D32.png","arrowleft","","[""materials/imgs/D29.png"",""materials/imgs/D34.png""]","false","random","","",""
"","","","","","html-keyboard-response","248","542973","0.0-17.0-1.0-0.0","7scbk0szh7","","7scbk0szh7","""2024-11-12T20:35:00.012Z""","null","+","null","","","","","","",""
"","","","","","image-keyboard-response","249","543574","0.0-17.0-1.0-1.0","7scbk0szh7","","7scbk0szh7","""2024-11-12T20:35:00.012Z""","600","materials/imgs/D26.png","arrowleft","","[""materials/imgs/D26.png"",""materials/imgs/D46.png""]","","check","materials/imgs/D26.png","0","true"
"","","","","","html-keyboard-response","250","544075","0.0-17.0-2.0-0.0","7scbk0szh7","","7scbk0szh7","""2024-11-12T20:35:00.012Z""","null","+","null","","","","","","",""
"","","","","","image-keyboard-response","251","546171","0.0-17.0-2.0-1.0","7scbk0szh7","","7scbk0szh7","""2024-11-12T20:35:00.012Z""","2095","materials/imgs/D64.png","arrowright","","[""materials/imgs/D6.png"",""materials/imgs/D81.png""]","false","validation","","",""
"","","","","","html-keyboard-response","252","546672","0.0-17.0-2.0-0.1","7scbk0szh7","","7scbk0szh7","""2024-11-12T20:35:00.012Z""","null","+","null","","","","","","",""
"","","","","","image-keyboard-response","253","550117","0.0-17.0-2.0-1.1","7scbk0szh7","","7scbk0szh7","""2024-11-12T20:35:00.012Z""","3444","materials/imgs/D77.png","arrowleft","","[""materials/imgs/D102.png"",""materials/imgs/D65.png""]","false","validation","","",""
"","","","","","html-keyboard-response","254","550619","0.0-17.0-0.1-0.7","7scbk0szh7","","7scbk0szh7","""2024-11-12T20:35:00.012Z""","null","+","null","","","","","","",""
"","","","","","image-keyboard-response","255","551801","0.0-17.0-0.1-1.7","7scbk0szh7","","7scbk0szh7","""2024-11-12T20:35:00.012Z""","1180","materials/imgs/D56.png","arrowleft","","[""materials/imgs/D101.png"",""materials/imgs/D36.png""]","false","random","","",""
"","","","","","html-keyboard-response","256","552303","0.0-17.0-0.1-0.8","7scbk0szh7","","7scbk0szh7","""2024-11-12T20:35:00.012Z""","null","+","null","","","","","","",""
"","","","","","image-keyboard-response","257","553594","0.0-17.0-0.1-1.8","7scbk0szh7","","7scbk0szh7","""2024-11-12T20:35:00.012Z""","1290","materials/imgs/D68.png","arrowleft","","[""materials/imgs/D17.png"",""materials/imgs/D77.png""]","false","random","","",""
"","","","","","html-keyboard-response","258","554096","0.0-17.0-0.1-0.9","7scbk0szh7","","7scbk0szh7","""2024-11-12T20:35:00.012Z""","null","+","null","","","","","","",""
"","","","","","image-keyboard-response","259","555383","0.0-17.0-0.1-1.9","7scbk0szh7","","7scbk0szh7","""2024-11-12T20:35:00.012Z""","1287","materials/imgs/D77.png","arrowleft","","[""materials/imgs/D84.png"",""materials/imgs/D20.png""]","false","random","","",""
"","","","","","html-keyboard-response","260","555885","0.0-17.0-0.1-0.10","7scbk0szh7","","7scbk0szh7","""2024-11-12T20:35:00.012Z""","null","+","null","","","","","","",""
"","","","","","image-keyboard-response","261","558132","0.0-17.0-0.1-1.10","7scbk0szh7","","7scbk0szh7","""2024-11-12T20:35:00.012Z""","2246","materials/imgs/D103.png","arrowright","","[""materials/imgs/D11.png"",""materials/imgs/D95.png""]","false","random","","",""
"","","","","","html-keyboard-response","262","558634","0.0-17.0-0.1-0.11","7scbk0szh7","","7scbk0szh7","""2024-11-12T20:35:00.012Z""","null","+","null","","","","","","",""
"","","","","","image-keyboard-response","263","559963","0.0-17.0-0.1-1.11","7scbk0szh7","","7scbk0szh7","""2024-11-12T20:35:00.012Z""","1328","materials/imgs/D20.png","arrowright","","[""materials/imgs/D68.png"",""materials/imgs/D57.png""]","false","random","","",""
"","","","","","html-keyboard-response","264","560465","0.0-17.0-0.1-0.12","7scbk0szh7","","7scbk0szh7","""2024-11-12T20:35:00.012Z""","null","+","null","","","","","","",""
"","","","","","image-keyboard-response","265","561529","0.0-17.0-0.1-1.12","7scbk0szh7","","7scbk0szh7","""2024-11-12T20:35:00.012Z""","1062","materials/imgs/D35.png","arrowleft","","[""materials/imgs/D36.png"",""materials/imgs/D74.png""]","false","random","","",""
"","","","","","html-keyboard-response","266","562030","0.0-17.0-0.1-0.13","7scbk0szh7","","7scbk0szh7","""2024-11-12T20:35:00.012Z""","null","+","null","","","","","","",""
"","","","","","image-keyboard-response","267","563409","0.0-17.0-0.1-1.13","7scbk0szh7","","7scbk0szh7","""2024-11-12T20:35:00.012Z""","1377","materials/imgs/D26.png","arrowleft","","[""materials/imgs/D82.png"",""materials/imgs/D101.png""]","false","random","","",""
"","","","","","html-keyboard-response","268","563910","0.0-17.0-1.1-0.1","7scbk0szh7","","7scbk0szh7","""2024-11-12T20:35:00.012Z""","null","+","null","","","","","","",""
"","","","","","image-keyboard-response","269","564618","0.0-17.0-1.1-1.1","7scbk0szh7","","7scbk0szh7","""2024-11-12T20:35:00.012Z""","707","materials/imgs/D46.png","arrowleft","","[""materials/imgs/D46.png"",""materials/imgs/D26.png""]","","check","materials/imgs/D46.png","0","true"
"","","","","","html-keyboard-response","270","565119","0.0-17.0-2.1-0.2","7scbk0szh7","","7scbk0szh7","""2024-11-12T20:35:00.012Z""","null","+","null","","","","","","",""
"","","","","","image-keyboard-response","271","568254","0.0-17.0-2.1-1.2","7scbk0szh7","","7scbk0szh7","""2024-11-12T20:35:00.012Z""","3134","materials/imgs/D84.png","arrowleft","","[""materials/imgs/D106.png"",""materials/imgs/D37.png""]","false","validation","","",""
"","","","","","html-keyboard-response","272","568756","0.0-17.0-2.1-0.3","7scbk0szh7","","7scbk0szh7","""2024-11-12T20:35:00.012Z""","null","+","null","","","","","","",""
"","","","","","image-keyboard-response","273","571155","0.0-17.0-2.1-1.3","7scbk0szh7","","7scbk0szh7","""2024-11-12T20:35:00.012Z""","2398","materials/imgs/D52.png","arrowleft","","[""materials/imgs/D9.png"",""materials/imgs/D19.png""]","false","validation","","",""
"","","","","","html-keyboard-response","274","571656","0.0-17.0-0.2-0.14","7scbk0szh7","","7scbk0szh7","""2024-11-12T20:35:00.012Z""","null","+","null","","","","","","",""
"","","","","","image-keyboard-response","275","573682","0.0-17.0-0.2-1.14","7scbk0szh7","","7scbk0szh7","""2024-11-12T20:35:00.012Z""","2025","materials/imgs/D65.png","arrowleft","","[""materials/imgs/D14.png"",""materials/imgs/D20.png""]","false","random","","",""
"","","","","","html-keyboard-response","276","574184","0.0-17.0-0.2-0.15","7scbk0szh7","","7scbk0szh7","""2024-11-12T20:35:00.012Z""","null","+","null","","","","","","",""
"","","","","","image-keyboard-response","277","576707","0.0-17.0-0.2-1.15","7scbk0szh7","","7scbk0szh7","""2024-11-12T20:35:00.012Z""","2522","materials/imgs/D8.png","arrowleft","","[""materials/imgs/D32.png"",""materials/imgs/D37.png""]","false","random","","",""
"","","","","","html-keyboard-response","278","577209","0.0-17.0-0.2-0.16","7scbk0szh7","","7scbk0szh7","""2024-11-12T20:35:00.012Z""","null","+","null","","","","","","",""
"","","","","","image-keyboard-response","279","578705","0.0-17.0-0.2-1.16","7scbk0szh7","","7scbk0szh7","""2024-11-12T20:35:00.012Z""","1495","materials/imgs/D84.png","arrowleft","","[""materials/imgs/D16.png"",""materials/imgs/D47.png""]","false","random","","",""
"","","","","","html-keyboard-response","280","579207","0.0-17.0-0.2-0.17","7scbk0szh7","","7scbk0szh7","""2024-11-12T20:35:00.012Z""","null","+","null","","","","","","",""
"","","","","","image-keyboard-response","281","580431","0.0-17.0-0.2-1.17","7scbk0szh7","","7scbk0szh7","""2024-11-12T20:35:00.012Z""","1222","materials/imgs/D29.png","arrowright","","[""materials/imgs/D37.png"",""materials/imgs/D26.png""]","false","random","","",""
"","","","","","html-keyboard-response","282","580932","0.0-17.0-0.2-0.18","7scbk0szh7","","7scbk0szh7","""2024-11-12T20:35:00.012Z""","null","+","null","","","","","","",""
"","","","","","image-keyboard-response","283","581923","0.0-17.0-0.2-1.18","7scbk0szh7","","7scbk0szh7","""2024-11-12T20:35:00.012Z""","990","materials/imgs/D82.png","arrowright","","[""materials/imgs/D48.png"",""materials/imgs/D24.png""]","false","random","","",""
"","","","","","html-keyboard-response","284","582424","0.0-17.0-0.2-0.19","7scbk0szh7","","7scbk0szh7","""2024-11-12T20:35:00.012Z""","null","+","null","","","","","","",""
"","","","","","image-keyboard-response","285","583862","0.0-17.0-0.2-1.19","7scbk0szh7","","7scbk0szh7","""2024-11-12T20:35:00.012Z""","1436","materials/imgs/D52.png","arrowright","","[""materials/imgs/D83.png"",""materials/imgs/D16.png""]","false","random","","",""
"","","","","","html-keyboard-response","286","584363","0.0-17.0-0.2-0.20","7scbk0szh7","","7scbk0szh7","""2024-11-12T20:35:00.012Z""","null","+","null","","","","","","",""
"","","","","","image-keyboard-response","287","589440","0.0-17.0-0.2-1.20","7scbk0szh7","","7scbk0szh7","""2024-11-12T20:35:00.012Z""","5076","materials/imgs/D80.png","arrowleft","","[""materials/imgs/D20.png"",""materials/imgs/D1.png""]","false","random","","",""
"","","","","","html-keyboard-response","288","589941","0.0-17.0-1.2-0.2","7scbk0szh7","","7scbk0szh7","""2024-11-12T20:35:00.012Z""","null","+","null","","","","","","",""
"","","","","","image-keyboard-response","289","590657","0.0-17.0-1.2-1.2","7scbk0szh7","","7scbk0szh7","""2024-11-12T20:35:00.012Z""","714","materials/imgs/D101.png","arrowright","","[""materials/imgs/D106.png"",""materials/imgs/D101.png""]","","check","materials/imgs/D101.png","1","true"
"","","","","","html-keyboard-response","290","591158","0.0-17.0-2.2-0.4","7scbk0szh7","","7scbk0szh7","""2024-11-12T20:35:00.012Z""","null","+","null","","","","","","",""
"","","","","","image-keyboard-response","291","592066","0.0-17.0-2.2-1.4","7scbk0szh7","","7scbk0szh7","""2024-11-12T20:35:00.012Z""","907","materials/imgs/D76.png","arrowleft","","[""materials/imgs/D83.png"",""materials/imgs/D6.png""]","false","validation","","",""
"","","","","","html-keyboard-response","292","592567","0.0-17.0-2.2-0.5","7scbk0szh7","","7scbk0szh7","""2024-11-12T20:35:00.012Z""","null","+","null","","","","","","",""
"","","","","","image-keyboard-response","293","593982","0.0-17.0-2.2-1.5","7scbk0szh7","","7scbk0szh7","""2024-11-12T20:35:00.012Z""","1413","materials/imgs/D111.png","arrowright","","[""materials/imgs/D82.png"",""materials/imgs/D95.png""]","false","validation","","",""
"","","","","","html-keyboard-response","294","594483","0.0-17.0-0.3-0.21","7scbk0szh7","","7scbk0szh7","""2024-11-12T20:35:00.012Z""","null","+","null","","","","","","",""
"","","","","","image-keyboard-response","295","595773","0.0-17.0-0.3-1.21","7scbk0szh7","","7scbk0szh7","""2024-11-12T20:35:00.012Z""","1289","materials/imgs/D35.png","arrowright","","[""materials/imgs/D95.png"",""materials/imgs/D4.png""]","false","random","","",""
"","","","","","html-keyboard-response","296","596275","0.0-17.0-0.3-0.22","7scbk0szh7","","7scbk0szh7","""2024-11-12T20:35:00.012Z""","null","+","null","","","","","","",""
"","","","","","image-keyboard-response","297","599452","0.0-17.0-0.3-1.22","7scbk0szh7","","7scbk0szh7","""2024-11-12T20:35:00.012Z""","3176","materials/imgs/D74.png","arrowleft","","[""materials/imgs/D19.png"",""materials/imgs/D48.png""]","false","random","","",""
"","","","","","html-keyboard-response","298","599954","0.0-17.0-0.3-0.23","7scbk0szh7","","7scbk0szh7","""2024-11-12T20:35:00.012Z""","null","+","null","","","","","","",""
"","","","","","image-keyboard-response","299","602080","0.0-17.0-0.3-1.23","7scbk0szh7","","7scbk0szh7","""2024-11-12T20:35:00.012Z""","2125","materials/imgs/D106.png","arrowleft","","[""materials/imgs/D22.png"",""materials/imgs/D47.png""]","false","random","","",""
"","","","","","html-keyboard-response","300","602581","0.0-17.0-0.3-0.24","7scbk0szh7","","7scbk0szh7","""2024-11-12T20:35:00.012Z""","null","+","null","","","","","","",""
"","","","","","image-keyboard-response","301","603692","0.0-17.0-0.3-1.24","7scbk0szh7","","7scbk0szh7","""2024-11-12T20:35:00.012Z""","1110","materials/imgs/D6.png","arrowright","","[""materials/imgs/D26.png"",""materials/imgs/D48.png""]","false","random","","",""
"","","","","","html-keyboard-response","302","604193","0.0-17.0-0.3-0.25","7scbk0szh7","","7scbk0szh7","""2024-11-12T20:35:00.012Z""","null","+","null","","","","","","",""
"","","","","","image-keyboard-response","303","605220","0.0-17.0-0.3-1.25","7scbk0szh7","","7scbk0szh7","""2024-11-12T20:35:00.012Z""","1020","materials/imgs/D21.png","arrowleft","","[""materials/imgs/D22.png"",""materials/imgs/D20.png""]","false","random","","",""
"","","","","","html-keyboard-response","304","605722","0.0-17.0-0.3-0.26","7scbk0szh7","","7scbk0szh7","""2024-11-12T20:35:00.012Z""","null","+","null","","","","","","",""
"","","","","","image-keyboard-response","305","607183","0.0-17.0-0.3-1.26","7scbk0szh7","","7scbk0szh7","""2024-11-12T20:35:00.012Z""","1459","materials/imgs/D19.png","arrowright","","[""materials/imgs/D87.png"",""materials/imgs/D68.png""]","false","random","","",""
"","","","","","html-keyboard-response","306","607685","0.0-17.0-0.3-0.27","7scbk0szh7","","7scbk0szh7","""2024-11-12T20:35:00.012Z""","null","+","null","","","","","","",""
"","","","","","image-keyboard-response","307","609421","0.0-17.0-0.3-1.27","7scbk0szh7","","7scbk0szh7","""2024-11-12T20:35:00.012Z""","1735","materials/imgs/D35.png","arrowleft","","[""materials/imgs/D101.png"",""materials/imgs/D6.png""]","false","random","","",""
"","","","","","html-keyboard-response","308","609922","0.0-17.0-1.3-0.3","7scbk0szh7","","7scbk0szh7","""2024-11-12T20:35:00.012Z""","null","+","null","","","","","","",""
"","","","","","image-keyboard-response","309","610630","0.0-17.0-1.3-1.3","7scbk0szh7","","7scbk0szh7","""2024-11-12T20:35:00.012Z""","706","materials/imgs/D46.png","arrowleft","","[""materials/imgs/D46.png"",""materials/imgs/D26.png""]","","check","materials/imgs/D46.png","0","true"
"","","","","","html-keyboard-response","310","611132","0.0-17.0-2.3-0.6","7scbk0szh7","","7scbk0szh7","""2024-11-12T20:35:00.012Z""","null","+","null","","","","","","",""
"","","","","","image-keyboard-response","311","611914","0.0-17.0-2.3-1.6","7scbk0szh7","","7scbk0szh7","""2024-11-12T20:35:00.012Z""","781","materials/imgs/D24.png","arrowleft","","[""materials/imgs/D36.png"",""materials/imgs/D8.png""]","false","validation","","",""
"","","","","","html-keyboard-response","312","612415","0.0-17.0-2.3-0.7","7scbk0szh7","","7scbk0szh7","""2024-11-12T20:35:00.012Z""","null","+","null","","","","","","",""
"","","","","","image-keyboard-response","313","614289","0.0-17.0-2.3-1.7","7scbk0szh7","","7scbk0szh7","""2024-11-12T20:35:00.012Z""","1872","materials/imgs/D103.png","arrowright","","[""materials/imgs/D76.png"",""materials/imgs/D106.png""]","false","validation","","",""
"","","","","","html-keyboard-response","314","614791","0.0-17.0-0.4-0.28","7scbk0szh7","","7scbk0szh7","""2024-11-12T20:35:00.012Z""","null","+","null","","","","","","",""
"","","","","","image-keyboard-response","315","619359","0.0-17.0-0.4-1.28","7scbk0szh7","","7scbk0szh7","""2024-11-12T20:35:00.012Z""","4567","materials/imgs/D22.png","arrowleft","","[""materials/imgs/D29.png"",""materials/imgs/D9.png""]","false","random","","",""
"","","","","","html-keyboard-response","316","619860","0.0-17.0-0.4-0.29","7scbk0szh7","","7scbk0szh7","""2024-11-12T20:35:00.012Z""","null","+","null","","","","","","",""
"","","","","","image-keyboard-response","317","621386","0.0-17.0-0.4-1.29","7scbk0szh7","","7scbk0szh7","""2024-11-12T20:35:00.012Z""","1525","materials/imgs/D87.png","arrowleft","","[""materials/imgs/D46.png"",""materials/imgs/D8.png""]","false","random","","",""
"","","","","","html-keyboard-response","318","621888","0.0-17.0-0.4-0.30","7scbk0szh7","","7scbk0szh7","""2024-11-12T20:35:00.012Z""","null","+","null","","","","","","",""
"","","","","","image-keyboard-response","319","625544","0.0-17.0-0.4-1.30","7scbk0szh7","","7scbk0szh7","""2024-11-12T20:35:00.012Z""","3655","materials/imgs/D84.png","arrowleft","","[""materials/imgs/D24.png"",""materials/imgs/D87.png""]","false","random","","",""
"","","","","","html-keyboard-response","320","626046","0.0-17.0-0.4-0.31","7scbk0szh7","","7scbk0szh7","""2024-11-12T20:35:00.012Z""","null","+","null","","","","","","",""
"","","","","","image-keyboard-response","321","627788","0.0-17.0-0.4-1.31","7scbk0szh7","","7scbk0szh7","""2024-11-12T20:35:00.012Z""","1741","materials/imgs/D36.png","arrowleft","","[""materials/imgs/D35.png"",""materials/imgs/D83.png""]","false","random","","",""
"","","","","","html-keyboard-response","322","628290","0.0-17.0-0.4-0.32","7scbk0szh7","","7scbk0szh7","""2024-11-12T20:35:00.012Z""","null","+","null","","","","","","",""
"","","","","","image-keyboard-response","323","630707","0.0-17.0-0.4-1.32","7scbk0szh7","","7scbk0szh7","""2024-11-12T20:35:00.012Z""","2416","materials/imgs/D22.png","arrowright","","[""materials/imgs/D19.png"",""materials/imgs/D49.png""]","false","random","","",""
"","","","","","html-keyboard-response","324","631209","0.0-17.0-0.4-0.33","7scbk0szh7","","7scbk0szh7","""2024-11-12T20:35:00.012Z""","null","+","null","","","","","","",""
"","","","","","image-keyboard-response","325","632838","0.0-17.0-0.4-1.33","7scbk0szh7","","7scbk0szh7","""2024-11-12T20:35:00.012Z""","1628","materials/imgs/D8.png","arrowright","","[""materials/imgs/D78.png"",""materials/imgs/D96.png""]","false","random","","",""
"","","","","","html-keyboard-response","326","633339","0.0-17.0-0.4-0.34","7scbk0szh7","","7scbk0szh7","""2024-11-12T20:35:00.012Z""","null","+","null","","","","","","",""
"","","","","","image-keyboard-response","327","636976","0.0-17.0-0.4-1.34","7scbk0szh7","","7scbk0szh7","""2024-11-12T20:35:00.012Z""","3635","materials/imgs/D111.png","arrowleft","","[""materials/imgs/D92.png"",""materials/imgs/D49.png""]","false","random","","",""
"","","","","","html-keyboard-response","328","637477","0.0-17.0-1.4-0.4","7scbk0szh7","","7scbk0szh7","""2024-11-12T20:35:00.012Z""","null","+","null","","","","","","",""
"","","","","","image-keyboard-response","329","638335","0.0-17.0-1.4-1.4","7scbk0szh7","","7scbk0szh7","""2024-11-12T20:35:00.012Z""","856","materials/imgs/D101.png","arrowright","","[""materials/imgs/D106.png"",""materials/imgs/D101.png""]","","check","materials/imgs/D101.png","1","true"
"","","","","","html-keyboard-response","330","638836","0.0-17.0-2.4-0.8","7scbk0szh7","","7scbk0szh7","""2024-11-12T20:35:00.012Z""","null","+","null","","","","","","",""
"","","","","","image-keyboard-response","331","640571","0.0-17.0-2.4-1.8","7scbk0szh7","","7scbk0szh7","""2024-11-12T20:35:00.012Z""","1734","materials/imgs/D32.png","arrowleft","","[""materials/imgs/D68.png"",""materials/imgs/D96.png""]","false","validation","","",""
"","","","","","html-keyboard-response","332","641073","0.0-17.0-2.4-0.9","7scbk0szh7","","7scbk0szh7","""2024-11-12T20:35:00.012Z""","null","+","null","","","","","","",""
"","","","","","image-keyboard-response","333","641665","0.0-17.0-2.4-1.9","7scbk0szh7","","7scbk0szh7","""2024-11-12T20:35:00.012Z""","591","materials/imgs/D53.png","arrowleft","","[""materials/imgs/D77.png"",""materials/imgs/D75.png""]","false","validation","","",""
"","","","","","html-button-response","334","702485","0.0-18.0","7scbk0szh7","","7scbk0szh7","""2024-11-12T20:35:00.012Z""","60819","You have completed 75% of the trials. Please click 'Continue' when you are ready proceed.","0","","","","","","",""
"","","","","","html-keyboard-response","335","702986","0.0-19.0-0.0-0.0","7scbk0szh7","","7scbk0szh7","""2024-11-12T20:35:00.012Z""","null","+","null","","","","","","",""
"","","","","","image-keyboard-response","336","703977","0.0-19.0-0.0-1.0","7scbk0szh7","","7scbk0szh7","""2024-11-12T20:35:00.012Z""","990","materials/imgs/D24.png","arrowleft","","[""materials/imgs/D111.png"",""materials/imgs/D56.png""]","false","random","","",""
"","","","","","html-keyboard-response","337","704479","0.0-19.0-0.0-0.1","7scbk0szh7","","7scbk0szh7","""2024-11-12T20:35:00.012Z""","null","+","null","","","","","","",""
"","","","","","image-keyboard-response","338","705800","0.0-19.0-0.0-1.1","7scbk0szh7","","7scbk0szh7","""2024-11-12T20:35:00.012Z""","1320","materials/imgs/D8.png","arrowleft","","[""materials/imgs/D77.png"",""materials/imgs/D49.png""]","false","random","","",""
"","","","","","html-keyboard-response","339","706301","0.0-19.0-0.0-0.2","7scbk0szh7","","7scbk0szh7","""2024-11-12T20:35:00.012Z""","null","+","null","","","","","","",""
"","","","","","image-keyboard-response","340","708210","0.0-19.0-0.0-1.2","7scbk0szh7","","7scbk0szh7","""2024-11-12T20:35:00.012Z""","1908","materials/imgs/D95.png","arrowleft","","[""materials/imgs/D20.png"",""materials/imgs/D87.png""]","false","random","","",""
"","","","","","html-keyboard-response","341","708711","0.0-19.0-0.0-0.3","7scbk0szh7","","7scbk0szh7","""2024-11-12T20:35:00.012Z""","null","+","null","","","","","","",""
"","","","","","image-keyboard-response","342","709970","0.0-19.0-0.0-1.3","7scbk0szh7","","7scbk0szh7","""2024-11-12T20:35:00.012Z""","1258","materials/imgs/D35.png","arrowright","","[""materials/imgs/D79.png"",""materials/imgs/D37.png""]","false","random","","",""
"","","","","","html-keyboard-response","343","710472","0.0-19.0-0.0-0.4","7scbk0szh7","","7scbk0szh7","""2024-11-12T20:35:00.012Z""","null","+","null","","","","","","",""
"","","","","","image-keyboard-response","344","711753","0.0-19.0-0.0-1.4","7scbk0szh7","","7scbk0szh7","""2024-11-12T20:35:00.012Z""","1280","materials/imgs/D64.png","arrowright","","[""materials/imgs/D6.png"",""materials/imgs/D37.png""]","false","random","","",""
"","","","","","html-keyboard-response","345","712254","0.0-19.0-0.0-0.5","7scbk0szh7","","7scbk0szh7","""2024-11-12T20:35:00.012Z""","null","+","null","","","","","","",""
"","","","","","image-keyboard-response","346","713711","0.0-19.0-0.0-1.5","7scbk0szh7","","7scbk0szh7","""2024-11-12T20:35:00.012Z""","1455","materials/imgs/D36.png","arrowright","","[""materials/imgs/D81.png"",""materials/imgs/D9.png""]","false","random","","",""
"","","","","","html-keyboard-response","347","714213","0.0-19.0-0.0-0.6","7scbk0szh7","","7scbk0szh7","""2024-11-12T20:35:00.012Z""","null","+","null","","","","","","",""
"","","","","","image-keyboard-response","348","715329","0.0-19.0-0.0-1.6","7scbk0szh7","","7scbk0szh7","""2024-11-12T20:35:00.012Z""","1115","materials/imgs/D82.png","arrowleft","","[""materials/imgs/D18.png"",""materials/imgs/D25.png""]","false","random","","",""
"","","","","","html-keyboard-response","349","715831","0.0-19.0-1.0-0.0","7scbk0szh7","","7scbk0szh7","""2024-11-12T20:35:00.012Z""","null","+","null","","","","","","",""
"","","","","","image-keyboard-response","350","716426","0.0-19.0-1.0-1.0","7scbk0szh7","","7scbk0szh7","""2024-11-12T20:35:00.012Z""","594","materials/imgs/D106.png","arrowleft","","[""materials/imgs/D106.png"",""materials/imgs/D101.png""]","","check","materials/imgs/D106.png","0","true"
"","","","","","html-keyboard-response","351","716927","0.0-19.0-2.0-0.0","7scbk0szh7","","7scbk0szh7","""2024-11-12T20:35:00.012Z""","null","+","null","","","","","","",""
"","","","","","image-keyboard-response","352","717660","0.0-19.0-2.0-1.0","7scbk0szh7","","7scbk0szh7","""2024-11-12T20:35:00.012Z""","732","materials/imgs/D16.png","arrowleft","","[""materials/imgs/D52.png"",""materials/imgs/D25.png""]","false","validation","","",""
"","","","","","html-keyboard-response","353","718161","0.0-19.0-2.0-0.1","7scbk0szh7","","7scbk0szh7","""2024-11-12T20:35:00.012Z""","null","+","null","","","","","","",""
"","","","","","image-keyboard-response","354","719422","0.0-19.0-2.0-1.1","7scbk0szh7","","7scbk0szh7","""2024-11-12T20:35:00.012Z""","1260","materials/imgs/D8.png","arrowleft","","[""materials/imgs/D101.png"",""materials/imgs/D52.png""]","false","validation","","",""
"","","","","","html-keyboard-response","355","719924","0.0-19.0-0.1-0.7","7scbk0szh7","","7scbk0szh7","""2024-11-12T20:35:00.012Z""","null","+","null","","","","","","",""
"","","","","","image-keyboard-response","356","721108","0.0-19.0-0.1-1.7","7scbk0szh7","","7scbk0szh7","""2024-11-12T20:35:00.012Z""","1183","materials/imgs/D81.png","arrowright","","[""materials/imgs/D102.png"",""materials/imgs/D77.png""]","false","random","","",""
"","","","","","html-keyboard-response","357","721609","0.0-19.0-0.1-0.8","7scbk0szh7","","7scbk0szh7","""2024-11-12T20:35:00.012Z""","null","+","null","","","","","","",""
"","","","","","image-keyboard-response","358","723030","0.0-19.0-0.1-1.8","7scbk0szh7","","7scbk0szh7","""2024-11-12T20:35:00.012Z""","1419","materials/imgs/D94.png","arrowleft","","[""materials/imgs/D65.png"",""materials/imgs/D85.png""]","false","random","","",""
"","","","","","html-keyboard-response","359","723532","0.0-19.0-0.1-0.9","7scbk0szh7","","7scbk0szh7","""2024-11-12T20:35:00.012Z""","null","+","null","","","","","","",""
"","","","","","image-keyboard-response","360","725874","0.0-19.0-0.1-1.9","7scbk0szh7","","7scbk0szh7","""2024-11-12T20:35:00.012Z""","2341","materials/imgs/D82.png","arrowright","","[""materials/imgs/D57.png"",""materials/imgs/D79.png""]","false","random","","",""
"","","","","","html-keyboard-response","361","726376","0.0-19.0-0.1-0.10","7scbk0szh7","","7scbk0szh7","""2024-11-12T20:35:00.012Z""","null","+","null","","","","","","",""
"","","","","","image-keyboard-response","362","728534","0.0-19.0-0.1-1.10","7scbk0szh7","","7scbk0szh7","""2024-11-12T20:35:00.012Z""","2157","materials/imgs/D22.png","arrowright","","[""materials/imgs/D66.png"",""materials/imgs/D16.png""]","false","random","","",""
"","","","","","html-keyboard-response","363","729035","0.0-19.0-0.1-0.11","7scbk0szh7","","7scbk0szh7","""2024-11-12T20:35:00.012Z""","null","+","null","","","","","","",""
"","","","","","image-keyboard-response","364","729920","0.0-19.0-0.1-1.11","7scbk0szh7","","7scbk0szh7","""2024-11-12T20:35:00.012Z""","884","materials/imgs/D21.png","arrowright","","[""materials/imgs/D18.png"",""materials/imgs/D79.png""]","false","random","","",""
"","","","","","html-keyboard-response","365","730421","0.0-19.0-0.1-0.12","7scbk0szh7","","7scbk0szh7","""2024-11-12T20:35:00.012Z""","null","+","null","","","","","","",""
"","","","","","image-keyboard-response","366","731295","0.0-19.0-0.1-1.12","7scbk0szh7","","7scbk0szh7","""2024-11-12T20:35:00.012Z""","872","materials/imgs/D49.png","arrowleft","","[""materials/imgs/D17.png"",""materials/imgs/D102.png""]","false","random","","",""
"","","","","","html-keyboard-response","367","731796","0.0-19.0-0.1-0.13","7scbk0szh7","","7scbk0szh7","""2024-11-12T20:35:00.012Z""","null","+","null","","","","","","",""
"","","","","","image-keyboard-response","368","733075","0.0-19.0-0.1-1.13","7scbk0szh7","","7scbk0szh7","""2024-11-12T20:35:00.012Z""","1277","materials/imgs/D32.png","arrowright","","[""materials/imgs/D103.png"",""materials/imgs/D34.png""]","false","random","","",""
"","","","","","html-keyboard-response","369","733577","0.0-19.0-1.1-0.1","7scbk0szh7","","7scbk0szh7","""2024-11-12T20:35:00.012Z""","null","+","null","","","","","","",""
"","","","","","image-keyboard-response","370","734304","0.0-19.0-1.1-1.1","7scbk0szh7","","7scbk0szh7","""2024-11-12T20:35:00.012Z""","727","materials/imgs/D53.png","arrowright","","[""materials/imgs/D64.png"",""materials/imgs/D53.png""]","","check","materials/imgs/D53.png","1","true"
"","","","","","html-keyboard-response","371","734806","0.0-19.0-2.1-0.2","7scbk0szh7","","7scbk0szh7","""2024-11-12T20:35:00.012Z""","null","+","null","","","","","","",""
"","","","","","image-keyboard-response","372","737134","0.0-19.0-2.1-1.2","7scbk0szh7","","7scbk0szh7","""2024-11-12T20:35:00.012Z""","2327","materials/imgs/D46.png","arrowright","","[""materials/imgs/D92.png"",""materials/imgs/D77.png""]","false","validation","","",""
"","","","","","html-keyboard-response","373","737636","0.0-19.0-2.1-0.3","7scbk0szh7","","7scbk0szh7","""2024-11-12T20:35:00.012Z""","null","+","null","","","","","","",""
"","","","","","image-keyboard-response","374","738932","0.0-19.0-2.1-1.3","7scbk0szh7","","7scbk0szh7","""2024-11-12T20:35:00.012Z""","1296","materials/imgs/D1.png","arrowright","","[""materials/imgs/D57.png"",""materials/imgs/D76.png""]","false","validation","","",""
"","","","","","html-keyboard-response","375","739434","0.0-19.0-0.2-0.14","7scbk0szh7","","7scbk0szh7","""2024-11-12T20:35:00.012Z""","null","+","null","","","","","","",""
"","","","","","image-keyboard-response","376","741937","0.0-19.0-0.2-1.14","7scbk0szh7","","7scbk0szh7","""2024-11-12T20:35:00.012Z""","2502","materials/imgs/D65.png","arrowright","","[""materials/imgs/D105.png"",""materials/imgs/D11.png""]","false","random","","",""
"","","","","","html-keyboard-response","377","742439","0.0-19.0-0.2-0.15","7scbk0szh7","","7scbk0szh7","""2024-11-12T20:35:00.012Z""","null","+","null","","","","","","",""
"","","","","","image-keyboard-response","378","746197","0.0-19.0-0.2-1.15","7scbk0szh7","","7scbk0szh7","""2024-11-12T20:35:00.012Z""","3756","materials/imgs/D25.png","arrowleft","","[""materials/imgs/D105.png"",""materials/imgs/D85.png""]","false","random","","",""
"","","","","","html-keyboard-response","379","746699","0.0-19.0-0.2-0.16","7scbk0szh7","","7scbk0szh7","""2024-11-12T20:35:00.012Z""","null","+","null","","","","","","",""
"","","","","","image-keyboard-response","380","748378","0.0-19.0-0.2-1.16","7scbk0szh7","","7scbk0szh7","""2024-11-12T20:35:00.012Z""","1678","materials/imgs/D49.png","arrowleft","","[""materials/imgs/D36.png"",""materials/imgs/D68.png""]","false","random","","",""
"","","","","","html-keyboard-response","381","748879","0.0-19.0-0.2-0.17","7scbk0szh7","","7scbk0szh7","""2024-11-12T20:35:00.012Z""","null","+","null","","","","","","",""
"","","","","","image-keyboard-response","382","750017","0.0-19.0-0.2-1.17","7scbk0szh7","","7scbk0szh7","""2024-11-12T20:35:00.012Z""","1137","materials/imgs/D37.png","arrowright","","[""materials/imgs/D111.png"",""materials/imgs/D96.png""]","false","random","","",""
"","","","","","html-keyboard-response","383","750518","0.0-19.0-0.2-0.18","7scbk0szh7","","7scbk0szh7","""2024-11-12T20:35:00.012Z""","null","+","null","","","","","","",""
"","","","","","image-keyboard-response","384","753967","0.0-19.0-0.2-1.18","7scbk0szh7","","7scbk0szh7","""2024-11-12T20:35:00.012Z""","3448","materials/imgs/D47.png","arrowright","","[""materials/imgs/D35.png"",""materials/imgs/D37.png""]","false","random","","",""
"","","","","","html-keyboard-response","385","754467","0.0-19.0-0.2-0.19","7scbk0szh7","","7scbk0szh7","""2024-11-12T20:35:00.012Z""","null","+","null","","","","","","",""
"","","","","","image-keyboard-response","386","755743","0.0-19.0-0.2-1.19","7scbk0szh7","","7scbk0szh7","""2024-11-12T20:35:00.012Z""","1274","materials/imgs/D94.png","arrowright","","[""materials/imgs/D16.png"",""materials/imgs/D95.png""]","false","random","","",""
"","","","","","html-keyboard-response","387","756244","0.0-19.0-0.2-0.20","7scbk0szh7","","7scbk0szh7","""2024-11-12T20:35:00.012Z""","null","+","null","","","","","","",""
"","","","","","image-keyboard-response","388","757164","0.0-19.0-0.2-1.20","7scbk0szh7","","7scbk0szh7","""2024-11-12T20:35:00.012Z""","919","materials/imgs/D14.png","arrowright","","[""materials/imgs/D51.png"",""materials/imgs/D79.png""]","false","random","","",""
"","","","","","html-keyboard-response","389","757665","0.0-19.0-1.2-0.2","7scbk0szh7","","7scbk0szh7","""2024-11-12T20:35:00.012Z""","null","+","null","","","","","","",""
"","","","","","image-keyboard-response","390","758398","0.0-19.0-1.2-1.2","7scbk0szh7","","7scbk0szh7","""2024-11-12T20:35:00.012Z""","732","materials/imgs/D8.png","arrowright","","[""materials/imgs/D18.png"",""materials/imgs/D8.png""]","","check","materials/imgs/D8.png","1","true"
"","","","","","html-keyboard-response","391","758899","0.0-19.0-2.2-0.4","7scbk0szh7","","7scbk0szh7","""2024-11-12T20:35:00.012Z""","null","+","null","","","","","","",""
"","","","","","image-keyboard-response","392","759471","0.0-19.0-2.2-1.4","7scbk0szh7","","7scbk0szh7","""2024-11-12T20:35:00.012Z""","570","materials/imgs/D82.png","arrowright","","[""materials/imgs/D83.png"",""materials/imgs/D22.png""]","false","validation","","",""
"","","","","","html-keyboard-response","393","759973","0.0-19.0-2.2-0.5","7scbk0szh7","","7scbk0szh7","""2024-11-12T20:35:00.012Z""","null","+","null","","","","","","",""
"","","","","","image-keyboard-response","394","761504","0.0-19.0-2.2-1.5","7scbk0szh7","","7scbk0szh7","""2024-11-12T20:35:00.012Z""","1530","materials/imgs/D35.png","arrowright","","[""materials/imgs/D83.png"",""materials/imgs/D24.png""]","false","validation","","",""
"","","","","","html-keyboard-response","395","762005","0.0-19.0-0.3-0.21","7scbk0szh7","","7scbk0szh7","""2024-11-12T20:35:00.012Z""","null","+","null","","","","","","",""
"","","","","","image-keyboard-response","396","762840","0.0-19.0-0.3-1.21","7scbk0szh7","","7scbk0szh7","""2024-11-12T20:35:00.012Z""","834","materials/imgs/D75.png","arrowleft","","[""materials/imgs/D74.png"",""materials/imgs/D101.png""]","false","random","","",""
"","","","","","html-keyboard-response","397","763341","0.0-19.0-0.3-0.22","7scbk0szh7","","7scbk0szh7","""2024-11-12T20:35:00.012Z""","null","+","null","","","","","","",""
"","","","","","image-keyboard-response","398","764848","0.0-19.0-0.3-1.22","7scbk0szh7","","7scbk0szh7","""2024-11-12T20:35:00.012Z""","1506","materials/imgs/D11.png","arrowleft","","[""materials/imgs/D37.png"",""materials/imgs/D96.png""]","false","random","","",""
"","","","","","html-keyboard-response","399","765350","0.0-19.0-0.3-0.23","7scbk0szh7","","7scbk0szh7","""2024-11-12T20:35:00.012Z""","null","+","null","","","","","","",""
"","","","","","image-keyboard-response","400","766673","0.0-19.0-0.3-1.23","7scbk0szh7","","7scbk0szh7","""2024-11-12T20:35:00.012Z""","1322","materials/imgs/D68.png","arrowleft","","[""materials/imgs/D102.png"",""materials/imgs/D55.png""]","false","random","","",""
"","","","","","html-keyboard-response","401","767175","0.0-19.0-0.3-0.24","7scbk0szh7","","7scbk0szh7","""2024-11-12T20:35:00.012Z""","null","+","null","","","","","","",""
"","","","","","image-keyboard-response","402","768294","0.0-19.0-0.3-1.24","7scbk0szh7","","7scbk0szh7","""2024-11-12T20:35:00.012Z""","1118","materials/imgs/D25.png","arrowright","","[""materials/imgs/D21.png"",""materials/imgs/D6.png""]","false","random","","",""
"","","","","","html-keyboard-response","403","768795","0.0-19.0-0.3-0.25","7scbk0szh7","","7scbk0szh7","""2024-11-12T20:35:00.012Z""","null","+","null","","","","","","",""
"","","","","","image-keyboard-response","404","770957","0.0-19.0-0.3-1.25","7scbk0szh7","","7scbk0szh7","""2024-11-12T20:35:00.012Z""","2160","materials/imgs/D51.png","arrowright","","[""materials/imgs/D66.png"",""materials/imgs/D106.png""]","false","random","","",""
"","","","","","html-keyboard-response","405","771458","0.0-19.0-0.3-0.26","7scbk0szh7","","7scbk0szh7","""2024-11-12T20:35:00.012Z""","null","+","null","","","","","","",""
"","","","","","image-keyboard-response","406","774710","0.0-19.0-0.3-1.26","7scbk0szh7","","7scbk0szh7","""2024-11-12T20:35:00.012Z""","3250","materials/imgs/D111.png","arrowright","","[""materials/imgs/D46.png"",""materials/imgs/D47.png""]","false","random","","",""
"","","","","","html-keyboard-response","407","775211","0.0-19.0-0.3-0.27","7scbk0szh7","","7scbk0szh7","""2024-11-12T20:35:00.012Z""","null","+","null","","","","","","",""
"","","","","","image-keyboard-response","408","776569","0.0-19.0-0.3-1.27","7scbk0szh7","","7scbk0szh7","""2024-11-12T20:35:00.012Z""","1356","materials/imgs/D8.png","arrowright","","[""materials/imgs/D83.png"",""materials/imgs/D1.png""]","false","random","","",""
"","","","","","html-keyboard-response","409","777070","0.0-19.0-1.3-0.3","7scbk0szh7","","7scbk0szh7","""2024-11-12T20:35:00.012Z""","null","+","null","","","","","","",""
"","","","","","image-keyboard-response","410","777766","0.0-19.0-1.3-1.3","7scbk0szh7","","7scbk0szh7","""2024-11-12T20:35:00.012Z""","695","materials/imgs/D8.png","arrowright","","[""materials/imgs/D18.png"",""materials/imgs/D8.png""]","","check","materials/imgs/D8.png","1","true"
"","","","","","html-keyboard-response","411","778266","0.0-19.0-2.3-0.6","7scbk0szh7","","7scbk0szh7","""2024-11-12T20:35:00.012Z""","null","+","null","","","","","","",""
"","","","","","image-keyboard-response","412","779930","0.0-19.0-2.3-1.6","7scbk0szh7","","7scbk0szh7","""2024-11-12T20:35:00.012Z""","1662","materials/imgs/D19.png","arrowleft","","[""materials/imgs/D111.png"",""materials/imgs/D56.png""]","false","validation","","",""
"","","","","","html-keyboard-response","413","780431","0.0-19.0-2.3-0.7","7scbk0szh7","","7scbk0szh7","""2024-11-12T20:35:00.012Z""","null","+","null","","","","","","",""
"","","","","","image-keyboard-response","414","781888","0.0-19.0-2.3-1.7","7scbk0szh7","","7scbk0szh7","""2024-11-12T20:35:00.012Z""","1456","materials/imgs/D6.png","arrowright","","[""materials/imgs/D26.png"",""materials/imgs/D76.png""]","false","validation","","",""
"","","","","","html-keyboard-response","415","782390","0.0-19.0-0.4-0.28","7scbk0szh7","","7scbk0szh7","""2024-11-12T20:35:00.012Z""","null","+","null","","","","","","",""
"","","","","","image-keyboard-response","416","783720","0.0-19.0-0.4-1.28","7scbk0szh7","","7scbk0szh7","""2024-11-12T20:35:00.012Z""","1329","materials/imgs/D56.png","arrowright","","[""materials/imgs/D3.png"",""materials/imgs/D37.png""]","false","random","","",""
"","","","","","html-keyboard-response","417","784222","0.0-19.0-0.4-0.29","7scbk0szh7","","7scbk0szh7","""2024-11-12T20:35:00.012Z""","null","+","null","","","","","","",""
"","","","","","image-keyboard-response","418","785403","0.0-19.0-0.4-1.29","7scbk0szh7","","7scbk0szh7","""2024-11-12T20:35:00.012Z""","1180","materials/imgs/D6.png","arrowright","","[""materials/imgs/D83.png"",""materials/imgs/D52.png""]","false","random","","",""
"","","","","","html-keyboard-response","419","785905","0.0-19.0-0.4-0.30","7scbk0szh7","","7scbk0szh7","""2024-11-12T20:35:00.012Z""","null","+","null","","","","","","",""
"","","","","","image-keyboard-response","420","787930","0.0-19.0-0.4-1.30","7scbk0szh7","","7scbk0szh7","""2024-11-12T20:35:00.012Z""","2024","materials/imgs/D68.png","arrowright","","[""materials/imgs/D103.png"",""materials/imgs/D4.png""]","false","random","","",""
"","","","","","html-keyboard-response","421","788431","0.0-19.0-0.4-0.31","7scbk0szh7","","7scbk0szh7","""2024-11-12T20:35:00.012Z""","null","+","null","","","","","","",""
"","","","","","image-keyboard-response","422","789270","0.0-19.0-0.4-1.31","7scbk0szh7","","7scbk0szh7","""2024-11-12T20:35:00.012Z""","838","materials/imgs/D82.png","arrowleft","","[""materials/imgs/D4.png"",""materials/imgs/D77.png""]","false","random","","",""
"","","","","","html-keyboard-response","423","789772","0.0-19.0-0.4-0.32","7scbk0szh7","","7scbk0szh7","""2024-11-12T20:35:00.012Z""","null","+","null","","","","","","",""
"","","","","","image-keyboard-response","424","790969","0.0-19.0-0.4-1.32","7scbk0szh7","","7scbk0szh7","""2024-11-12T20:35:00.012Z""","1196","materials/imgs/D95.png","arrowleft","","[""materials/imgs/D29.png"",""materials/imgs/D103.png""]","false","random","","",""
"","","","","","html-keyboard-response","425","791471","0.0-19.0-0.4-0.33","7scbk0szh7","","7scbk0szh7","""2024-11-12T20:35:00.012Z""","null","+","null","","","","","","",""
"","","","","","image-keyboard-response","426","793009","0.0-19.0-0.4-1.33","7scbk0szh7","","7scbk0szh7","""2024-11-12T20:35:00.012Z""","1537","materials/imgs/D106.png","arrowright","","[""materials/imgs/D34.png"",""materials/imgs/D3.png""]","false","random","","",""
"","","","","","html-keyboard-response","427","793511","0.0-19.0-0.4-0.34","7scbk0szh7","","7scbk0szh7","""2024-11-12T20:35:00.012Z""","null","+","null","","","","","","",""
"","","","","","image-keyboard-response","428","795186","0.0-19.0-0.4-1.34","7scbk0szh7","","7scbk0szh7","""2024-11-12T20:35:00.012Z""","1674","materials/imgs/D34.png","arrowright","","[""materials/imgs/D65.png"",""materials/imgs/D85.png""]","false","random","","",""
"","","","","","html-keyboard-response","429","795687","0.0-19.0-1.4-0.4","7scbk0szh7","","7scbk0szh7","""2024-11-12T20:35:00.012Z""","null","+","null","","","","","","",""
"","","","","","image-keyboard-response","430","796375","0.0-19.0-1.4-1.4","7scbk0szh7","","7scbk0szh7","""2024-11-12T20:35:00.012Z""","682","materials/imgs/D64.png","arrowleft","","[""materials/imgs/D64.png"",""materials/imgs/D53.png""]","","check","materials/imgs/D64.png","0","true"
"","","","","","html-keyboard-response","431","796876","0.0-19.0-2.4-0.8","7scbk0szh7","","7scbk0szh7","""2024-11-12T20:35:00.012Z""","null","+","null","","","","","","",""
"","","","","","image-keyboard-response","432","797818","0.0-19.0-2.4-1.8","7scbk0szh7","","7scbk0szh7","""2024-11-12T20:35:00.012Z""","941","materials/imgs/D22.png","arrowleft","","[""materials/imgs/D4.png"",""materials/imgs/D25.png""]","false","validation","","",""
"","","","","","html-keyboard-response","433","798319","0.0-19.0-2.4-0.9","7scbk0szh7","","7scbk0szh7","""2024-11-12T20:35:00.012Z""","null","+","null","","","","","","",""
"","","","","","image-keyboard-response","434","799486","0.0-19.0-2.4-1.9","7scbk0szh7","","7scbk0szh7","""2024-11-12T20:35:00.012Z""","1166","materials/imgs/D101.png","arrowleft","","[""materials/imgs/D76.png"",""materials/imgs/D47.png""]","false","validation","","",""
