"success","timeout","failed_images","failed_audio","failed_video","trial_type","trial_index","time_elapsed","internal_node_id","subject_id","sona_id","subjectID","dateInfo","rt","stimulus","response","question_order","choices","speedy","sampleAlg","selected_image","selected_index","correct"
"true","false","[]","[]","[]","preload","0","354","0.0-0.0","9tw7e8lcpm","","9tw7e8lcpm","""2024-11-13T02:15:17.588Z""","","","","","","","","","",""
"true","","","","","fullscreen","1","3678","0.0-1.0","9tw7e8lcpm","","9tw7e8lcpm","""2024-11-13T02:15:17.588Z""","","","","","","","","","",""
"","","","","","html-keyboard-response","2","3691","0.0-2.0","9tw7e8lcpm","","9tw7e8lcpm","""2024-11-13T02:15:17.588Z""","null","","null","","","","","","",""
"","","","","","html-button-response","3","9097","0.0-3.0","9tw7e8lcpm","","9tw7e8lcpm","""2024-11-13T02:15:17.588Z""","5405","<div style='text-align:center; font-size:20px; line-height:25px; width: 1200px;'>
                Welcome to our experiment! <br>
                <br>At the bottom of this screen, you will see a button that says 'Begin Experiment.
                <br>Please only click that button when you are ready to complete the 25 minute experiment in one sitting. <br>
                <br> Once you click that button, it will not be possible to restart the experiment. <br><br>","0","","","","","","",""
"true","","","","","fullscreen","4","11873","0.0-4.0","9tw7e8lcpm","","9tw7e8lcpm","""2024-11-13T02:15:17.588Z""","","","","","","","","","",""
"","","","","","survey-multi-select","5","34648","0.0-5.0","9tw7e8lcpm","","9tw7e8lcpm","""2024-11-13T02:15:17.588Z""","22771","","{""Consent"":[""<strong>I consent</strong>""]}","[0]","","","","","",""
"","","","","","html-button-response","6","37709","0.0-6.0","9tw7e8lcpm","","9tw7e8lcpm","""2024-11-13T02:15:17.588Z""","3059","Welcome! <p> This experiment involves two parts: demographic information, followed by the experimental task.<p> It will take about 25 minutes to complete both parts.","0","","","","","","",""
"","","","","","survey-text","7","47174","0.0-7.0","9tw7e8lcpm","","9tw7e8lcpm","""2024-11-13T02:15:17.588Z""","9461","","{""Age"":""19"",""Gender"":""femaled"",""Race/ethnicity"":""hispanic""}","","","","","","",""
"","","","","","html-button-response","8","134119","0.0-8.0","9tw7e8lcpm","","9tw7e8lcpm","""2024-11-13T02:15:17.588Z""","86947","<div style='text-align: center;'>
      <p>In each trial of this task, you will see three texture images: one target item on top, and two choices beneath the target item.</p>
      <p><strong>Please select the item that is most like the target item.</strong></p>
      <p>To select the option on the <strong>LEFT</strong>, press the <strong>LEFT ARROW</strong> key. 
      To select the option on the <strong>RIGHT</strong>, press the <strong>RIGHT ARROW</strong> key.</p>
                  <!-- Target Image at the Top -->
      <div style='margin: 20px;'>
        <img src='materials/imgs/instruction_images/InstructionImg1D78.png' alt='Target Image' style='width:200px; height:auto;' />
        <p><em>Target Image</em></p>
      </div>

      <!-- Two Choice Images Below -->
      <div style='display: flex; justify-content: center;'>
        <div style='margin-right: 50px;'>
          <img src='materials/imgs/instruction_images/InstructionImg2D34.png' alt='Choice Image 1' style='width:150px; height:auto;' />
          <p><em><strong>LEFT ARROW</strong></em></p>
        </div>
        <div style='margin-left: 50px;'>
          <img src='materials/imgs/instruction_images/InstructionImg3D80.png' alt='Choice Image 2' style='width:150px; height:auto;' />
          <p><em><strong>RIGHT ARROW</strong></em></p>
        </div>
      </div>
    </div>

      <p>When you are ready to proceed, please click 'Continue' to begin practice.</p>","0","","","","","","",""
"","","","","","html-keyboard-response","9","136625","0.0-9.0","9tw7e8lcpm","","9tw7e8lcpm","""2024-11-13T02:15:17.588Z""","null","+","null","","","","","","",""
"","","","","","html-keyboard-response","10","137128","0.0-10.0-0.0-0.0","9tw7e8lcpm","","9tw7e8lcpm","""2024-11-13T02:15:17.588Z""","null","+","null","","","","","","",""
"","","","","","image-keyboard-response","11","139120","0.0-10.0-0.0-1.0","9tw7e8lcpm","","9tw7e8lcpm","""2024-11-13T02:15:17.588Z""","1985","materials/imgs/D82.png","arrowright","","[""materials/imgs/D111.png"",""materials/imgs/D64.png""]","false","random","","",""
"","","","","","html-keyboard-response","12","139622","0.0-10.0-0.0-0.1","9tw7e8lcpm","","9tw7e8lcpm","""2024-11-13T02:15:17.588Z""","null","+","null","","","","","","",""
"","","","","","image-keyboard-response","13","140983","0.0-10.0-0.0-1.1","9tw7e8lcpm","","9tw7e8lcpm","""2024-11-13T02:15:17.588Z""","1359","materials/imgs/D111.png","arrowleft","","[""materials/imgs/D84.png"",""materials/imgs/D51.png""]","false","random","","",""
"","","","","","html-keyboard-response","14","141485","0.0-10.0-0.0-0.2","9tw7e8lcpm","","9tw7e8lcpm","""2024-11-13T02:15:17.588Z""","null","+","null","","","","","","",""
"","","","","","image-keyboard-response","15","142744","0.0-10.0-0.0-1.2","9tw7e8lcpm","","9tw7e8lcpm","""2024-11-13T02:15:17.588Z""","1257","materials/imgs/D101.png","arrowright","","[""materials/imgs/D79.png"",""materials/imgs/D65.png""]","false","random","","",""
"","","","","","html-keyboard-response","16","143246","0.0-10.0-0.0-0.3","9tw7e8lcpm","","9tw7e8lcpm","""2024-11-13T02:15:17.588Z""","null","+","null","","","","","","",""
"","","","","","image-keyboard-response","17","146163","0.0-10.0-0.0-1.3","9tw7e8lcpm","","9tw7e8lcpm","""2024-11-13T02:15:17.588Z""","2915","materials/imgs/D66.png","arrowleft","","[""materials/imgs/D25.png"",""materials/imgs/D26.png""]","false","random","","",""
"","","","","","html-keyboard-response","18","146665","0.0-10.0-0.0-0.4","9tw7e8lcpm","","9tw7e8lcpm","""2024-11-13T02:15:17.588Z""","null","+","null","","","","","","",""
"","","","","","image-keyboard-response","19","147821","0.0-10.0-0.0-1.4","9tw7e8lcpm","","9tw7e8lcpm","""2024-11-13T02:15:17.588Z""","1154","materials/imgs/D55.png","arrowleft","","[""materials/imgs/D22.png"",""materials/imgs/D56.png""]","false","random","","",""
"","","","","","html-keyboard-response","20","148324","0.0-10.0-0.0-0.5","9tw7e8lcpm","","9tw7e8lcpm","""2024-11-13T02:15:17.588Z""","null","+","null","","","","","","",""
"","","","","","image-keyboard-response","21","149838","0.0-10.0-0.0-1.5","9tw7e8lcpm","","9tw7e8lcpm","""2024-11-13T02:15:17.588Z""","1512","materials/imgs/D18.png","arrowright","","[""materials/imgs/D105.png"",""materials/imgs/D84.png""]","false","random","","",""
"","","","","","html-keyboard-response","22","150341","0.0-10.0-0.0-0.6","9tw7e8lcpm","","9tw7e8lcpm","""2024-11-13T02:15:17.588Z""","null","+","null","","","","","","",""
"","","","","","image-keyboard-response","23","151474","0.0-10.0-0.0-1.6","9tw7e8lcpm","","9tw7e8lcpm","""2024-11-13T02:15:17.588Z""","1131","materials/imgs/D16.png","arrowright","","[""materials/imgs/D22.png"",""materials/imgs/D78.png""]","false","random","","",""
"","","","","","html-keyboard-response","24","151976","0.0-10.0-0.0-0.7","9tw7e8lcpm","","9tw7e8lcpm","""2024-11-13T02:15:17.588Z""","null","+","null","","","","","","",""
"","","","","","image-keyboard-response","25","153405","0.0-10.0-0.0-1.7","9tw7e8lcpm","","9tw7e8lcpm","""2024-11-13T02:15:17.588Z""","1427","materials/imgs/D22.png","arrowright","","[""materials/imgs/D83.png"",""materials/imgs/D6.png""]","false","random","","",""
"","","","","","html-keyboard-response","26","153907","0.0-10.0-0.0-0.8","9tw7e8lcpm","","9tw7e8lcpm","""2024-11-13T02:15:17.588Z""","null","+","null","","","","","","",""
"","","","","","image-keyboard-response","27","155329","0.0-10.0-0.0-1.8","9tw7e8lcpm","","9tw7e8lcpm","""2024-11-13T02:15:17.588Z""","1420","materials/imgs/D102.png","arrowright","","[""materials/imgs/D65.png"",""materials/imgs/D36.png""]","false","random","","",""
"","","","","","html-keyboard-response","28","155831","0.0-10.0-0.0-0.9","9tw7e8lcpm","","9tw7e8lcpm","""2024-11-13T02:15:17.588Z""","null","+","null","","","","","","",""
"","","","","","image-keyboard-response","29","157068","0.0-10.0-0.0-1.9","9tw7e8lcpm","","9tw7e8lcpm","""2024-11-13T02:15:17.588Z""","1235","materials/imgs/D47.png","arrowright","","[""materials/imgs/D105.png"",""materials/imgs/D36.png""]","false","random","","",""
"","","","","","html-button-response","30","161801","0.0-11.0","9tw7e8lcpm","","9tw7e8lcpm","""2024-11-13T02:15:17.588Z""","4731","<p>Great job!</p>
      <p>You are now ready to begin the experiment.</p>
      <p>There will be around 200 trials. You will have opportunities to take breaks at three stages of the trials.</p>
      <p>When you are ready to begin please click 'Continue'.</p>","0","","","","","","",""
"","","","","","html-keyboard-response","31","164305","0.0-12.0","9tw7e8lcpm","","9tw7e8lcpm","""2024-11-13T02:15:17.588Z""","null","+","null","","","","","","",""
"","","","","","html-keyboard-response","32","164806","0.0-13.0-0.0-0.0","9tw7e8lcpm","","9tw7e8lcpm","""2024-11-13T02:15:17.588Z""","null","+","null","","","","","","",""
"","","","","","image-keyboard-response","33","166678","0.0-13.0-0.0-1.0","9tw7e8lcpm","","9tw7e8lcpm","""2024-11-13T02:15:17.588Z""","1869","materials/imgs/D95.png","arrowleft","","[""materials/imgs/D49.png"",""materials/imgs/D9.png""]","false","random","","",""
"","","","","","html-keyboard-response","34","167180","0.0-13.0-0.0-0.1","9tw7e8lcpm","","9tw7e8lcpm","""2024-11-13T02:15:17.588Z""","null","+","null","","","","","","",""
"","","","","","image-keyboard-response","35","168681","0.0-13.0-0.0-1.1","9tw7e8lcpm","","9tw7e8lcpm","""2024-11-13T02:15:17.588Z""","1499","materials/imgs/D20.png","arrowright","","[""materials/imgs/D6.png"",""materials/imgs/D53.png""]","false","random","","",""
"","","","","","html-keyboard-response","36","169182","0.0-13.0-0.0-0.2","9tw7e8lcpm","","9tw7e8lcpm","""2024-11-13T02:15:17.588Z""","null","+","null","","","","","","",""
"","","","","","image-keyboard-response","37","169994","0.0-13.0-0.0-1.2","9tw7e8lcpm","","9tw7e8lcpm","""2024-11-13T02:15:17.588Z""","810","materials/imgs/D17.png","arrowright","","[""materials/imgs/D35.png"",""materials/imgs/D55.png""]","false","random","","",""
"","","","","","html-keyboard-response","38","170496","0.0-13.0-0.0-0.3","9tw7e8lcpm","","9tw7e8lcpm","""2024-11-13T02:15:17.588Z""","null","+","null","","","","","","",""
"","","","","","image-keyboard-response","39","171257","0.0-13.0-0.0-1.3","9tw7e8lcpm","","9tw7e8lcpm","""2024-11-13T02:15:17.588Z""","759","materials/imgs/D84.png","arrowright","","[""materials/imgs/D75.png"",""materials/imgs/D55.png""]","false","random","","",""
"","","","","","html-keyboard-response","40","171761","0.0-13.0-0.0-0.4","9tw7e8lcpm","","9tw7e8lcpm","""2024-11-13T02:15:17.588Z""","null","+","null","","","","","","",""
"","","","","","image-keyboard-response","41","173665","0.0-13.0-0.0-1.4","9tw7e8lcpm","","9tw7e8lcpm","""2024-11-13T02:15:17.588Z""","1903","materials/imgs/D96.png","arrowleft","","[""materials/imgs/D53.png"",""materials/imgs/D56.png""]","false","random","","",""
"","","","","","html-keyboard-response","42","174167","0.0-13.0-0.0-0.5","9tw7e8lcpm","","9tw7e8lcpm","""2024-11-13T02:15:17.588Z""","null","+","null","","","","","","",""
"","","","","","image-keyboard-response","43","174961","0.0-13.0-0.0-1.5","9tw7e8lcpm","","9tw7e8lcpm","""2024-11-13T02:15:17.588Z""","792","materials/imgs/D77.png","arrowleft","","[""materials/imgs/D16.png"",""materials/imgs/D24.png""]","false","random","","",""
"","","","","","html-keyboard-response","44","175464","0.0-13.0-0.0-0.6","9tw7e8lcpm","","9tw7e8lcpm","""2024-11-13T02:15:17.588Z""","null","+","null","","","","","","",""
"","","","","","image-keyboard-response","45","176858","0.0-13.0-0.0-1.6","9tw7e8lcpm","","9tw7e8lcpm","""2024-11-13T02:15:17.588Z""","1392","materials/imgs/D64.png","arrowleft","","[""materials/imgs/D14.png"",""materials/imgs/D103.png""]","false","random","","",""
"","","","","","html-keyboard-response","46","177359","0.0-13.0-1.0-0.0","9tw7e8lcpm","","9tw7e8lcpm","""2024-11-13T02:15:17.588Z""","null","+","null","","","","","","",""
"","","","","","image-keyboard-response","47","178054","0.0-13.0-1.0-1.0","9tw7e8lcpm","","9tw7e8lcpm","""2024-11-13T02:15:17.588Z""","692","materials/imgs/D18.png","arrowright","","[""materials/imgs/D8.png"",""materials/imgs/D18.png""]","","check","materials/imgs/D18.png","1","true"
"","","","","","html-keyboard-response","48","178555","0.0-13.0-2.0-0.0","9tw7e8lcpm","","9tw7e8lcpm","""2024-11-13T02:15:17.588Z""","null","+","null","","","","","","",""
"","","","","","image-keyboard-response","49","179693","0.0-13.0-2.0-1.0","9tw7e8lcpm","","9tw7e8lcpm","""2024-11-13T02:15:17.588Z""","1136","materials/imgs/D22.png","arrowleft","","[""materials/imgs/D4.png"",""materials/imgs/D25.png""]","false","validation","","",""
"","","","","","html-keyboard-response","50","180197","0.0-13.0-2.0-0.1","9tw7e8lcpm","","9tw7e8lcpm","""2024-11-13T02:15:17.588Z""","null","+","null","","","","","","",""
"","","","","","image-keyboard-response","51","181459","0.0-13.0-2.0-1.1","9tw7e8lcpm","","9tw7e8lcpm","""2024-11-13T02:15:17.588Z""","1260","materials/imgs/D57.png","arrowright","","[""materials/imgs/D111.png"",""materials/imgs/D4.png""]","false","validation","","",""
"","","","","","html-keyboard-response","52","181962","0.0-13.0-0.1-0.7","9tw7e8lcpm","","9tw7e8lcpm","""2024-11-13T02:15:17.588Z""","null","+","null","","","","","","",""
"","","","","","image-keyboard-response","53","184754","0.0-13.0-0.1-1.7","9tw7e8lcpm","","9tw7e8lcpm","""2024-11-13T02:15:17.588Z""","2790","materials/imgs/D4.png","arrowleft","","[""materials/imgs/D76.png"",""materials/imgs/D26.png""]","false","random","","",""
"","","","","","html-keyboard-response","54","185255","0.0-13.0-0.1-0.8","9tw7e8lcpm","","9tw7e8lcpm","""2024-11-13T02:15:17.588Z""","null","+","null","","","","","","",""
"","","","","","image-keyboard-response","55","187033","0.0-13.0-0.1-1.8","9tw7e8lcpm","","9tw7e8lcpm","""2024-11-13T02:15:17.588Z""","1775","materials/imgs/D49.png","arrowleft","","[""materials/imgs/D68.png"",""materials/imgs/D80.png""]","false","random","","",""
"","","","","","html-keyboard-response","56","187535","0.0-13.0-0.1-0.9","9tw7e8lcpm","","9tw7e8lcpm","""2024-11-13T02:15:17.588Z""","null","+","null","","","","","","",""
"","","","","","image-keyboard-response","57","188490","0.0-13.0-0.1-1.9","9tw7e8lcpm","","9tw7e8lcpm","""2024-11-13T02:15:17.588Z""","953","materials/imgs/D81.png","arrowright","","[""materials/imgs/D103.png"",""materials/imgs/D18.png""]","false","random","","",""
"","","","","","html-keyboard-response","58","188992","0.0-13.0-0.1-0.10","9tw7e8lcpm","","9tw7e8lcpm","""2024-11-13T02:15:17.588Z""","null","+","null","","","","","","",""
"","","","","","image-keyboard-response","59","190019","0.0-13.0-0.1-1.10","9tw7e8lcpm","","9tw7e8lcpm","""2024-11-13T02:15:17.588Z""","1025","materials/imgs/D57.png","arrowright","","[""materials/imgs/D19.png"",""materials/imgs/D104.png""]","false","random","","",""
"","","","","","html-keyboard-response","60","190519","0.0-13.0-0.1-0.11","9tw7e8lcpm","","9tw7e8lcpm","""2024-11-13T02:15:17.588Z""","null","+","null","","","","","","",""
"","","","","","image-keyboard-response","61","192122","0.0-13.0-0.1-1.11","9tw7e8lcpm","","9tw7e8lcpm","""2024-11-13T02:15:17.588Z""","1601","materials/imgs/D19.png","arrowright","","[""materials/imgs/D11.png"",""materials/imgs/D14.png""]","false","random","","",""
"","","","","","html-keyboard-response","62","192623","0.0-13.0-0.1-0.12","9tw7e8lcpm","","9tw7e8lcpm","""2024-11-13T02:15:17.588Z""","null","+","null","","","","","","",""
"","","","","","image-keyboard-response","63","194073","0.0-13.0-0.1-1.12","9tw7e8lcpm","","9tw7e8lcpm","""2024-11-13T02:15:17.588Z""","1448","materials/imgs/D18.png","arrowright","","[""materials/imgs/D101.png"",""materials/imgs/D36.png""]","false","random","","",""
"","","","","","html-keyboard-response","64","194574","0.0-13.0-0.1-0.13","9tw7e8lcpm","","9tw7e8lcpm","""2024-11-13T02:15:17.588Z""","null","+","null","","","","","","",""
"","","","","","image-keyboard-response","65","195297","0.0-13.0-0.1-1.13","9tw7e8lcpm","","9tw7e8lcpm","""2024-11-13T02:15:17.588Z""","720","materials/imgs/D22.png","arrowleft","","[""materials/imgs/D52.png"",""materials/imgs/D53.png""]","false","random","","",""
"","","","","","html-keyboard-response","66","195800","0.0-13.0-1.1-0.1","9tw7e8lcpm","","9tw7e8lcpm","""2024-11-13T02:15:17.588Z""","null","+","null","","","","","","",""
"","","","","","image-keyboard-response","67","196495","0.0-13.0-1.1-1.1","9tw7e8lcpm","","9tw7e8lcpm","""2024-11-13T02:15:17.588Z""","693","materials/imgs/D78.png","arrowright","","[""materials/imgs/D76.png"",""materials/imgs/D78.png""]","","check","materials/imgs/D78.png","1","true"
"","","","","","html-keyboard-response","68","196998","0.0-13.0-2.1-0.2","9tw7e8lcpm","","9tw7e8lcpm","""2024-11-13T02:15:17.588Z""","null","+","null","","","","","","",""
"","","","","","image-keyboard-response","69","197683","0.0-13.0-2.1-1.2","9tw7e8lcpm","","9tw7e8lcpm","""2024-11-13T02:15:17.588Z""","683","materials/imgs/D35.png","arrowleft","","[""materials/imgs/D83.png"",""materials/imgs/D24.png""]","false","validation","","",""
"","","","","","html-keyboard-response","70","198186","0.0-13.0-2.1-0.3","9tw7e8lcpm","","9tw7e8lcpm","""2024-11-13T02:15:17.588Z""","null","+","null","","","","","","",""
"","","","","","image-keyboard-response","71","199270","0.0-13.0-2.1-1.3","9tw7e8lcpm","","9tw7e8lcpm","""2024-11-13T02:15:17.588Z""","1083","materials/imgs/D103.png","arrowleft","","[""materials/imgs/D76.png"",""materials/imgs/D106.png""]","false","validation","","",""
"","","","","","html-keyboard-response","72","199774","0.0-13.0-0.2-0.14","9tw7e8lcpm","","9tw7e8lcpm","""2024-11-13T02:15:17.588Z""","null","+","null","","","","","","",""
"","","","","","image-keyboard-response","73","200711","0.0-13.0-0.2-1.14","9tw7e8lcpm","","9tw7e8lcpm","""2024-11-13T02:15:17.588Z""","935","materials/imgs/D19.png","arrowleft","","[""materials/imgs/D76.png"",""materials/imgs/D24.png""]","false","random","","",""
"","","","","","html-keyboard-response","74","201214","0.0-13.0-0.2-0.15","9tw7e8lcpm","","9tw7e8lcpm","""2024-11-13T02:15:17.588Z""","null","+","null","","","","","","",""
"","","","","","image-keyboard-response","75","202275","0.0-13.0-0.2-1.15","9tw7e8lcpm","","9tw7e8lcpm","""2024-11-13T02:15:17.588Z""","1058","materials/imgs/D8.png","arrowright","","[""materials/imgs/D95.png"",""materials/imgs/D53.png""]","false","random","","",""
"","","","","","html-keyboard-response","76","202776","0.0-13.0-0.2-0.16","9tw7e8lcpm","","9tw7e8lcpm","""2024-11-13T02:15:17.588Z""","null","+","null","","","","","","",""
"","","","","","image-keyboard-response","77","203986","0.0-13.0-0.2-1.16","9tw7e8lcpm","","9tw7e8lcpm","""2024-11-13T02:15:17.588Z""","1208","materials/imgs/D75.png","arrowleft","","[""materials/imgs/D36.png"",""materials/imgs/D37.png""]","false","random","","",""
"","","","","","html-keyboard-response","78","204488","0.0-13.0-0.2-0.17","9tw7e8lcpm","","9tw7e8lcpm","""2024-11-13T02:15:17.588Z""","null","+","null","","","","","","",""
"","","","","","image-keyboard-response","79","205505","0.0-13.0-0.2-1.17","9tw7e8lcpm","","9tw7e8lcpm","""2024-11-13T02:15:17.588Z""","1014","materials/imgs/D87.png","arrowright","","[""materials/imgs/D56.png"",""materials/imgs/D104.png""]","false","random","","",""
"","","","","","html-keyboard-response","80","206008","0.0-13.0-0.2-0.18","9tw7e8lcpm","","9tw7e8lcpm","""2024-11-13T02:15:17.588Z""","null","+","null","","","","","","",""
"","","","","","image-keyboard-response","81","207090","0.0-13.0-0.2-1.18","9tw7e8lcpm","","9tw7e8lcpm","""2024-11-13T02:15:17.588Z""","1080","materials/imgs/D52.png","arrowleft","","[""materials/imgs/D16.png"",""materials/imgs/D29.png""]","false","random","","",""
"","","","","","html-keyboard-response","82","207592","0.0-13.0-0.2-0.19","9tw7e8lcpm","","9tw7e8lcpm","""2024-11-13T02:15:17.588Z""","null","+","null","","","","","","",""
"","","","","","image-keyboard-response","83","208745","0.0-13.0-0.2-1.19","9tw7e8lcpm","","9tw7e8lcpm","""2024-11-13T02:15:17.588Z""","1151","materials/imgs/D102.png","arrowright","","[""materials/imgs/D76.png"",""materials/imgs/D22.png""]","false","random","","",""
"","","","","","html-keyboard-response","84","209248","0.0-13.0-0.2-0.20","9tw7e8lcpm","","9tw7e8lcpm","""2024-11-13T02:15:17.588Z""","null","+","null","","","","","","",""
"","","","","","image-keyboard-response","85","210306","0.0-13.0-0.2-1.20","9tw7e8lcpm","","9tw7e8lcpm","""2024-11-13T02:15:17.588Z""","1056","materials/imgs/D35.png","arrowright","","[""materials/imgs/D25.png"",""materials/imgs/D56.png""]","false","random","","",""
"","","","","","html-keyboard-response","86","210810","0.0-13.0-1.2-0.2","9tw7e8lcpm","","9tw7e8lcpm","""2024-11-13T02:15:17.588Z""","null","+","null","","","","","","",""
"","","","","","image-keyboard-response","87","211495","0.0-13.0-1.2-1.2","9tw7e8lcpm","","9tw7e8lcpm","""2024-11-13T02:15:17.588Z""","683","materials/imgs/D53.png","arrowright","","[""materials/imgs/D64.png"",""materials/imgs/D53.png""]","","check","materials/imgs/D53.png","1","true"
"","","","","","html-keyboard-response","88","211996","0.0-13.0-2.2-0.4","9tw7e8lcpm","","9tw7e8lcpm","""2024-11-13T02:15:17.588Z""","null","+","null","","","","","","",""
"","","","","","image-keyboard-response","89","212667","0.0-13.0-2.2-1.4","9tw7e8lcpm","","9tw7e8lcpm","""2024-11-13T02:15:17.588Z""","670","materials/imgs/D57.png","arrowright","","[""materials/imgs/D111.png"",""materials/imgs/D4.png""]","false","validation","","",""
"","","","","","html-keyboard-response","90","213169","0.0-13.0-2.2-0.5","9tw7e8lcpm","","9tw7e8lcpm","""2024-11-13T02:15:17.588Z""","null","+","null","","","","","","",""
"","","","","","image-keyboard-response","91","216198","0.0-13.0-2.2-1.5","9tw7e8lcpm","","9tw7e8lcpm","""2024-11-13T02:15:17.588Z""","3027","materials/imgs/D101.png","arrowleft","","[""materials/imgs/D76.png"",""materials/imgs/D47.png""]","false","validation","","",""
"","","","","","html-keyboard-response","92","216702","0.0-13.0-0.3-0.21","9tw7e8lcpm","","9tw7e8lcpm","""2024-11-13T02:15:17.588Z""","null","+","null","","","","","","",""
"","","","","","image-keyboard-response","93","218601","0.0-13.0-0.3-1.21","9tw7e8lcpm","","9tw7e8lcpm","""2024-11-13T02:15:17.588Z""","1897","materials/imgs/D25.png","arrowleft","","[""materials/imgs/D18.png"",""materials/imgs/D35.png""]","false","random","","",""
"","","","","","html-keyboard-response","94","219105","0.0-13.0-0.3-0.22","9tw7e8lcpm","","9tw7e8lcpm","""2024-11-13T02:15:17.588Z""","null","+","null","","","","","","",""
"","","","","","image-keyboard-response","95","220206","0.0-13.0-0.3-1.22","9tw7e8lcpm","","9tw7e8lcpm","""2024-11-13T02:15:17.588Z""","1099","materials/imgs/D4.png","arrowleft","","[""materials/imgs/D22.png"",""materials/imgs/D74.png""]","false","random","","",""
"","","","","","html-keyboard-response","96","220708","0.0-13.0-0.3-0.23","9tw7e8lcpm","","9tw7e8lcpm","""2024-11-13T02:15:17.588Z""","null","+","null","","","","","","",""
"","","","","","image-keyboard-response","97","221428","0.0-13.0-0.3-1.23","9tw7e8lcpm","","9tw7e8lcpm","""2024-11-13T02:15:17.588Z""","718","materials/imgs/D55.png","arrowright","","[""materials/imgs/D101.png"",""materials/imgs/D65.png""]","false","random","","",""
"","","","","","html-keyboard-response","98","221928","0.0-13.0-0.3-0.24","9tw7e8lcpm","","9tw7e8lcpm","""2024-11-13T02:15:17.588Z""","null","+","null","","","","","","",""
"","","","","","image-keyboard-response","99","223602","0.0-13.0-0.3-1.24","9tw7e8lcpm","","9tw7e8lcpm","""2024-11-13T02:15:17.588Z""","1672","materials/imgs/D19.png","arrowright","","[""materials/imgs/D26.png"",""materials/imgs/D36.png""]","false","random","","",""
"","","","","","html-keyboard-response","100","224106","0.0-13.0-0.3-0.25","9tw7e8lcpm","","9tw7e8lcpm","""2024-11-13T02:15:17.588Z""","null","+","null","","","","","","",""
"","","","","","image-keyboard-response","101","225533","0.0-13.0-0.3-1.25","9tw7e8lcpm","","9tw7e8lcpm","""2024-11-13T02:15:17.588Z""","1425","materials/imgs/D52.png","arrowright","","[""materials/imgs/D46.png"",""materials/imgs/D80.png""]","false","random","","",""
"","","","","","html-keyboard-response","102","226034","0.0-13.0-0.3-0.26","9tw7e8lcpm","","9tw7e8lcpm","""2024-11-13T02:15:17.588Z""","null","+","null","","","","","","",""
"","","","","","image-keyboard-response","103","227126","0.0-13.0-0.3-1.26","9tw7e8lcpm","","9tw7e8lcpm","""2024-11-13T02:15:17.588Z""","1090","materials/imgs/D83.png","arrowright","","[""materials/imgs/D9.png"",""materials/imgs/D47.png""]","false","random","","",""
"","","","","","html-keyboard-response","104","227627","0.0-13.0-0.3-0.27","9tw7e8lcpm","","9tw7e8lcpm","""2024-11-13T02:15:17.588Z""","null","+","null","","","","","","",""
"","","","","","image-keyboard-response","105","228681","0.0-13.0-0.3-1.27","9tw7e8lcpm","","9tw7e8lcpm","""2024-11-13T02:15:17.588Z""","1052","materials/imgs/D49.png","arrowleft","","[""materials/imgs/D64.png"",""materials/imgs/D48.png""]","false","random","","",""
"","","","","","html-keyboard-response","106","229182","0.0-13.0-1.3-0.3","9tw7e8lcpm","","9tw7e8lcpm","""2024-11-13T02:15:17.588Z""","null","+","null","","","","","","",""
"","","","","","image-keyboard-response","107","229848","0.0-13.0-1.3-1.3","9tw7e8lcpm","","9tw7e8lcpm","""2024-11-13T02:15:17.588Z""","664","materials/imgs/D8.png","arrowright","","[""materials/imgs/D18.png"",""materials/imgs/D8.png""]","","check","materials/imgs/D8.png","1","true"
"","","","","","html-keyboard-response","108","230350","0.0-13.0-2.3-0.6","9tw7e8lcpm","","9tw7e8lcpm","""2024-11-13T02:15:17.588Z""","null","+","null","","","","","","",""
"","","","","","image-keyboard-response","109","231600","0.0-13.0-2.3-1.6","9tw7e8lcpm","","9tw7e8lcpm","""2024-11-13T02:15:17.588Z""","1249","materials/imgs/D51.png","arrowright","","[""materials/imgs/D92.png"",""materials/imgs/D20.png""]","false","validation","","",""
"","","","","","html-keyboard-response","110","232101","0.0-13.0-2.3-0.7","9tw7e8lcpm","","9tw7e8lcpm","""2024-11-13T02:15:17.588Z""","null","+","null","","","","","","",""
"","","","","","image-keyboard-response","111","234768","0.0-13.0-2.3-1.7","9tw7e8lcpm","","9tw7e8lcpm","""2024-11-13T02:15:17.588Z""","2666","materials/imgs/D36.png","arrowleft","","[""materials/imgs/D47.png"",""materials/imgs/D49.png""]","false","validation","","",""
"","","","","","html-keyboard-response","112","235270","0.0-13.0-0.4-0.28","9tw7e8lcpm","","9tw7e8lcpm","""2024-11-13T02:15:17.588Z""","null","+","null","","","","","","",""
"","","","","","image-keyboard-response","113","236420","0.0-13.0-0.4-1.28","9tw7e8lcpm","","9tw7e8lcpm","""2024-11-13T02:15:17.588Z""","1148","materials/imgs/D79.png","arrowleft","","[""materials/imgs/D19.png"",""materials/imgs/D26.png""]","false","random","","",""
"","","","","","html-keyboard-response","114","236923","0.0-13.0-0.4-0.29","9tw7e8lcpm","","9tw7e8lcpm","""2024-11-13T02:15:17.588Z""","null","+","null","","","","","","",""
"","","","","","image-keyboard-response","115","238040","0.0-13.0-0.4-1.29","9tw7e8lcpm","","9tw7e8lcpm","""2024-11-13T02:15:17.588Z""","1115","materials/imgs/D85.png","arrowleft","","[""materials/imgs/D55.png"",""materials/imgs/D56.png""]","false","random","","",""
"","","","","","html-keyboard-response","116","238542","0.0-13.0-0.4-0.30","9tw7e8lcpm","","9tw7e8lcpm","""2024-11-13T02:15:17.588Z""","null","+","null","","","","","","",""
"","","","","","image-keyboard-response","117","240468","0.0-13.0-0.4-1.30","9tw7e8lcpm","","9tw7e8lcpm","""2024-11-13T02:15:17.588Z""","1924","materials/imgs/D26.png","arrowleft","","[""materials/imgs/D47.png"",""materials/imgs/D8.png""]","false","random","","",""
"","","","","","html-keyboard-response","118","240970","0.0-13.0-0.4-0.31","9tw7e8lcpm","","9tw7e8lcpm","""2024-11-13T02:15:17.588Z""","null","+","null","","","","","","",""
"","","","","","image-keyboard-response","119","241891","0.0-13.0-0.4-1.31","9tw7e8lcpm","","9tw7e8lcpm","""2024-11-13T02:15:17.588Z""","919","materials/imgs/D22.png","arrowright","","[""materials/imgs/D47.png"",""materials/imgs/D19.png""]","false","random","","",""
"","","","","","html-keyboard-response","120","242392","0.0-13.0-0.4-0.32","9tw7e8lcpm","","9tw7e8lcpm","""2024-11-13T02:15:17.588Z""","null","+","null","","","","","","",""
"","","","","","image-keyboard-response","121","243698","0.0-13.0-0.4-1.32","9tw7e8lcpm","","9tw7e8lcpm","""2024-11-13T02:15:17.588Z""","1304","materials/imgs/D46.png","arrowleft","","[""materials/imgs/D111.png"",""materials/imgs/D51.png""]","false","random","","",""
"","","","","","html-keyboard-response","122","244200","0.0-13.0-0.4-0.33","9tw7e8lcpm","","9tw7e8lcpm","""2024-11-13T02:15:17.588Z""","null","+","null","","","","","","",""
"","","","","","image-keyboard-response","123","246621","0.0-13.0-0.4-1.33","9tw7e8lcpm","","9tw7e8lcpm","""2024-11-13T02:15:17.588Z""","2419","materials/imgs/D25.png","arrowright","","[""materials/imgs/D46.png"",""materials/imgs/D92.png""]","false","random","","",""
"","","","","","html-keyboard-response","124","247122","0.0-13.0-0.4-0.34","9tw7e8lcpm","","9tw7e8lcpm","""2024-11-13T02:15:17.588Z""","null","+","null","","","","","","",""
"","","","","","image-keyboard-response","125","249599","0.0-13.0-0.4-1.34","9tw7e8lcpm","","9tw7e8lcpm","""2024-11-13T02:15:17.588Z""","2474","materials/imgs/D6.png","arrowleft","","[""materials/imgs/D48.png"",""materials/imgs/D57.png""]","false","random","","",""
"","","","","","html-keyboard-response","126","250103","0.0-13.0-1.4-0.4","9tw7e8lcpm","","9tw7e8lcpm","""2024-11-13T02:15:17.588Z""","null","+","null","","","","","","",""
"","","","","","image-keyboard-response","127","250862","0.0-13.0-1.4-1.4","9tw7e8lcpm","","9tw7e8lcpm","""2024-11-13T02:15:17.588Z""","757","materials/imgs/D101.png","arrowright","","[""materials/imgs/D106.png"",""materials/imgs/D101.png""]","","check","materials/imgs/D101.png","1","true"
"","","","","","html-keyboard-response","128","251363","0.0-13.0-2.4-0.8","9tw7e8lcpm","","9tw7e8lcpm","""2024-11-13T02:15:17.588Z""","null","+","null","","","","","","",""
"","","","","","image-keyboard-response","129","254219","0.0-13.0-2.4-1.8","9tw7e8lcpm","","9tw7e8lcpm","""2024-11-13T02:15:17.588Z""","2854","materials/imgs/D46.png","arrowright","","[""materials/imgs/D92.png"",""materials/imgs/D77.png""]","false","validation","","",""
"","","","","","html-keyboard-response","130","254721","0.0-13.0-2.4-0.9","9tw7e8lcpm","","9tw7e8lcpm","""2024-11-13T02:15:17.588Z""","null","+","null","","","","","","",""
"","","","","","image-keyboard-response","131","256020","0.0-13.0-2.4-1.9","9tw7e8lcpm","","9tw7e8lcpm","""2024-11-13T02:15:17.588Z""","1297","materials/imgs/D26.png","arrowright","","[""materials/imgs/D36.png"",""materials/imgs/D92.png""]","false","validation","","",""
"","","","","","html-button-response","132","258569","0.0-14.0","9tw7e8lcpm","","9tw7e8lcpm","""2024-11-13T02:15:17.588Z""","2548","You have completed 25% of the trials. Please click 'Continue' when you are ready proceed.","0","","","","","","",""
"","","","","","html-keyboard-response","133","259070","0.0-15.0-0.0-0.0","9tw7e8lcpm","","9tw7e8lcpm","""2024-11-13T02:15:17.588Z""","null","+","null","","","","","","",""
"","","","","","image-keyboard-response","134","260333","0.0-15.0-0.0-1.0","9tw7e8lcpm","","9tw7e8lcpm","""2024-11-13T02:15:17.588Z""","1260","materials/imgs/D78.png","arrowleft","","[""materials/imgs/D49.png"",""materials/imgs/D95.png""]","false","random","","",""
"","","","","","html-keyboard-response","135","260835","0.0-15.0-0.0-0.1","9tw7e8lcpm","","9tw7e8lcpm","""2024-11-13T02:15:17.588Z""","null","+","null","","","","","","",""
"","","","","","image-keyboard-response","136","261709","0.0-15.0-0.0-1.1","9tw7e8lcpm","","9tw7e8lcpm","""2024-11-13T02:15:17.588Z""","872","materials/imgs/D4.png","arrowright","","[""materials/imgs/D111.png"",""materials/imgs/D84.png""]","false","random","","",""
"","","","","","html-keyboard-response","137","262211","0.0-15.0-0.0-0.2","9tw7e8lcpm","","9tw7e8lcpm","""2024-11-13T02:15:17.588Z""","null","+","null","","","","","","",""
"","","","","","image-keyboard-response","138","263463","0.0-15.0-0.0-1.2","9tw7e8lcpm","","9tw7e8lcpm","""2024-11-13T02:15:17.588Z""","1250","materials/imgs/D65.png","arrowright","","[""materials/imgs/D4.png"",""materials/imgs/D51.png""]","false","random","","",""
"","","","","","html-keyboard-response","139","263964","0.0-15.0-0.0-0.3","9tw7e8lcpm","","9tw7e8lcpm","""2024-11-13T02:15:17.588Z""","null","+","null","","","","","","",""
"","","","","","image-keyboard-response","140","266378","0.0-15.0-0.0-1.3","9tw7e8lcpm","","9tw7e8lcpm","""2024-11-13T02:15:17.588Z""","2412","materials/imgs/D74.png","arrowleft","","[""materials/imgs/D17.png"",""materials/imgs/D77.png""]","false","random","","",""
"","","","","","html-keyboard-response","141","266881","0.0-15.0-0.0-0.4","9tw7e8lcpm","","9tw7e8lcpm","""2024-11-13T02:15:17.588Z""","null","+","null","","","","","","",""
"","","","","","image-keyboard-response","142","269061","0.0-15.0-0.0-1.4","9tw7e8lcpm","","9tw7e8lcpm","""2024-11-13T02:15:17.588Z""","2178","materials/imgs/D95.png","arrowright","","[""materials/imgs/D85.png"",""materials/imgs/D9.png""]","false","random","","",""
"","","","","","html-keyboard-response","143","269562","0.0-15.0-0.0-0.5","9tw7e8lcpm","","9tw7e8lcpm","""2024-11-13T02:15:17.588Z""","null","+","null","","","","","","",""
"","","","","","image-keyboard-response","144","272712","0.0-15.0-0.0-1.5","9tw7e8lcpm","","9tw7e8lcpm","""2024-11-13T02:15:17.588Z""","3148","materials/imgs/D20.png","arrowleft","","[""materials/imgs/D22.png"",""materials/imgs/D25.png""]","false","random","","",""
"","","","","","html-keyboard-response","145","273216","0.0-15.0-0.0-0.6","9tw7e8lcpm","","9tw7e8lcpm","""2024-11-13T02:15:17.588Z""","null","+","null","","","","","","",""
"","","","","","image-keyboard-response","146","277283","0.0-15.0-0.0-1.6","9tw7e8lcpm","","9tw7e8lcpm","""2024-11-13T02:15:17.588Z""","4065","materials/imgs/D80.png","arrowleft","","[""materials/imgs/D85.png"",""materials/imgs/D64.png""]","false","random","","",""
"","","","","","html-keyboard-response","147","277784","0.0-15.0-1.0-0.0","9tw7e8lcpm","","9tw7e8lcpm","""2024-11-13T02:15:17.588Z""","null","+","null","","","","","","",""
"","","","","","image-keyboard-response","148","278597","0.0-15.0-1.0-1.0","9tw7e8lcpm","","9tw7e8lcpm","""2024-11-13T02:15:17.588Z""","812","materials/imgs/D53.png","arrowright","","[""materials/imgs/D64.png"",""materials/imgs/D53.png""]","","check","materials/imgs/D53.png","1","true"
"","","","","","html-keyboard-response","149","279098","0.0-15.0-2.0-0.0","9tw7e8lcpm","","9tw7e8lcpm","""2024-11-13T02:15:17.588Z""","null","+","null","","","","","","",""
"","","","","","image-keyboard-response","150","281378","0.0-15.0-2.0-1.0","9tw7e8lcpm","","9tw7e8lcpm","""2024-11-13T02:15:17.588Z""","2279","materials/imgs/D68.png","arrowleft","","[""materials/imgs/D96.png"",""materials/imgs/D48.png""]","false","validation","","",""
"","","","","","html-keyboard-response","151","281882","0.0-15.0-2.0-0.1","9tw7e8lcpm","","9tw7e8lcpm","""2024-11-13T02:15:17.588Z""","null","+","null","","","","","","",""
"","","","","","image-keyboard-response","152","283510","0.0-15.0-2.0-1.1","9tw7e8lcpm","","9tw7e8lcpm","""2024-11-13T02:15:17.588Z""","1626","materials/imgs/D11.png","arrowleft","","[""materials/imgs/D83.png"",""materials/imgs/D48.png""]","false","validation","","",""
"","","","","","html-keyboard-response","153","284014","0.0-15.0-0.1-0.7","9tw7e8lcpm","","9tw7e8lcpm","""2024-11-13T02:15:17.588Z""","null","+","null","","","","","","",""
"","","","","","image-keyboard-response","154","286201","0.0-15.0-0.1-1.7","9tw7e8lcpm","","9tw7e8lcpm","""2024-11-13T02:15:17.588Z""","2185","materials/imgs/D35.png","arrowleft","","[""materials/imgs/D47.png"",""materials/imgs/D26.png""]","false","random","","",""
"","","","","","html-keyboard-response","155","286704","0.0-15.0-0.1-0.8","9tw7e8lcpm","","9tw7e8lcpm","""2024-11-13T02:15:17.588Z""","null","+","null","","","","","","",""
"","","","","","image-keyboard-response","156","287705","0.0-15.0-0.1-1.8","9tw7e8lcpm","","9tw7e8lcpm","""2024-11-13T02:15:17.588Z""","999","materials/imgs/D21.png","arrowright","","[""materials/imgs/D26.png"",""materials/imgs/D14.png""]","false","random","","",""
"","","","","","html-keyboard-response","157","288206","0.0-15.0-0.1-0.9","9tw7e8lcpm","","9tw7e8lcpm","""2024-11-13T02:15:17.588Z""","null","+","null","","","","","","",""
"","","","","","image-keyboard-response","158","291759","0.0-15.0-0.1-1.9","9tw7e8lcpm","","9tw7e8lcpm","""2024-11-13T02:15:17.588Z""","3551","materials/imgs/D32.png","arrowright","","[""materials/imgs/D22.png"",""materials/imgs/D53.png""]","false","random","","",""
"","","","","","html-keyboard-response","159","292263","0.0-15.0-0.1-0.10","9tw7e8lcpm","","9tw7e8lcpm","""2024-11-13T02:15:17.588Z""","null","+","null","","","","","","",""
"","","","","","image-keyboard-response","160","293698","0.0-15.0-0.1-1.10","9tw7e8lcpm","","9tw7e8lcpm","""2024-11-13T02:15:17.588Z""","1434","materials/imgs/D75.png","arrowright","","[""materials/imgs/D94.png"",""materials/imgs/D19.png""]","false","random","","",""
"","","","","","html-keyboard-response","161","294199","0.0-15.0-0.1-0.11","9tw7e8lcpm","","9tw7e8lcpm","""2024-11-13T02:15:17.588Z""","null","+","null","","","","","","",""
"","","","","","image-keyboard-response","162","295605","0.0-15.0-0.1-1.11","9tw7e8lcpm","","9tw7e8lcpm","""2024-11-13T02:15:17.588Z""","1404","materials/imgs/D65.png","arrowright","","[""materials/imgs/D84.png"",""materials/imgs/D19.png""]","false","random","","",""
"","","","","","html-keyboard-response","163","296106","0.0-15.0-0.1-0.12","9tw7e8lcpm","","9tw7e8lcpm","""2024-11-13T02:15:17.588Z""","null","+","null","","","","","","",""
"","","","","","image-keyboard-response","164","298386","0.0-15.0-0.1-1.12","9tw7e8lcpm","","9tw7e8lcpm","""2024-11-13T02:15:17.588Z""","2279","materials/imgs/D83.png","arrowleft","","[""materials/imgs/D1.png"",""materials/imgs/D101.png""]","false","random","","",""
"","","","","","html-keyboard-response","165","298888","0.0-15.0-0.1-0.13","9tw7e8lcpm","","9tw7e8lcpm","""2024-11-13T02:15:17.588Z""","null","+","null","","","","","","",""
"","","","","","image-keyboard-response","166","300559","0.0-15.0-0.1-1.13","9tw7e8lcpm","","9tw7e8lcpm","""2024-11-13T02:15:17.588Z""","1669","materials/imgs/D65.png","arrowright","","[""materials/imgs/D81.png"",""materials/imgs/D48.png""]","false","random","","",""
"","","","","","html-keyboard-response","167","301061","0.0-15.0-1.1-0.1","9tw7e8lcpm","","9tw7e8lcpm","""2024-11-13T02:15:17.588Z""","null","+","null","","","","","","",""
"","","","","","image-keyboard-response","168","301764","0.0-15.0-1.1-1.1","9tw7e8lcpm","","9tw7e8lcpm","""2024-11-13T02:15:17.588Z""","701","materials/imgs/D76.png","arrowleft","","[""materials/imgs/D76.png"",""materials/imgs/D78.png""]","","check","materials/imgs/D76.png","0","true"
"","","","","","html-keyboard-response","169","302267","0.0-15.0-2.1-0.2","9tw7e8lcpm","","9tw7e8lcpm","""2024-11-13T02:15:17.588Z""","null","+","null","","","","","","",""
"","","","","","image-keyboard-response","170","303660","0.0-15.0-2.1-1.2","9tw7e8lcpm","","9tw7e8lcpm","""2024-11-13T02:15:17.588Z""","1391","materials/imgs/D32.png","arrowleft","","[""materials/imgs/D68.png"",""materials/imgs/D96.png""]","false","validation","","",""
"","","","","","html-keyboard-response","171","304162","0.0-15.0-2.1-0.3","9tw7e8lcpm","","9tw7e8lcpm","""2024-11-13T02:15:17.588Z""","null","+","null","","","","","","",""
"","","","","","image-keyboard-response","172","305474","0.0-15.0-2.1-1.3","9tw7e8lcpm","","9tw7e8lcpm","""2024-11-13T02:15:17.588Z""","1311","materials/imgs/D82.png","arrowleft","","[""materials/imgs/D83.png"",""materials/imgs/D22.png""]","false","validation","","",""
"","","","","","html-keyboard-response","173","305976","0.0-15.0-0.2-0.14","9tw7e8lcpm","","9tw7e8lcpm","""2024-11-13T02:15:17.588Z""","null","+","null","","","","","","",""
"","","","","","image-keyboard-response","174","307106","0.0-15.0-0.2-1.14","9tw7e8lcpm","","9tw7e8lcpm","""2024-11-13T02:15:17.588Z""","1127","materials/imgs/D80.png","arrowleft","","[""materials/imgs/D19.png"",""materials/imgs/D37.png""]","false","random","","",""
"","","","","","html-keyboard-response","175","307610","0.0-15.0-0.2-0.15","9tw7e8lcpm","","9tw7e8lcpm","""2024-11-13T02:15:17.588Z""","null","+","null","","","","","","",""
"","","","","","image-keyboard-response","176","308716","0.0-15.0-0.2-1.15","9tw7e8lcpm","","9tw7e8lcpm","""2024-11-13T02:15:17.588Z""","1104","materials/imgs/D35.png","arrowright","","[""materials/imgs/D53.png"",""materials/imgs/D84.png""]","false","random","","",""
"","","","","","html-keyboard-response","177","309219","0.0-15.0-0.2-0.16","9tw7e8lcpm","","9tw7e8lcpm","""2024-11-13T02:15:17.588Z""","null","+","null","","","","","","",""
"","","","","","image-keyboard-response","178","310615","0.0-15.0-0.2-1.16","9tw7e8lcpm","","9tw7e8lcpm","""2024-11-13T02:15:17.588Z""","1394","materials/imgs/D17.png","arrowright","","[""materials/imgs/D80.png"",""materials/imgs/D3.png""]","false","random","","",""
"","","","","","html-keyboard-response","179","311116","0.0-15.0-0.2-0.17","9tw7e8lcpm","","9tw7e8lcpm","""2024-11-13T02:15:17.588Z""","null","+","null","","","","","","",""
"","","","","","image-keyboard-response","180","312123","0.0-15.0-0.2-1.17","9tw7e8lcpm","","9tw7e8lcpm","""2024-11-13T02:15:17.588Z""","997","materials/imgs/D32.png","arrowright","","[""materials/imgs/D111.png"",""materials/imgs/D79.png""]","false","random","","",""
"","","","","","html-keyboard-response","181","312625","0.0-15.0-0.2-0.18","9tw7e8lcpm","","9tw7e8lcpm","""2024-11-13T02:15:17.588Z""","null","+","null","","","","","","",""
"","","","","","image-keyboard-response","182","313802","0.0-15.0-0.2-1.18","9tw7e8lcpm","","9tw7e8lcpm","""2024-11-13T02:15:17.588Z""","1175","materials/imgs/D57.png","arrowleft","","[""materials/imgs/D47.png"",""materials/imgs/D94.png""]","false","random","","",""
"","","","","","html-keyboard-response","183","314303","0.0-15.0-0.2-0.19","9tw7e8lcpm","","9tw7e8lcpm","""2024-11-13T02:15:17.588Z""","null","+","null","","","","","","",""
"","","","","","image-keyboard-response","184","316089","0.0-15.0-0.2-1.19","9tw7e8lcpm","","9tw7e8lcpm","""2024-11-13T02:15:17.588Z""","1784","materials/imgs/D65.png","arrowleft","","[""materials/imgs/D6.png"",""materials/imgs/D26.png""]","false","random","","",""
"","","","","","html-keyboard-response","185","316590","0.0-15.0-0.2-0.20","9tw7e8lcpm","","9tw7e8lcpm","""2024-11-13T02:15:17.588Z""","null","+","null","","","","","","",""
"","","","","","image-keyboard-response","186","318569","0.0-15.0-0.2-1.20","9tw7e8lcpm","","9tw7e8lcpm","""2024-11-13T02:15:17.588Z""","1977","materials/imgs/D48.png","arrowright","","[""materials/imgs/D16.png"",""materials/imgs/D47.png""]","false","random","","",""
"","","","","","html-keyboard-response","187","319073","0.0-15.0-1.2-0.2","9tw7e8lcpm","","9tw7e8lcpm","""2024-11-13T02:15:17.588Z""","null","+","null","","","","","","",""
"","","","","","image-keyboard-response","188","319754","0.0-15.0-1.2-1.2","9tw7e8lcpm","","9tw7e8lcpm","""2024-11-13T02:15:17.588Z""","680","materials/imgs/D53.png","arrowright","","[""materials/imgs/D64.png"",""materials/imgs/D53.png""]","","check","materials/imgs/D53.png","1","true"
"","","","","","html-keyboard-response","189","320256","0.0-15.0-2.2-0.4","9tw7e8lcpm","","9tw7e8lcpm","""2024-11-13T02:15:17.588Z""","null","+","null","","","","","","",""
"","","","","","image-keyboard-response","190","321736","0.0-15.0-2.2-1.4","9tw7e8lcpm","","9tw7e8lcpm","""2024-11-13T02:15:17.588Z""","1479","materials/imgs/D1.png","arrowleft","","[""materials/imgs/D57.png"",""materials/imgs/D76.png""]","false","validation","","",""
"","","","","","html-keyboard-response","191","322240","0.0-15.0-2.2-0.5","9tw7e8lcpm","","9tw7e8lcpm","""2024-11-13T02:15:17.588Z""","null","+","null","","","","","","",""
"","","","","","image-keyboard-response","192","324971","0.0-15.0-2.2-1.5","9tw7e8lcpm","","9tw7e8lcpm","""2024-11-13T02:15:17.588Z""","2730","materials/imgs/D96.png","arrowleft","","[""materials/imgs/D46.png"",""materials/imgs/D18.png""]","false","validation","","",""
"","","","","","html-keyboard-response","193","325473","0.0-15.0-0.3-0.21","9tw7e8lcpm","","9tw7e8lcpm","""2024-11-13T02:15:17.588Z""","null","+","null","","","","","","",""
"","","","","","image-keyboard-response","194","326676","0.0-15.0-0.3-1.21","9tw7e8lcpm","","9tw7e8lcpm","""2024-11-13T02:15:17.588Z""","1201","materials/imgs/D21.png","arrowleft","","[""materials/imgs/D53.png"",""materials/imgs/D46.png""]","false","random","","",""
"","","","","","html-keyboard-response","195","327177","0.0-15.0-0.3-0.22","9tw7e8lcpm","","9tw7e8lcpm","""2024-11-13T02:15:17.588Z""","null","+","null","","","","","","",""
"","","","","","image-keyboard-response","196","327928","0.0-15.0-0.3-1.22","9tw7e8lcpm","","9tw7e8lcpm","""2024-11-13T02:15:17.588Z""","749","materials/imgs/D24.png","arrowright","","[""materials/imgs/D96.png"",""materials/imgs/D3.png""]","false","random","","",""
"","","","","","html-keyboard-response","197","328429","0.0-15.0-0.3-0.23","9tw7e8lcpm","","9tw7e8lcpm","""2024-11-13T02:15:17.588Z""","null","+","null","","","","","","",""
"","","","","","image-keyboard-response","198","329651","0.0-15.0-0.3-1.23","9tw7e8lcpm","","9tw7e8lcpm","""2024-11-13T02:15:17.588Z""","1220","materials/imgs/D85.png","arrowright","","[""materials/imgs/D16.png"",""materials/imgs/D83.png""]","false","random","","",""
"","","","","","html-keyboard-response","199","330153","0.0-15.0-0.3-0.24","9tw7e8lcpm","","9tw7e8lcpm","""2024-11-13T02:15:17.588Z""","null","+","null","","","","","","",""
"","","","","","image-keyboard-response","200","330840","0.0-15.0-0.3-1.24","9tw7e8lcpm","","9tw7e8lcpm","""2024-11-13T02:15:17.588Z""","685","materials/imgs/D77.png","arrowleft","","[""materials/imgs/D21.png"",""materials/imgs/D66.png""]","false","random","","",""
"","","","","","html-keyboard-response","201","331343","0.0-15.0-0.3-0.25","9tw7e8lcpm","","9tw7e8lcpm","""2024-11-13T02:15:17.588Z""","null","+","null","","","","","","",""
"","","","","","image-keyboard-response","202","332517","0.0-15.0-0.3-1.25","9tw7e8lcpm","","9tw7e8lcpm","""2024-11-13T02:15:17.588Z""","1172","materials/imgs/D21.png","arrowleft","","[""materials/imgs/D19.png"",""materials/imgs/D8.png""]","false","random","","",""
"","","","","","html-keyboard-response","203","333018","0.0-15.0-0.3-0.26","9tw7e8lcpm","","9tw7e8lcpm","""2024-11-13T02:15:17.588Z""","null","+","null","","","","","","",""
"","","","","","image-keyboard-response","204","334338","0.0-15.0-0.3-1.26","9tw7e8lcpm","","9tw7e8lcpm","""2024-11-13T02:15:17.588Z""","1318","materials/imgs/D104.png","arrowright","","[""materials/imgs/D94.png"",""materials/imgs/D16.png""]","false","random","","",""
"","","","","","html-keyboard-response","205","334841","0.0-15.0-0.3-0.27","9tw7e8lcpm","","9tw7e8lcpm","""2024-11-13T02:15:17.588Z""","null","+","null","","","","","","",""
"","","","","","image-keyboard-response","206","335929","0.0-15.0-0.3-1.27","9tw7e8lcpm","","9tw7e8lcpm","""2024-11-13T02:15:17.588Z""","1086","materials/imgs/D92.png","arrowright","","[""materials/imgs/D104.png"",""materials/imgs/D37.png""]","false","random","","",""
"","","","","","html-keyboard-response","207","336430","0.0-15.0-1.3-0.3","9tw7e8lcpm","","9tw7e8lcpm","""2024-11-13T02:15:17.588Z""","null","+","null","","","","","","",""
"","","","","","image-keyboard-response","208","337118","0.0-15.0-1.3-1.3","9tw7e8lcpm","","9tw7e8lcpm","""2024-11-13T02:15:17.588Z""","686","materials/imgs/D18.png","arrowright","","[""materials/imgs/D8.png"",""materials/imgs/D18.png""]","","check","materials/imgs/D18.png","1","true"
"","","","","","html-keyboard-response","209","337620","0.0-15.0-2.3-0.6","9tw7e8lcpm","","9tw7e8lcpm","""2024-11-13T02:15:17.588Z""","null","+","null","","","","","","",""
"","","","","","image-keyboard-response","210","339290","0.0-15.0-2.3-1.6","9tw7e8lcpm","","9tw7e8lcpm","""2024-11-13T02:15:17.588Z""","1668","materials/imgs/D37.png","arrowright","","[""materials/imgs/D84.png"",""materials/imgs/D111.png""]","false","validation","","",""
"","","","","","html-keyboard-response","211","339791","0.0-15.0-2.3-0.7","9tw7e8lcpm","","9tw7e8lcpm","""2024-11-13T02:15:17.588Z""","null","+","null","","","","","","",""
"","","","","","image-keyboard-response","212","341229","0.0-15.0-2.3-1.7","9tw7e8lcpm","","9tw7e8lcpm","""2024-11-13T02:15:17.588Z""","1436","materials/imgs/D95.png","arrowright","","[""materials/imgs/D36.png"",""materials/imgs/D4.png""]","false","validation","","",""
"","","","","","html-keyboard-response","213","341732","0.0-15.0-0.4-0.28","9tw7e8lcpm","","9tw7e8lcpm","""2024-11-13T02:15:17.588Z""","null","+","null","","","","","","",""
"","","","","","image-keyboard-response","214","343505","0.0-15.0-0.4-1.28","9tw7e8lcpm","","9tw7e8lcpm","""2024-11-13T02:15:17.588Z""","1771","materials/imgs/D49.png","arrowleft","","[""materials/imgs/D34.png"",""materials/imgs/D96.png""]","false","random","","",""
"","","","","","html-keyboard-response","215","344009","0.0-15.0-0.4-0.29","9tw7e8lcpm","","9tw7e8lcpm","""2024-11-13T02:15:17.588Z""","null","+","null","","","","","","",""
"","","","","","image-keyboard-response","216","345530","0.0-15.0-0.4-1.29","9tw7e8lcpm","","9tw7e8lcpm","""2024-11-13T02:15:17.588Z""","1519","materials/imgs/D87.png","arrowleft","","[""materials/imgs/D80.png"",""materials/imgs/D74.png""]","false","random","","",""
"","","","","","html-keyboard-response","217","346033","0.0-15.0-0.4-0.30","9tw7e8lcpm","","9tw7e8lcpm","""2024-11-13T02:15:17.588Z""","null","+","null","","","","","","",""
"","","","","","image-keyboard-response","218","348416","0.0-15.0-0.4-1.30","9tw7e8lcpm","","9tw7e8lcpm","""2024-11-13T02:15:17.588Z""","2381","materials/imgs/D74.png","arrowleft","","[""materials/imgs/D68.png"",""materials/imgs/D106.png""]","false","random","","",""
"","","","","","html-keyboard-response","219","348917","0.0-15.0-0.4-0.31","9tw7e8lcpm","","9tw7e8lcpm","""2024-11-13T02:15:17.588Z""","null","+","null","","","","","","",""
"","","","","","image-keyboard-response","220","350856","0.0-15.0-0.4-1.31","9tw7e8lcpm","","9tw7e8lcpm","""2024-11-13T02:15:17.588Z""","1937","materials/imgs/D24.png","arrowright","","[""materials/imgs/D37.png"",""materials/imgs/D104.png""]","false","random","","",""
"","","","","","html-keyboard-response","221","351358","0.0-15.0-0.4-0.32","9tw7e8lcpm","","9tw7e8lcpm","""2024-11-13T02:15:17.588Z""","null","+","null","","","","","","",""
"","","","","","image-keyboard-response","222","353697","0.0-15.0-0.4-1.32","9tw7e8lcpm","","9tw7e8lcpm","""2024-11-13T02:15:17.588Z""","2337","materials/imgs/D52.png","arrowleft","","[""materials/imgs/D21.png"",""materials/imgs/D48.png""]","false","random","","",""
"","","","","","html-keyboard-response","223","354198","0.0-15.0-0.4-0.33","9tw7e8lcpm","","9tw7e8lcpm","""2024-11-13T02:15:17.588Z""","null","+","null","","","","","","",""
"","","","","","image-keyboard-response","224","355287","0.0-15.0-0.4-1.33","9tw7e8lcpm","","9tw7e8lcpm","""2024-11-13T02:15:17.588Z""","1087","materials/imgs/D36.png","arrowright","","[""materials/imgs/D66.png"",""materials/imgs/D29.png""]","false","random","","",""
"","","","","","html-keyboard-response","225","355788","0.0-15.0-0.4-0.34","9tw7e8lcpm","","9tw7e8lcpm","""2024-11-13T02:15:17.588Z""","null","+","null","","","","","","",""
"","","","","","image-keyboard-response","226","358087","0.0-15.0-0.4-1.34","9tw7e8lcpm","","9tw7e8lcpm","""2024-11-13T02:15:17.588Z""","2297","materials/imgs/D75.png","arrowleft","","[""materials/imgs/D36.png"",""materials/imgs/D21.png""]","false","random","","",""
"","","","","","html-keyboard-response","227","358589","0.0-15.0-1.4-0.4","9tw7e8lcpm","","9tw7e8lcpm","""2024-11-13T02:15:17.588Z""","null","+","null","","","","","","",""
"","","","","","image-keyboard-response","228","359222","0.0-15.0-1.4-1.4","9tw7e8lcpm","","9tw7e8lcpm","""2024-11-13T02:15:17.588Z""","632","materials/imgs/D46.png","arrowleft","","[""materials/imgs/D46.png"",""materials/imgs/D26.png""]","","check","materials/imgs/D46.png","0","true"
"","","","","","html-keyboard-response","229","359726","0.0-15.0-2.4-0.8","9tw7e8lcpm","","9tw7e8lcpm","""2024-11-13T02:15:17.588Z""","null","+","null","","","","","","",""
"","","","","","image-keyboard-response","230","360553","0.0-15.0-2.4-1.8","9tw7e8lcpm","","9tw7e8lcpm","""2024-11-13T02:15:17.588Z""","825","materials/imgs/D92.png","arrowright","","[""materials/imgs/D56.png"",""materials/imgs/D77.png""]","false","validation","","",""
"","","","","","html-keyboard-response","231","361054","0.0-15.0-2.4-0.9","9tw7e8lcpm","","9tw7e8lcpm","""2024-11-13T02:15:17.588Z""","null","+","null","","","","","","",""
"","","","","","image-keyboard-response","232","361759","0.0-15.0-2.4-1.9","9tw7e8lcpm","","9tw7e8lcpm","""2024-11-13T02:15:17.588Z""","704","materials/imgs/D11.png","arrowleft","","[""materials/imgs/D83.png"",""materials/imgs/D48.png""]","false","validation","","",""
"","","","","","html-button-response","233","363863","0.0-16.0","9tw7e8lcpm","","9tw7e8lcpm","""2024-11-13T02:15:17.588Z""","2103","You have completed 50% of the trials. Please click 'Continue' when you are ready proceed.","0","","","","","","",""
"","","","","","html-keyboard-response","234","364364","0.0-17.0-0.0-0.0","9tw7e8lcpm","","9tw7e8lcpm","""2024-11-13T02:15:17.588Z""","null","+","null","","","","","","",""
"","","","","","image-keyboard-response","235","365164","0.0-17.0-0.0-1.0","9tw7e8lcpm","","9tw7e8lcpm","""2024-11-13T02:15:17.588Z""","798","materials/imgs/D81.png","arrowright","","[""materials/imgs/D96.png"",""materials/imgs/D22.png""]","false","random","","",""
"","","","","","html-keyboard-response","236","365666","0.0-17.0-0.0-0.1","9tw7e8lcpm","","9tw7e8lcpm","""2024-11-13T02:15:17.588Z""","null","+","null","","","","","","",""
"","","","","","image-keyboard-response","237","367376","0.0-17.0-0.0-1.1","9tw7e8lcpm","","9tw7e8lcpm","""2024-11-13T02:15:17.588Z""","1708","materials/imgs/D92.png","arrowleft","","[""materials/imgs/D74.png"",""materials/imgs/D48.png""]","false","random","","",""
"","","","","","html-keyboard-response","238","367878","0.0-17.0-0.0-0.2","9tw7e8lcpm","","9tw7e8lcpm","""2024-11-13T02:15:17.588Z""","null","+","null","","","","","","",""
"","","","","","image-keyboard-response","239","368532","0.0-17.0-0.0-1.2","9tw7e8lcpm","","9tw7e8lcpm","""2024-11-13T02:15:17.588Z""","652","materials/imgs/D55.png","arrowright","","[""materials/imgs/D65.png"",""materials/imgs/D6.png""]","false","random","","",""
"","","","","","html-keyboard-response","240","369036","0.0-17.0-0.0-0.3","9tw7e8lcpm","","9tw7e8lcpm","""2024-11-13T02:15:17.588Z""","null","+","null","","","","","","",""
"","","","","","image-keyboard-response","241","369828","0.0-17.0-0.0-1.3","9tw7e8lcpm","","9tw7e8lcpm","""2024-11-13T02:15:17.588Z""","790","materials/imgs/D17.png","arrowleft","","[""materials/imgs/D52.png"",""materials/imgs/D51.png""]","false","random","","",""
"","","","","","html-keyboard-response","242","370329","0.0-17.0-0.0-0.4","9tw7e8lcpm","","9tw7e8lcpm","""2024-11-13T02:15:17.588Z""","null","+","null","","","","","","",""
"","","","","","image-keyboard-response","243","371482","0.0-17.0-0.0-1.4","9tw7e8lcpm","","9tw7e8lcpm","""2024-11-13T02:15:17.588Z""","1151","materials/imgs/D51.png","arrowright","","[""materials/imgs/D24.png"",""materials/imgs/D83.png""]","false","random","","",""
"","","","","","html-keyboard-response","244","371984","0.0-17.0-0.0-0.5","9tw7e8lcpm","","9tw7e8lcpm","""2024-11-13T02:15:17.588Z""","null","+","null","","","","","","",""
"","","","","","image-keyboard-response","245","372794","0.0-17.0-0.0-1.5","9tw7e8lcpm","","9tw7e8lcpm","""2024-11-13T02:15:17.588Z""","810","materials/imgs/D87.png","arrowright","","[""materials/imgs/D16.png"",""materials/imgs/D9.png""]","false","random","","",""
"","","","","","html-keyboard-response","246","373295","0.0-17.0-0.0-0.6","9tw7e8lcpm","","9tw7e8lcpm","""2024-11-13T02:15:17.588Z""","null","+","null","","","","","","",""
"","","","","","image-keyboard-response","247","373959","0.0-17.0-0.0-1.6","9tw7e8lcpm","","9tw7e8lcpm","""2024-11-13T02:15:17.588Z""","662","materials/imgs/D19.png","arrowright","","[""materials/imgs/D21.png"",""materials/imgs/D80.png""]","false","random","","",""
"","","","","","html-keyboard-response","248","374460","0.0-17.0-1.0-0.0","9tw7e8lcpm","","9tw7e8lcpm","""2024-11-13T02:15:17.588Z""","null","+","null","","","","","","",""
"","","","","","image-keyboard-response","249","375051","0.0-17.0-1.0-1.0","9tw7e8lcpm","","9tw7e8lcpm","""2024-11-13T02:15:17.588Z""","589","materials/imgs/D78.png","arrowright","","[""materials/imgs/D76.png"",""materials/imgs/D78.png""]","","check","materials/imgs/D78.png","1","true"
"","","","","","html-keyboard-response","250","375553","0.0-17.0-2.0-0.0","9tw7e8lcpm","","9tw7e8lcpm","""2024-11-13T02:15:17.588Z""","null","+","null","","","","","","",""
"","","","","","image-keyboard-response","251","376169","0.0-17.0-2.0-1.0","9tw7e8lcpm","","9tw7e8lcpm","""2024-11-13T02:15:17.588Z""","614","materials/imgs/D4.png","arrowleft","","[""materials/imgs/D52.png"",""materials/imgs/D83.png""]","false","validation","","",""
"","","","","","html-keyboard-response","252","376670","0.0-17.0-2.0-0.1","9tw7e8lcpm","","9tw7e8lcpm","""2024-11-13T02:15:17.588Z""","null","+","null","","","","","","",""
"","","","","","image-keyboard-response","253","377550","0.0-17.0-2.0-1.1","9tw7e8lcpm","","9tw7e8lcpm","""2024-11-13T02:15:17.588Z""","879","materials/imgs/D83.png","arrowleft","","[""materials/imgs/D24.png"",""materials/imgs/D8.png""]","false","validation","","",""
"","","","","","html-keyboard-response","254","378052","0.0-17.0-0.1-0.7","9tw7e8lcpm","","9tw7e8lcpm","""2024-11-13T02:15:17.588Z""","null","+","null","","","","","","",""
"","","","","","image-keyboard-response","255","379411","0.0-17.0-0.1-1.7","9tw7e8lcpm","","9tw7e8lcpm","""2024-11-13T02:15:17.588Z""","1359","materials/imgs/D87.png","arrowright","","[""materials/imgs/D74.png"",""materials/imgs/D106.png""]","false","random","","",""
"","","","","","html-keyboard-response","256","379915","0.0-17.0-0.1-0.8","9tw7e8lcpm","","9tw7e8lcpm","""2024-11-13T02:15:17.588Z""","null","+","null","","","","","","",""
"","","","","","image-keyboard-response","257","381056","0.0-17.0-0.1-1.8","9tw7e8lcpm","","9tw7e8lcpm","""2024-11-13T02:15:17.588Z""","1139","materials/imgs/D66.png","arrowright","","[""materials/imgs/D56.png"",""materials/imgs/D87.png""]","false","random","","",""
"","","","","","html-keyboard-response","258","381557","0.0-17.0-0.1-0.9","9tw7e8lcpm","","9tw7e8lcpm","""2024-11-13T02:15:17.588Z""","null","+","null","","","","","","",""
"","","","","","image-keyboard-response","259","383031","0.0-17.0-0.1-1.9","9tw7e8lcpm","","9tw7e8lcpm","""2024-11-13T02:15:17.588Z""","1472","materials/imgs/D1.png","arrowleft","","[""materials/imgs/D17.png"",""materials/imgs/D79.png""]","false","random","","",""
"","","","","","html-keyboard-response","260","383533","0.0-17.0-0.1-0.10","9tw7e8lcpm","","9tw7e8lcpm","""2024-11-13T02:15:17.588Z""","null","+","null","","","","","","",""
"","","","","","image-keyboard-response","261","384823","0.0-17.0-0.1-1.10","9tw7e8lcpm","","9tw7e8lcpm","""2024-11-13T02:15:17.588Z""","1288","materials/imgs/D36.png","arrowleft","","[""materials/imgs/D16.png"",""materials/imgs/D46.png""]","false","random","","",""
"","","","","","html-keyboard-response","262","385326","0.0-17.0-0.1-0.11","9tw7e8lcpm","","9tw7e8lcpm","""2024-11-13T02:15:17.588Z""","null","+","null","","","","","","",""
"","","","","","image-keyboard-response","263","386366","0.0-17.0-0.1-1.11","9tw7e8lcpm","","9tw7e8lcpm","""2024-11-13T02:15:17.588Z""","1038","materials/imgs/D47.png","arrowleft","","[""materials/imgs/D83.png"",""materials/imgs/D17.png""]","false","random","","",""
"","","","","","html-keyboard-response","264","386869","0.0-17.0-0.1-0.12","9tw7e8lcpm","","9tw7e8lcpm","""2024-11-13T02:15:17.588Z""","null","+","null","","","","","","",""
"","","","","","image-keyboard-response","265","387954","0.0-17.0-0.1-1.12","9tw7e8lcpm","","9tw7e8lcpm","""2024-11-13T02:15:17.588Z""","1082","materials/imgs/D14.png","arrowleft","","[""materials/imgs/D22.png"",""materials/imgs/D25.png""]","false","random","","",""
"","","","","","html-keyboard-response","266","388457","0.0-17.0-0.1-0.13","9tw7e8lcpm","","9tw7e8lcpm","""2024-11-13T02:15:17.588Z""","null","+","null","","","","","","",""
"","","","","","image-keyboard-response","267","389783","0.0-17.0-0.1-1.13","9tw7e8lcpm","","9tw7e8lcpm","""2024-11-13T02:15:17.588Z""","1324","materials/imgs/D94.png","arrowright","","[""materials/imgs/D17.png"",""materials/imgs/D29.png""]","false","random","","",""
"","","","","","html-keyboard-response","268","390287","0.0-17.0-1.1-0.1","9tw7e8lcpm","","9tw7e8lcpm","""2024-11-13T02:15:17.588Z""","null","+","null","","","","","","",""
"","","","","","image-keyboard-response","269","390989","0.0-17.0-1.1-1.1","9tw7e8lcpm","","9tw7e8lcpm","""2024-11-13T02:15:17.588Z""","700","materials/imgs/D8.png","arrowright","","[""materials/imgs/D18.png"",""materials/imgs/D8.png""]","","check","materials/imgs/D8.png","1","true"
"","","","","","html-keyboard-response","270","391490","0.0-17.0-2.1-0.2","9tw7e8lcpm","","9tw7e8lcpm","""2024-11-13T02:15:17.588Z""","null","+","null","","","","","","",""
"","","","","","image-keyboard-response","271","393522","0.0-17.0-2.1-1.2","9tw7e8lcpm","","9tw7e8lcpm","""2024-11-13T02:15:17.588Z""","2030","materials/imgs/D4.png","arrowleft","","[""materials/imgs/D52.png"",""materials/imgs/D83.png""]","false","validation","","",""
"","","","","","html-keyboard-response","272","394026","0.0-17.0-2.1-0.3","9tw7e8lcpm","","9tw7e8lcpm","""2024-11-13T02:15:17.588Z""","null","+","null","","","","","","",""
"","","","","","image-keyboard-response","273","395039","0.0-17.0-2.1-1.3","9tw7e8lcpm","","9tw7e8lcpm","""2024-11-13T02:15:17.588Z""","1011","materials/imgs/D64.png","arrowright","","[""materials/imgs/D6.png"",""materials/imgs/D81.png""]","false","validation","","",""
"","","","","","html-keyboard-response","274","395542","0.0-17.0-0.2-0.14","9tw7e8lcpm","","9tw7e8lcpm","""2024-11-13T02:15:17.588Z""","null","+","null","","","","","","",""
"","","","","","image-keyboard-response","275","397164","0.0-17.0-0.2-1.14","9tw7e8lcpm","","9tw7e8lcpm","""2024-11-13T02:15:17.588Z""","1620","materials/imgs/D3.png","arrowleft","","[""materials/imgs/D75.png"",""materials/imgs/D46.png""]","false","random","","",""
"","","","","","html-keyboard-response","276","397666","0.0-17.0-0.2-0.15","9tw7e8lcpm","","9tw7e8lcpm","""2024-11-13T02:15:17.588Z""","null","+","null","","","","","","",""
"","","","","","image-keyboard-response","277","398658","0.0-17.0-0.2-1.15","9tw7e8lcpm","","9tw7e8lcpm","""2024-11-13T02:15:17.588Z""","990","materials/imgs/D26.png","arrowright","","[""materials/imgs/D77.png"",""materials/imgs/D85.png""]","false","random","","",""
"","","","","","html-keyboard-response","278","399160","0.0-17.0-0.2-0.16","9tw7e8lcpm","","9tw7e8lcpm","""2024-11-13T02:15:17.588Z""","null","+","null","","","","","","",""
"","","","","","image-keyboard-response","279","400355","0.0-17.0-0.2-1.16","9tw7e8lcpm","","9tw7e8lcpm","""2024-11-13T02:15:17.588Z""","1192","materials/imgs/D32.png","arrowright","","[""materials/imgs/D106.png"",""materials/imgs/D103.png""]","false","random","","",""
"","","","","","html-keyboard-response","280","400858","0.0-17.0-0.2-0.17","9tw7e8lcpm","","9tw7e8lcpm","""2024-11-13T02:15:17.588Z""","null","+","null","","","","","","",""
"","","","","","image-keyboard-response","281","401665","0.0-17.0-0.2-1.17","9tw7e8lcpm","","9tw7e8lcpm","""2024-11-13T02:15:17.588Z""","804","materials/imgs/D17.png","arrowright","","[""materials/imgs/D102.png"",""materials/imgs/D104.png""]","false","random","","",""
"","","","","","html-keyboard-response","282","402166","0.0-17.0-0.2-0.18","9tw7e8lcpm","","9tw7e8lcpm","""2024-11-13T02:15:17.588Z""","null","+","null","","","","","","",""
"","","","","","image-keyboard-response","283","402792","0.0-17.0-0.2-1.18","9tw7e8lcpm","","9tw7e8lcpm","""2024-11-13T02:15:17.588Z""","624","materials/imgs/D56.png","arrowright","","[""materials/imgs/D66.png"",""materials/imgs/D65.png""]","false","random","","",""
"","","","","","html-keyboard-response","284","403293","0.0-17.0-0.2-0.19","9tw7e8lcpm","","9tw7e8lcpm","""2024-11-13T02:15:17.588Z""","null","+","null","","","","","","",""
"","","","","","image-keyboard-response","285","405115","0.0-17.0-0.2-1.19","9tw7e8lcpm","","9tw7e8lcpm","""2024-11-13T02:15:17.588Z""","1819","materials/imgs/D37.png","arrowleft","","[""materials/imgs/D26.png"",""materials/imgs/D17.png""]","false","random","","",""
"","","","","","html-keyboard-response","286","405616","0.0-17.0-0.2-0.20","9tw7e8lcpm","","9tw7e8lcpm","""2024-11-13T02:15:17.588Z""","null","+","null","","","","","","",""
"","","","","","image-keyboard-response","287","407035","0.0-17.0-0.2-1.20","9tw7e8lcpm","","9tw7e8lcpm","""2024-11-13T02:15:17.588Z""","1417","materials/imgs/D102.png","arrowleft","","[""materials/imgs/D18.png"",""materials/imgs/D111.png""]","false","random","","",""
"","","","","","html-keyboard-response","288","407539","0.0-17.0-1.2-0.2","9tw7e8lcpm","","9tw7e8lcpm","""2024-11-13T02:15:17.588Z""","null","+","null","","","","","","",""
"","","","","","image-keyboard-response","289","408197","0.0-17.0-1.2-1.2","9tw7e8lcpm","","9tw7e8lcpm","""2024-11-13T02:15:17.588Z""","656","materials/imgs/D46.png","arrowleft","","[""materials/imgs/D46.png"",""materials/imgs/D26.png""]","","check","materials/imgs/D46.png","0","true"
"","","","","","html-keyboard-response","290","408698","0.0-17.0-2.2-0.4","9tw7e8lcpm","","9tw7e8lcpm","""2024-11-13T02:15:17.588Z""","null","+","null","","","","","","",""
"","","","","","image-keyboard-response","291","409904","0.0-17.0-2.2-1.4","9tw7e8lcpm","","9tw7e8lcpm","""2024-11-13T02:15:17.588Z""","1205","materials/imgs/D18.png","arrowright","","[""materials/imgs/D32.png"",""materials/imgs/D57.png""]","false","validation","","",""
"","","","","","html-keyboard-response","292","410406","0.0-17.0-2.2-0.5","9tw7e8lcpm","","9tw7e8lcpm","""2024-11-13T02:15:17.588Z""","null","+","null","","","","","","",""
"","","","","","image-keyboard-response","293","411196","0.0-17.0-2.2-1.5","9tw7e8lcpm","","9tw7e8lcpm","""2024-11-13T02:15:17.588Z""","789","materials/imgs/D35.png","arrowleft","","[""materials/imgs/D83.png"",""materials/imgs/D24.png""]","false","validation","","",""
"","","","","","html-keyboard-response","294","411700","0.0-17.0-0.3-0.21","9tw7e8lcpm","","9tw7e8lcpm","""2024-11-13T02:15:17.588Z""","null","+","null","","","","","","",""
"","","","","","image-keyboard-response","295","412408","0.0-17.0-0.3-1.21","9tw7e8lcpm","","9tw7e8lcpm","""2024-11-13T02:15:17.588Z""","707","materials/imgs/D17.png","arrowright","","[""materials/imgs/D16.png"",""materials/imgs/D3.png""]","false","random","","",""
"","","","","","html-keyboard-response","296","412913","0.0-17.0-0.3-0.22","9tw7e8lcpm","","9tw7e8lcpm","""2024-11-13T02:15:17.588Z""","null","+","null","","","","","","",""
"","","","","","image-keyboard-response","297","413991","0.0-17.0-0.3-1.22","9tw7e8lcpm","","9tw7e8lcpm","""2024-11-13T02:15:17.588Z""","1076","materials/imgs/D66.png","arrowright","","[""materials/imgs/D78.png"",""materials/imgs/D9.png""]","false","random","","",""
"","","","","","html-keyboard-response","298","414493","0.0-17.0-0.3-0.23","9tw7e8lcpm","","9tw7e8lcpm","""2024-11-13T02:15:17.588Z""","null","+","null","","","","","","",""
"","","","","","image-keyboard-response","299","415589","0.0-17.0-0.3-1.23","9tw7e8lcpm","","9tw7e8lcpm","""2024-11-13T02:15:17.588Z""","1093","materials/imgs/D103.png","arrowleft","","[""materials/imgs/D35.png"",""materials/imgs/D94.png""]","false","random","","",""
"","","","","","html-keyboard-response","300","416090","0.0-17.0-0.3-0.24","9tw7e8lcpm","","9tw7e8lcpm","""2024-11-13T02:15:17.588Z""","null","+","null","","","","","","",""
"","","","","","image-keyboard-response","301","418500","0.0-17.0-0.3-1.24","9tw7e8lcpm","","9tw7e8lcpm","""2024-11-13T02:15:17.588Z""","2409","materials/imgs/D25.png","arrowright","","[""materials/imgs/D21.png"",""materials/imgs/D19.png""]","false","random","","",""
"","","","","","html-keyboard-response","302","419001","0.0-17.0-0.3-0.25","9tw7e8lcpm","","9tw7e8lcpm","""2024-11-13T02:15:17.588Z""","null","+","null","","","","","","",""
"","","","","","image-keyboard-response","303","419904","0.0-17.0-0.3-1.25","9tw7e8lcpm","","9tw7e8lcpm","""2024-11-13T02:15:17.588Z""","900","materials/imgs/D3.png","arrowleft","","[""materials/imgs/D17.png"",""materials/imgs/D25.png""]","false","random","","",""
"","","","","","html-keyboard-response","304","420405","0.0-17.0-0.3-0.26","9tw7e8lcpm","","9tw7e8lcpm","""2024-11-13T02:15:17.588Z""","null","+","null","","","","","","",""
"","","","","","image-keyboard-response","305","422056","0.0-17.0-0.3-1.26","9tw7e8lcpm","","9tw7e8lcpm","""2024-11-13T02:15:17.588Z""","1648","materials/imgs/D29.png","arrowleft","","[""materials/imgs/D57.png"",""materials/imgs/D105.png""]","false","random","","",""
"","","","","","html-keyboard-response","306","422559","0.0-17.0-0.3-0.27","9tw7e8lcpm","","9tw7e8lcpm","""2024-11-13T02:15:17.588Z""","null","+","null","","","","","","",""
"","","","","","image-keyboard-response","307","424345","0.0-17.0-0.3-1.27","9tw7e8lcpm","","9tw7e8lcpm","""2024-11-13T02:15:17.588Z""","1784","materials/imgs/D94.png","arrowleft","","[""materials/imgs/D34.png"",""materials/imgs/D76.png""]","false","random","","",""
"","","","","","html-keyboard-response","308","424847","0.0-17.0-1.3-0.3","9tw7e8lcpm","","9tw7e8lcpm","""2024-11-13T02:15:17.588Z""","null","+","null","","","","","","",""
"","","","","","image-keyboard-response","309","425443","0.0-17.0-1.3-1.3","9tw7e8lcpm","","9tw7e8lcpm","""2024-11-13T02:15:17.588Z""","594","materials/imgs/D64.png","arrowleft","","[""materials/imgs/D64.png"",""materials/imgs/D53.png""]","","check","materials/imgs/D64.png","0","true"
"","","","","","html-keyboard-response","310","425945","0.0-17.0-2.3-0.6","9tw7e8lcpm","","9tw7e8lcpm","""2024-11-13T02:15:17.588Z""","null","+","null","","","","","","",""
"","","","","","image-keyboard-response","311","427429","0.0-17.0-2.3-1.6","9tw7e8lcpm","","9tw7e8lcpm","""2024-11-13T02:15:17.588Z""","1482","materials/imgs/D75.png","arrowright","","[""materials/imgs/D96.png"",""materials/imgs/D4.png""]","false","validation","","",""
"","","","","","html-keyboard-response","312","427931","0.0-17.0-2.3-0.7","9tw7e8lcpm","","9tw7e8lcpm","""2024-11-13T02:15:17.588Z""","null","+","null","","","","","","",""
"","","","","","image-keyboard-response","313","430420","0.0-17.0-2.3-1.7","9tw7e8lcpm","","9tw7e8lcpm","""2024-11-13T02:15:17.588Z""","2487","materials/imgs/D25.png","arrowright","","[""materials/imgs/D103.png"",""materials/imgs/D64.png""]","false","validation","","",""
"","","","","","html-keyboard-response","314","430922","0.0-17.0-0.4-0.28","9tw7e8lcpm","","9tw7e8lcpm","""2024-11-13T02:15:17.588Z""","null","+","null","","","","","","",""
"","","","","","image-keyboard-response","315","432387","0.0-17.0-0.4-1.28","9tw7e8lcpm","","9tw7e8lcpm","""2024-11-13T02:15:17.588Z""","1463","materials/imgs/D79.png","arrowleft","","[""materials/imgs/D17.png"",""materials/imgs/D56.png""]","false","random","","",""
"","","","","","html-keyboard-response","316","432890","0.0-17.0-0.4-0.29","9tw7e8lcpm","","9tw7e8lcpm","""2024-11-13T02:15:17.588Z""","null","+","null","","","","","","",""
"","","","","","image-keyboard-response","317","433631","0.0-17.0-0.4-1.29","9tw7e8lcpm","","9tw7e8lcpm","""2024-11-13T02:15:17.588Z""","739","materials/imgs/D6.png","arrowright","","[""materials/imgs/D18.png"",""materials/imgs/D85.png""]","false","random","","",""
"","","","","","html-keyboard-response","318","434132","0.0-17.0-0.4-0.30","9tw7e8lcpm","","9tw7e8lcpm","""2024-11-13T02:15:17.588Z""","null","+","null","","","","","","",""
"","","","","","image-keyboard-response","319","435412","0.0-17.0-0.4-1.30","9tw7e8lcpm","","9tw7e8lcpm","""2024-11-13T02:15:17.588Z""","1279","materials/imgs/D104.png","arrowright","","[""materials/imgs/D16.png"",""materials/imgs/D92.png""]","false","random","","",""
"","","","","","html-keyboard-response","320","435913","0.0-17.0-0.4-0.31","9tw7e8lcpm","","9tw7e8lcpm","""2024-11-13T02:15:17.588Z""","null","+","null","","","","","","",""
"","","","","","image-keyboard-response","321","436685","0.0-17.0-0.4-1.31","9tw7e8lcpm","","9tw7e8lcpm","""2024-11-13T02:15:17.588Z""","769","materials/imgs/D65.png","arrowleft","","[""materials/imgs/D56.png"",""materials/imgs/D80.png""]","false","random","","",""
"","","","","","html-keyboard-response","322","437188","0.0-17.0-0.4-0.32","9tw7e8lcpm","","9tw7e8lcpm","""2024-11-13T02:15:17.588Z""","null","+","null","","","","","","",""
"","","","","","image-keyboard-response","323","438714","0.0-17.0-0.4-1.32","9tw7e8lcpm","","9tw7e8lcpm","""2024-11-13T02:15:17.588Z""","1524","materials/imgs/D29.png","arrowleft","","[""materials/imgs/D105.png"",""materials/imgs/D83.png""]","false","random","","",""
"","","","","","html-keyboard-response","324","439216","0.0-17.0-0.4-0.33","9tw7e8lcpm","","9tw7e8lcpm","""2024-11-13T02:15:17.588Z""","null","+","null","","","","","","",""
"","","","","","image-keyboard-response","325","440420","0.0-17.0-0.4-1.33","9tw7e8lcpm","","9tw7e8lcpm","""2024-11-13T02:15:17.588Z""","1202","materials/imgs/D1.png","arrowright","","[""materials/imgs/D85.png"",""materials/imgs/D96.png""]","false","random","","",""
"","","","","","html-keyboard-response","326","440924","0.0-17.0-0.4-0.34","9tw7e8lcpm","","9tw7e8lcpm","""2024-11-13T02:15:17.588Z""","null","+","null","","","","","","",""
"","","","","","image-keyboard-response","327","442308","0.0-17.0-0.4-1.34","9tw7e8lcpm","","9tw7e8lcpm","""2024-11-13T02:15:17.588Z""","1382","materials/imgs/D105.png","arrowleft","","[""materials/imgs/D77.png"",""materials/imgs/D87.png""]","false","random","","",""
"","","","","","html-keyboard-response","328","442809","0.0-17.0-1.4-0.4","9tw7e8lcpm","","9tw7e8lcpm","""2024-11-13T02:15:17.588Z""","null","+","null","","","","","","",""
"","","","","","image-keyboard-response","329","443504","0.0-17.0-1.4-1.4","9tw7e8lcpm","","9tw7e8lcpm","""2024-11-13T02:15:17.588Z""","693","materials/imgs/D26.png","arrowleft","","[""materials/imgs/D26.png"",""materials/imgs/D46.png""]","","check","materials/imgs/D26.png","0","true"
"","","","","","html-keyboard-response","330","444007","0.0-17.0-2.4-0.8","9tw7e8lcpm","","9tw7e8lcpm","""2024-11-13T02:15:17.588Z""","null","+","null","","","","","","",""
"","","","","","image-keyboard-response","331","445095","0.0-17.0-2.4-1.8","9tw7e8lcpm","","9tw7e8lcpm","""2024-11-13T02:15:17.588Z""","1086","materials/imgs/D8.png","arrowright","","[""materials/imgs/D101.png"",""materials/imgs/D52.png""]","false","validation","","",""
"","","","","","html-keyboard-response","332","445596","0.0-17.0-2.4-0.9","9tw7e8lcpm","","9tw7e8lcpm","""2024-11-13T02:15:17.588Z""","null","+","null","","","","","","",""
"","","","","","image-keyboard-response","333","446719","0.0-17.0-2.4-1.9","9tw7e8lcpm","","9tw7e8lcpm","""2024-11-13T02:15:17.588Z""","1121","materials/imgs/D95.png","arrowright","","[""materials/imgs/D36.png"",""materials/imgs/D4.png""]","false","validation","","",""
"","","","","","html-button-response","334","448944","0.0-18.0","9tw7e8lcpm","","9tw7e8lcpm","""2024-11-13T02:15:17.588Z""","2224","You have completed 75% of the trials. Please click 'Continue' when you are ready proceed.","0","","","","","","",""
"","","","","","html-keyboard-response","335","449446","0.0-19.0-0.0-0.0","9tw7e8lcpm","","9tw7e8lcpm","""2024-11-13T02:15:17.588Z""","null","+","null","","","","","","",""
"","","","","","image-keyboard-response","336","450125","0.0-19.0-0.0-1.0","9tw7e8lcpm","","9tw7e8lcpm","""2024-11-13T02:15:17.588Z""","677","materials/imgs/D32.png","arrowright","","[""materials/imgs/D20.png"",""materials/imgs/D92.png""]","false","random","","",""
"","","","","","html-keyboard-response","337","450627","0.0-19.0-0.0-0.1","9tw7e8lcpm","","9tw7e8lcpm","""2024-11-13T02:15:17.588Z""","null","+","null","","","","","","",""
"","","","","","image-keyboard-response","338","451726","0.0-19.0-0.0-1.1","9tw7e8lcpm","","9tw7e8lcpm","""2024-11-13T02:15:17.588Z""","1097","materials/imgs/D56.png","arrowleft","","[""materials/imgs/D102.png"",""materials/imgs/D92.png""]","false","random","","",""
"","","","","","html-keyboard-response","339","452227","0.0-19.0-0.0-0.2","9tw7e8lcpm","","9tw7e8lcpm","""2024-11-13T02:15:17.588Z""","null","+","null","","","","","","",""
"","","","","","image-keyboard-response","340","453793","0.0-19.0-0.0-1.2","9tw7e8lcpm","","9tw7e8lcpm","""2024-11-13T02:15:17.588Z""","1564","materials/imgs/D34.png","arrowright","","[""materials/imgs/D47.png"",""materials/imgs/D46.png""]","false","random","","",""
"","","","","","html-keyboard-response","341","454294","0.0-19.0-0.0-0.3","9tw7e8lcpm","","9tw7e8lcpm","""2024-11-13T02:15:17.588Z""","null","+","null","","","","","","",""
"","","","","","image-keyboard-response","342","455324","0.0-19.0-0.0-1.3","9tw7e8lcpm","","9tw7e8lcpm","""2024-11-13T02:15:17.588Z""","1028","materials/imgs/D9.png","arrowleft","","[""materials/imgs/D92.png"",""materials/imgs/D20.png""]","false","random","","",""
"","","","","","html-keyboard-response","343","455826","0.0-19.0-0.0-0.4","9tw7e8lcpm","","9tw7e8lcpm","""2024-11-13T02:15:17.588Z""","null","+","null","","","","","","",""
"","","","","","image-keyboard-response","344","456948","0.0-19.0-0.0-1.4","9tw7e8lcpm","","9tw7e8lcpm","""2024-11-13T02:15:17.588Z""","1120","materials/imgs/D103.png","arrowright","","[""materials/imgs/D68.png"",""materials/imgs/D52.png""]","false","random","","",""
"","","","","","html-keyboard-response","345","457451","0.0-19.0-0.0-0.5","9tw7e8lcpm","","9tw7e8lcpm","""2024-11-13T02:15:17.588Z""","null","+","null","","","","","","",""
"","","","","","image-keyboard-response","346","461117","0.0-19.0-0.0-1.5","9tw7e8lcpm","","9tw7e8lcpm","""2024-11-13T02:15:17.588Z""","3664","materials/imgs/D22.png","arrowleft","","[""materials/imgs/D21.png"",""materials/imgs/D24.png""]","false","random","","",""
"","","","","","html-keyboard-response","347","461619","0.0-19.0-0.0-0.6","9tw7e8lcpm","","9tw7e8lcpm","""2024-11-13T02:15:17.588Z""","null","+","null","","","","","","",""
"","","","","","image-keyboard-response","348","465071","0.0-19.0-0.0-1.6","9tw7e8lcpm","","9tw7e8lcpm","""2024-11-13T02:15:17.588Z""","3450","materials/imgs/D80.png","arrowright","","[""materials/imgs/D65.png"",""materials/imgs/D104.png""]","false","random","","",""
"","","","","","html-keyboard-response","349","465573","0.0-19.0-1.0-0.0","9tw7e8lcpm","","9tw7e8lcpm","""2024-11-13T02:15:17.588Z""","null","+","null","","","","","","",""
"","","","","","image-keyboard-response","350","466217","0.0-19.0-1.0-1.0","9tw7e8lcpm","","9tw7e8lcpm","""2024-11-13T02:15:17.588Z""","642","materials/imgs/D64.png","arrowleft","","[""materials/imgs/D64.png"",""materials/imgs/D53.png""]","","check","materials/imgs/D64.png","0","true"
"","","","","","html-keyboard-response","351","466721","0.0-19.0-2.0-0.0","9tw7e8lcpm","","9tw7e8lcpm","""2024-11-13T02:15:17.588Z""","null","+","null","","","","","","",""
"","","","","","image-keyboard-response","352","468590","0.0-19.0-2.0-1.0","9tw7e8lcpm","","9tw7e8lcpm","""2024-11-13T02:15:17.588Z""","1868","materials/imgs/D25.png","arrowright","","[""materials/imgs/D103.png"",""materials/imgs/D64.png""]","false","validation","","",""
"","","","","","html-keyboard-response","353","469092","0.0-19.0-2.0-0.1","9tw7e8lcpm","","9tw7e8lcpm","""2024-11-13T02:15:17.588Z""","null","+","null","","","","","","",""
"","","","","","image-keyboard-response","354","470379","0.0-19.0-2.0-1.1","9tw7e8lcpm","","9tw7e8lcpm","""2024-11-13T02:15:17.588Z""","1285","materials/imgs/D111.png","arrowleft","","[""materials/imgs/D82.png"",""materials/imgs/D95.png""]","false","validation","","",""
"","","","","","html-keyboard-response","355","470880","0.0-19.0-0.1-0.7","9tw7e8lcpm","","9tw7e8lcpm","""2024-11-13T02:15:17.588Z""","null","+","null","","","","","","",""
"","","","","","image-keyboard-response","356","471482","0.0-19.0-0.1-1.7","9tw7e8lcpm","","9tw7e8lcpm","""2024-11-13T02:15:17.588Z""","600","materials/imgs/D94.png","arrowleft","","[""materials/imgs/D26.png"",""materials/imgs/D36.png""]","false","random","","",""
"","","","","","html-keyboard-response","357","471986","0.0-19.0-0.1-0.8","9tw7e8lcpm","","9tw7e8lcpm","""2024-11-13T02:15:17.588Z""","null","+","null","","","","","","",""
"","","","","","image-keyboard-response","358","472794","0.0-19.0-0.1-1.8","9tw7e8lcpm","","9tw7e8lcpm","""2024-11-13T02:15:17.588Z""","806","materials/imgs/D57.png","arrowleft","","[""materials/imgs/D32.png"",""materials/imgs/D25.png""]","false","random","","",""
"","","","","","html-keyboard-response","359","473296","0.0-19.0-0.1-0.9","9tw7e8lcpm","","9tw7e8lcpm","""2024-11-13T02:15:17.588Z""","null","+","null","","","","","","",""
"","","","","","image-keyboard-response","360","474582","0.0-19.0-0.1-1.9","9tw7e8lcpm","","9tw7e8lcpm","""2024-11-13T02:15:17.588Z""","1284","materials/imgs/D48.png","arrowright","","[""materials/imgs/D85.png"",""materials/imgs/D22.png""]","false","random","","",""
"","","","","","html-keyboard-response","361","475083","0.0-19.0-0.1-0.10","9tw7e8lcpm","","9tw7e8lcpm","""2024-11-13T02:15:17.588Z""","null","+","null","","","","","","",""
"","","","","","image-keyboard-response","362","476531","0.0-19.0-0.1-1.10","9tw7e8lcpm","","9tw7e8lcpm","""2024-11-13T02:15:17.588Z""","1447","materials/imgs/D87.png","arrowright","","[""materials/imgs/D56.png"",""materials/imgs/D103.png""]","false","random","","",""
"","","","","","html-keyboard-response","363","477035","0.0-19.0-0.1-0.11","9tw7e8lcpm","","9tw7e8lcpm","""2024-11-13T02:15:17.588Z""","null","+","null","","","","","","",""
"","","","","","image-keyboard-response","364","479420","0.0-19.0-0.1-1.11","9tw7e8lcpm","","9tw7e8lcpm","""2024-11-13T02:15:17.588Z""","2384","materials/imgs/D68.png","arrowleft","","[""materials/imgs/D53.png"",""materials/imgs/D4.png""]","false","random","","",""
"","","","","","html-keyboard-response","365","479923","0.0-19.0-0.1-0.12","9tw7e8lcpm","","9tw7e8lcpm","""2024-11-13T02:15:17.588Z""","null","+","null","","","","","","",""
"","","","","","image-keyboard-response","366","481127","0.0-19.0-0.1-1.12","9tw7e8lcpm","","9tw7e8lcpm","""2024-11-13T02:15:17.588Z""","1202","materials/imgs/D76.png","arrowleft","","[""materials/imgs/D14.png"",""materials/imgs/D74.png""]","false","random","","",""
"","","","","","html-keyboard-response","367","481631","0.0-19.0-0.1-0.13","9tw7e8lcpm","","9tw7e8lcpm","""2024-11-13T02:15:17.588Z""","null","+","null","","","","","","",""
"","","","","","image-keyboard-response","368","483303","0.0-19.0-0.1-1.13","9tw7e8lcpm","","9tw7e8lcpm","""2024-11-13T02:15:17.588Z""","1670","materials/imgs/D64.png","arrowleft","","[""materials/imgs/D47.png"",""materials/imgs/D104.png""]","false","random","","",""
"","","","","","html-keyboard-response","369","483804","0.0-19.0-1.1-0.1","9tw7e8lcpm","","9tw7e8lcpm","""2024-11-13T02:15:17.588Z""","null","+","null","","","","","","",""
"","","","","","image-keyboard-response","370","484416","0.0-19.0-1.1-1.1","9tw7e8lcpm","","9tw7e8lcpm","""2024-11-13T02:15:17.588Z""","609","materials/imgs/D76.png","arrowleft","","[""materials/imgs/D76.png"",""materials/imgs/D78.png""]","","check","materials/imgs/D76.png","0","true"
"","","","","","html-keyboard-response","371","484920","0.0-19.0-2.1-0.2","9tw7e8lcpm","","9tw7e8lcpm","""2024-11-13T02:15:17.588Z""","null","+","null","","","","","","",""
"","","","","","image-keyboard-response","372","486360","0.0-19.0-2.1-1.2","9tw7e8lcpm","","9tw7e8lcpm","""2024-11-13T02:15:17.588Z""","1438","materials/imgs/D36.png","arrowleft","","[""materials/imgs/D47.png"",""materials/imgs/D49.png""]","false","validation","","",""
"","","","","","html-keyboard-response","373","486861","0.0-19.0-2.1-0.3","9tw7e8lcpm","","9tw7e8lcpm","""2024-11-13T02:15:17.588Z""","null","+","null","","","","","","",""
"","","","","","image-keyboard-response","374","488569","0.0-19.0-2.1-1.3","9tw7e8lcpm","","9tw7e8lcpm","""2024-11-13T02:15:17.588Z""","1706","materials/imgs/D49.png","arrowright","","[""materials/imgs/D8.png"",""materials/imgs/D101.png""]","false","validation","","",""
"","","","","","html-keyboard-response","375","489073","0.0-19.0-0.2-0.14","9tw7e8lcpm","","9tw7e8lcpm","""2024-11-13T02:15:17.588Z""","null","+","null","","","","","","",""
"","","","","","image-keyboard-response","376","490012","0.0-19.0-0.2-1.14","9tw7e8lcpm","","9tw7e8lcpm","""2024-11-13T02:15:17.588Z""","938","materials/imgs/D20.png","arrowleft","","[""materials/imgs/D56.png"",""materials/imgs/D36.png""]","false","random","","",""
"","","","","","html-keyboard-response","377","490514","0.0-19.0-0.2-0.15","9tw7e8lcpm","","9tw7e8lcpm","""2024-11-13T02:15:17.588Z""","null","+","null","","","","","","",""
"","","","","","image-keyboard-response","378","492455","0.0-19.0-0.2-1.15","9tw7e8lcpm","","9tw7e8lcpm","""2024-11-13T02:15:17.588Z""","1940","materials/imgs/D104.png","arrowleft","","[""materials/imgs/D18.png"",""materials/imgs/D37.png""]","false","random","","",""
"","","","","","html-keyboard-response","379","492959","0.0-19.0-0.2-0.16","9tw7e8lcpm","","9tw7e8lcpm","""2024-11-13T02:15:17.588Z""","null","+","null","","","","","","",""
"","","","","","image-keyboard-response","380","495311","0.0-19.0-0.2-1.16","9tw7e8lcpm","","9tw7e8lcpm","""2024-11-13T02:15:17.588Z""","2350","materials/imgs/D68.png","arrowleft","","[""materials/imgs/D83.png"",""materials/imgs/D47.png""]","false","random","","",""
"","","","","","html-keyboard-response","381","495813","0.0-19.0-0.2-0.17","9tw7e8lcpm","","9tw7e8lcpm","""2024-11-13T02:15:17.588Z""","null","+","null","","","","","","",""
"","","","","","image-keyboard-response","382","496468","0.0-19.0-0.2-1.17","9tw7e8lcpm","","9tw7e8lcpm","""2024-11-13T02:15:17.588Z""","653","materials/imgs/D55.png","arrowright","","[""materials/imgs/D96.png"",""materials/imgs/D22.png""]","false","random","","",""
"","","","","","html-keyboard-response","383","496969","0.0-19.0-0.2-0.18","9tw7e8lcpm","","9tw7e8lcpm","""2024-11-13T02:15:17.588Z""","null","+","null","","","","","","",""
"","","","","","image-keyboard-response","384","498708","0.0-19.0-0.2-1.18","9tw7e8lcpm","","9tw7e8lcpm","""2024-11-13T02:15:17.588Z""","1737","materials/imgs/D48.png","arrowright","","[""materials/imgs/D51.png"",""materials/imgs/D22.png""]","false","random","","",""
"","","","","","html-keyboard-response","385","499209","0.0-19.0-0.2-0.19","9tw7e8lcpm","","9tw7e8lcpm","""2024-11-13T02:15:17.588Z""","null","+","null","","","","","","",""
"","","","","","image-keyboard-response","386","500596","0.0-19.0-0.2-1.19","9tw7e8lcpm","","9tw7e8lcpm","""2024-11-13T02:15:17.588Z""","1386","materials/imgs/D19.png","arrowleft","","[""materials/imgs/D85.png"",""materials/imgs/D25.png""]","false","random","","",""
"","","","","","html-keyboard-response","387","501098","0.0-19.0-0.2-0.20","9tw7e8lcpm","","9tw7e8lcpm","""2024-11-13T02:15:17.588Z""","null","+","null","","","","","","",""
"","","","","","image-keyboard-response","388","502655","0.0-19.0-0.2-1.20","9tw7e8lcpm","","9tw7e8lcpm","""2024-11-13T02:15:17.588Z""","1555","materials/imgs/D16.png","arrowleft","","[""materials/imgs/D34.png"",""materials/imgs/D101.png""]","false","random","","",""
"","","","","","html-keyboard-response","389","503156","0.0-19.0-1.2-0.2","9tw7e8lcpm","","9tw7e8lcpm","""2024-11-13T02:15:17.588Z""","null","+","null","","","","","","",""
"","","","","","image-keyboard-response","390","503796","0.0-19.0-1.2-1.2","9tw7e8lcpm","","9tw7e8lcpm","""2024-11-13T02:15:17.588Z""","638","materials/imgs/D76.png","arrowleft","","[""materials/imgs/D76.png"",""materials/imgs/D78.png""]","","check","materials/imgs/D76.png","0","true"
"","","","","","html-keyboard-response","391","504299","0.0-19.0-2.2-0.4","9tw7e8lcpm","","9tw7e8lcpm","""2024-11-13T02:15:17.588Z""","null","+","null","","","","","","",""
"","","","","","image-keyboard-response","392","505847","0.0-19.0-2.2-1.4","9tw7e8lcpm","","9tw7e8lcpm","""2024-11-13T02:15:17.588Z""","1546","materials/imgs/D66.png","arrowright","","[""materials/imgs/D85.png"",""materials/imgs/D25.png""]","false","validation","","",""
"","","","","","html-keyboard-response","393","506348","0.0-19.0-2.2-0.5","9tw7e8lcpm","","9tw7e8lcpm","""2024-11-13T02:15:17.588Z""","null","+","null","","","","","","",""
"","","","","","image-keyboard-response","394","507025","0.0-19.0-2.2-1.5","9tw7e8lcpm","","9tw7e8lcpm","""2024-11-13T02:15:17.588Z""","675","materials/imgs/D32.png","arrowleft","","[""materials/imgs/D68.png"",""materials/imgs/D96.png""]","false","validation","","",""
"","","","","","html-keyboard-response","395","507526","0.0-19.0-0.3-0.21","9tw7e8lcpm","","9tw7e8lcpm","""2024-11-13T02:15:17.588Z""","null","+","null","","","","","","",""
"","","","","","image-keyboard-response","396","509157","0.0-19.0-0.3-1.21","9tw7e8lcpm","","9tw7e8lcpm","""2024-11-13T02:15:17.588Z""","1629","materials/imgs/D52.png","arrowright","","[""materials/imgs/D35.png"",""materials/imgs/D14.png""]","false","random","","",""
"","","","","","html-keyboard-response","397","509660","0.0-19.0-0.3-0.22","9tw7e8lcpm","","9tw7e8lcpm","""2024-11-13T02:15:17.588Z""","null","+","null","","","","","","",""
"","","","","","image-keyboard-response","398","511059","0.0-19.0-0.3-1.22","9tw7e8lcpm","","9tw7e8lcpm","""2024-11-13T02:15:17.588Z""","1396","materials/imgs/D94.png","arrowleft","","[""materials/imgs/D18.png"",""materials/imgs/D106.png""]","false","random","","",""
"","","","","","html-keyboard-response","399","511562","0.0-19.0-0.3-0.23","9tw7e8lcpm","","9tw7e8lcpm","""2024-11-13T02:15:17.588Z""","null","+","null","","","","","","",""
"","","","","","image-keyboard-response","400","512845","0.0-19.0-0.3-1.23","9tw7e8lcpm","","9tw7e8lcpm","""2024-11-13T02:15:17.588Z""","1281","materials/imgs/D16.png","arrowright","","[""materials/imgs/D48.png"",""materials/imgs/D17.png""]","false","random","","",""
"","","","","","html-keyboard-response","401","513347","0.0-19.0-0.3-0.24","9tw7e8lcpm","","9tw7e8lcpm","""2024-11-13T02:15:17.588Z""","null","+","null","","","","","","",""
"","","","","","image-keyboard-response","402","516363","0.0-19.0-0.3-1.24","9tw7e8lcpm","","9tw7e8lcpm","""2024-11-13T02:15:17.588Z""","3014","materials/imgs/D78.png","arrowleft","","[""materials/imgs/D53.png"",""materials/imgs/D101.png""]","false","random","","",""
"","","","","","html-keyboard-response","403","516867","0.0-19.0-0.3-0.25","9tw7e8lcpm","","9tw7e8lcpm","""2024-11-13T02:15:17.588Z""","null","+","null","","","","","","",""
"","","","","","image-keyboard-response","404","519587","0.0-19.0-0.3-1.25","9tw7e8lcpm","","9tw7e8lcpm","""2024-11-13T02:15:17.588Z""","2718","materials/imgs/D29.png","arrowright","","[""materials/imgs/D34.png"",""materials/imgs/D6.png""]","false","random","","",""
"","","","","","html-keyboard-response","405","520089","0.0-19.0-0.3-0.26","9tw7e8lcpm","","9tw7e8lcpm","""2024-11-13T02:15:17.588Z""","null","+","null","","","","","","",""
"","","","","","image-keyboard-response","406","522886","0.0-19.0-0.3-1.26","9tw7e8lcpm","","9tw7e8lcpm","""2024-11-13T02:15:17.588Z""","2795","materials/imgs/D34.png","arrowleft","","[""materials/imgs/D48.png"",""materials/imgs/D92.png""]","false","random","","",""
"","","","","","html-keyboard-response","407","523386","0.0-19.0-0.3-0.27","9tw7e8lcpm","","9tw7e8lcpm","""2024-11-13T02:15:17.588Z""","null","+","null","","","","","","",""
"","","","","","image-keyboard-response","408","525055","0.0-19.0-0.3-1.27","9tw7e8lcpm","","9tw7e8lcpm","""2024-11-13T02:15:17.588Z""","1666","materials/imgs/D36.png","arrowleft","","[""materials/imgs/D84.png"",""materials/imgs/D47.png""]","false","random","","",""
"","","","","","html-keyboard-response","409","525557","0.0-19.0-1.3-0.3","9tw7e8lcpm","","9tw7e8lcpm","""2024-11-13T02:15:17.588Z""","null","+","null","","","","","","",""
"","","","","","image-keyboard-response","410","526201","0.0-19.0-1.3-1.3","9tw7e8lcpm","","9tw7e8lcpm","""2024-11-13T02:15:17.588Z""","643","materials/imgs/D101.png","arrowright","","[""materials/imgs/D106.png"",""materials/imgs/D101.png""]","","check","materials/imgs/D101.png","1","true"
"","","","","","html-keyboard-response","411","526704","0.0-19.0-2.3-0.6","9tw7e8lcpm","","9tw7e8lcpm","""2024-11-13T02:15:17.588Z""","null","+","null","","","","","","",""
"","","","","","image-keyboard-response","412","528468","0.0-19.0-2.3-1.6","9tw7e8lcpm","","9tw7e8lcpm","""2024-11-13T02:15:17.588Z""","1762","materials/imgs/D8.png","arrowleft","","[""materials/imgs/D101.png"",""materials/imgs/D52.png""]","false","validation","","",""
"","","","","","html-keyboard-response","413","528971","0.0-19.0-2.3-0.7","9tw7e8lcpm","","9tw7e8lcpm","""2024-11-13T02:15:17.588Z""","null","+","null","","","","","","",""
"","","","","","image-keyboard-response","414","530272","0.0-19.0-2.3-1.7","9tw7e8lcpm","","9tw7e8lcpm","""2024-11-13T02:15:17.588Z""","1299","materials/imgs/D3.png","arrowright","","[""materials/imgs/D79.png"",""materials/imgs/D48.png""]","false","validation","","",""
"","","","","","html-keyboard-response","415","530773","0.0-19.0-0.4-0.28","9tw7e8lcpm","","9tw7e8lcpm","""2024-11-13T02:15:17.588Z""","null","+","null","","","","","","",""
"","","","","","image-keyboard-response","416","531746","0.0-19.0-0.4-1.28","9tw7e8lcpm","","9tw7e8lcpm","""2024-11-13T02:15:17.588Z""","971","materials/imgs/D29.png","arrowright","","[""materials/imgs/D102.png"",""materials/imgs/D16.png""]","false","random","","",""
"","","","","","html-keyboard-response","417","532250","0.0-19.0-0.4-0.29","9tw7e8lcpm","","9tw7e8lcpm","""2024-11-13T02:15:17.588Z""","null","+","null","","","","","","",""
"","","","","","image-keyboard-response","418","533195","0.0-19.0-0.4-1.29","9tw7e8lcpm","","9tw7e8lcpm","""2024-11-13T02:15:17.588Z""","943","materials/imgs/D29.png","arrowleft","","[""materials/imgs/D78.png"",""materials/imgs/D1.png""]","false","random","","",""
"","","","","","html-keyboard-response","419","533698","0.0-19.0-0.4-0.30","9tw7e8lcpm","","9tw7e8lcpm","""2024-11-13T02:15:17.588Z""","null","+","null","","","","","","",""
"","","","","","image-keyboard-response","420","534472","0.0-19.0-0.4-1.30","9tw7e8lcpm","","9tw7e8lcpm","""2024-11-13T02:15:17.588Z""","772","materials/imgs/D9.png","arrowleft","","[""materials/imgs/D29.png"",""materials/imgs/D111.png""]","false","random","","",""
"","","","","","html-keyboard-response","421","534973","0.0-19.0-0.4-0.31","9tw7e8lcpm","","9tw7e8lcpm","""2024-11-13T02:15:17.588Z""","null","+","null","","","","","","",""
"","","","","","image-keyboard-response","422","536251","0.0-19.0-0.4-1.31","9tw7e8lcpm","","9tw7e8lcpm","""2024-11-13T02:15:17.588Z""","1276","materials/imgs/D51.png","arrowleft","","[""materials/imgs/D78.png"",""materials/imgs/D74.png""]","false","random","","",""
"","","","","","html-keyboard-response","423","536754","0.0-19.0-0.4-0.32","9tw7e8lcpm","","9tw7e8lcpm","""2024-11-13T02:15:17.588Z""","null","+","null","","","","","","",""
"","","","","","image-keyboard-response","424","537856","0.0-19.0-0.4-1.32","9tw7e8lcpm","","9tw7e8lcpm","""2024-11-13T02:15:17.588Z""","1100","materials/imgs/D82.png","arrowright","","[""materials/imgs/D46.png"",""materials/imgs/D24.png""]","false","random","","",""
"","","","","","html-keyboard-response","425","538358","0.0-19.0-0.4-0.33","9tw7e8lcpm","","9tw7e8lcpm","""2024-11-13T02:15:17.588Z""","null","+","null","","","","","","",""
"","","","","","image-keyboard-response","426","539841","0.0-19.0-0.4-1.33","9tw7e8lcpm","","9tw7e8lcpm","""2024-11-13T02:15:17.588Z""","1482","materials/imgs/D105.png","arrowright","","[""materials/imgs/D75.png"",""materials/imgs/D96.png""]","false","random","","",""
"","","","","","html-keyboard-response","427","540345","0.0-19.0-0.4-0.34","9tw7e8lcpm","","9tw7e8lcpm","""2024-11-13T02:15:17.588Z""","null","+","null","","","","","","",""
"","","","","","image-keyboard-response","428","541043","0.0-19.0-0.4-1.34","9tw7e8lcpm","","9tw7e8lcpm","""2024-11-13T02:15:17.588Z""","696","materials/imgs/D21.png","arrowleft","","[""materials/imgs/D16.png"",""materials/imgs/D56.png""]","false","random","","",""
"","","","","","html-keyboard-response","429","541547","0.0-19.0-1.4-0.4","9tw7e8lcpm","","9tw7e8lcpm","""2024-11-13T02:15:17.588Z""","null","+","null","","","","","","",""
"","","","","","image-keyboard-response","430","542078","0.0-19.0-1.4-1.4","9tw7e8lcpm","","9tw7e8lcpm","""2024-11-13T02:15:17.588Z""","530","materials/imgs/D101.png","arrowright","","[""materials/imgs/D106.png"",""materials/imgs/D101.png""]","","check","materials/imgs/D101.png","1","true"
"","","","","","html-keyboard-response","431","542580","0.0-19.0-2.4-0.8","9tw7e8lcpm","","9tw7e8lcpm","""2024-11-13T02:15:17.588Z""","null","+","null","","","","","","",""
"","","","","","image-keyboard-response","432","543662","0.0-19.0-2.4-1.8","9tw7e8lcpm","","9tw7e8lcpm","""2024-11-13T02:15:17.588Z""","1080","materials/imgs/D92.png","arrowright","","[""materials/imgs/D56.png"",""materials/imgs/D77.png""]","false","validation","","",""
"","","","","","html-keyboard-response","433","544164","0.0-19.0-2.4-0.9","9tw7e8lcpm","","9tw7e8lcpm","""2024-11-13T02:15:17.588Z""","null","+","null","","","","","","",""
"","","","","","image-keyboard-response","434","545246","0.0-19.0-2.4-1.9","9tw7e8lcpm","","9tw7e8lcpm","""2024-11-13T02:15:17.588Z""","1071","materials/imgs/D24.png","arrowleft","","[""materials/imgs/D36.png"",""materials/imgs/D8.png""]","false","validation","","",""
