"success","timeout","failed_images","failed_audio","failed_video","trial_type","trial_index","time_elapsed","internal_node_id","subject_id","sona_id","subjectID","dateInfo","rt","stimulus","response","question_order","choices","speedy","sampleAlg","selected_image","selected_index","correct"
"true","false","[]","[]","[]","preload","0","566","0.0-0.0","9zqysdv6o0","","9zqysdv6o0","""2024-11-12T18:43:02.849Z""","","","","","","","","","",""
"true","","","","","fullscreen","1","4156","0.0-1.0","9zqysdv6o0","","9zqysdv6o0","""2024-11-12T18:43:02.849Z""","","","","","","","","","",""
"","","","","","html-keyboard-response","2","4168","0.0-2.0","9zqysdv6o0","","9zqysdv6o0","""2024-11-12T18:43:02.849Z""","null","","null","","","","","","",""
"","","","","","html-button-response","3","13243","0.0-3.0","9zqysdv6o0","","9zqysdv6o0","""2024-11-12T18:43:02.849Z""","9074","<div style='text-align:center; font-size:20px; line-height:25px; width: 1200px;'>
                Welcome to our experiment! <br>
                <br>At the bottom of this screen, you will see a button that says 'Begin Experiment.
                <br>Please only click that button when you are ready to complete the 25 minute experiment in one sitting. <br>
                <br> Once you click that button, it will not be possible to restart the experiment. <br><br>","0","","","","","","",""
"true","","","","","fullscreen","4","16273","0.0-4.0","9zqysdv6o0","","9zqysdv6o0","""2024-11-12T18:43:02.849Z""","","","","","","","","","",""
"","","","","","survey-multi-select","5","84887","0.0-5.0","9zqysdv6o0","","9zqysdv6o0","""2024-11-12T18:43:02.849Z""","68613","","{""Consent"":[""<strong>I consent</strong>""]}","[0]","","","","","",""
"","","","","","html-button-response","6","87085","0.0-6.0","9zqysdv6o0","","9zqysdv6o0","""2024-11-12T18:43:02.849Z""","2196","Welcome! <p> This experiment involves two parts: demographic information, followed by the experimental task.<p> It will take about 25 minutes to complete both parts.","0","","","","","","",""
"","","","","","survey-text","7","98423","0.0-7.0","9zqysdv6o0","","9zqysdv6o0","""2024-11-12T18:43:02.849Z""","11336","","{""Age"":""18"",""Gender"":""Male"",""Race/ethnicity"":""White""}","","","","","","",""
"","","","","","html-button-response","8","127937","0.0-8.0","9zqysdv6o0","","9zqysdv6o0","""2024-11-12T18:43:02.849Z""","29512","<div style='text-align: center;'>
      <p>In each trial of this task, you will see three texture images: one target item on top, and two choices beneath the target item.</p>
      <p><strong>Please select the item that is most like the target item.</strong></p>
      <p>To select the option on the <strong>LEFT</strong>, press the <strong>LEFT ARROW</strong> key. 
      To select the option on the <strong>RIGHT</strong>, press the <strong>RIGHT ARROW</strong> key.</p>
                  <!-- Target Image at the Top -->
      <div style='margin: 20px;'>
        <img src='materials/imgs/instruction_images/InstructionImg1D78.png' alt='Target Image' style='width:200px; height:auto;' />
        <p><em>Target Image</em></p>
      </div>

      <!-- Two Choice Images Below -->
      <div style='display: flex; justify-content: center;'>
        <div style='margin-right: 50px;'>
          <img src='materials/imgs/instruction_images/InstructionImg2D34.png' alt='Choice Image 1' style='width:150px; height:auto;' />
          <p><em><strong>LEFT ARROW</strong></em></p>
        </div>
        <div style='margin-left: 50px;'>
          <img src='materials/imgs/instruction_images/InstructionImg3D80.png' alt='Choice Image 2' style='width:150px; height:auto;' />
          <p><em><strong>RIGHT ARROW</strong></em></p>
        </div>
      </div>
    </div>

      <p>When you are ready to proceed, please click 'Continue' to begin practice.</p>","0","","","","","","",""
"","","","","","html-keyboard-response","9","130466","0.0-9.0","9zqysdv6o0","","9zqysdv6o0","""2024-11-12T18:43:02.849Z""","null","+","null","","","","","","",""
"","","","","","html-keyboard-response","10","130979","0.0-10.0-0.0-0.0","9zqysdv6o0","","9zqysdv6o0","""2024-11-12T18:43:02.849Z""","null","+","null","","","","","","",""
"","","","","","image-keyboard-response","11","134379","0.0-10.0-0.0-1.0","9zqysdv6o0","","9zqysdv6o0","""2024-11-12T18:43:02.849Z""","3393","materials/imgs/D32.png","arrowright","","[""materials/imgs/D17.png"",""materials/imgs/D35.png""]","false","random","","",""
"","","","","","html-keyboard-response","12","134894","0.0-10.0-0.0-0.1","9zqysdv6o0","","9zqysdv6o0","""2024-11-12T18:43:02.849Z""","null","+","null","","","","","","",""
"","","","","","image-keyboard-response","13","137583","0.0-10.0-0.0-1.1","9zqysdv6o0","","9zqysdv6o0","""2024-11-12T18:43:02.849Z""","2688","materials/imgs/D49.png","arrowright","","[""materials/imgs/D80.png"",""materials/imgs/D85.png""]","false","random","","",""
"","","","","","html-keyboard-response","14","138084","0.0-10.0-0.0-0.2","9zqysdv6o0","","9zqysdv6o0","""2024-11-12T18:43:02.849Z""","null","+","null","","","","","","",""
"","","","","","image-keyboard-response","15","142375","0.0-10.0-0.0-1.2","9zqysdv6o0","","9zqysdv6o0","""2024-11-12T18:43:02.849Z""","4289","materials/imgs/D34.png","arrowleft","","[""materials/imgs/D87.png"",""materials/imgs/D52.png""]","false","random","","",""
"","","","","","html-keyboard-response","16","142888","0.0-10.0-0.0-0.3","9zqysdv6o0","","9zqysdv6o0","""2024-11-12T18:43:02.849Z""","null","+","null","","","","","","",""
"","","","","","image-keyboard-response","17","147419","0.0-10.0-0.0-1.3","9zqysdv6o0","","9zqysdv6o0","""2024-11-12T18:43:02.849Z""","4530","materials/imgs/D94.png","arrowleft","","[""materials/imgs/D21.png"",""materials/imgs/D81.png""]","false","random","","",""
"","","","","","html-keyboard-response","18","147932","0.0-10.0-0.0-0.4","9zqysdv6o0","","9zqysdv6o0","""2024-11-12T18:43:02.849Z""","null","+","null","","","","","","",""
"","","","","","image-keyboard-response","19","151158","0.0-10.0-0.0-1.4","9zqysdv6o0","","9zqysdv6o0","""2024-11-12T18:43:02.849Z""","3224","materials/imgs/D74.png","arrowleft","","[""materials/imgs/D35.png"",""materials/imgs/D17.png""]","false","random","","",""
"","","","","","html-keyboard-response","20","151667","0.0-10.0-0.0-0.5","9zqysdv6o0","","9zqysdv6o0","""2024-11-12T18:43:02.849Z""","null","+","null","","","","","","",""
"","","","","","image-keyboard-response","21","155933","0.0-10.0-0.0-1.5","9zqysdv6o0","","9zqysdv6o0","""2024-11-12T18:43:02.849Z""","4266","materials/imgs/D77.png","arrowright","","[""materials/imgs/D52.png"",""materials/imgs/D111.png""]","false","random","","",""
"","","","","","html-keyboard-response","22","156435","0.0-10.0-0.0-0.6","9zqysdv6o0","","9zqysdv6o0","""2024-11-12T18:43:02.849Z""","null","+","null","","","","","","",""
"","","","","","image-keyboard-response","23","158620","0.0-10.0-0.0-1.6","9zqysdv6o0","","9zqysdv6o0","""2024-11-12T18:43:02.849Z""","2183","materials/imgs/D65.png","arrowleft","","[""materials/imgs/D56.png"",""materials/imgs/D87.png""]","false","random","","",""
"","","","","","html-keyboard-response","24","159126","0.0-10.0-0.0-0.7","9zqysdv6o0","","9zqysdv6o0","""2024-11-12T18:43:02.849Z""","null","+","null","","","","","","",""
"","","","","","image-keyboard-response","25","162622","0.0-10.0-0.0-1.7","9zqysdv6o0","","9zqysdv6o0","""2024-11-12T18:43:02.849Z""","3494","materials/imgs/D29.png","arrowright","","[""materials/imgs/D102.png"",""materials/imgs/D57.png""]","false","random","","",""
"","","","","","html-keyboard-response","26","163129","0.0-10.0-0.0-0.8","9zqysdv6o0","","9zqysdv6o0","""2024-11-12T18:43:02.849Z""","null","+","null","","","","","","",""
"","","","","","image-keyboard-response","27","167534","0.0-10.0-0.0-1.8","9zqysdv6o0","","9zqysdv6o0","""2024-11-12T18:43:02.849Z""","4403","materials/imgs/D4.png","arrowleft","","[""materials/imgs/D106.png"",""materials/imgs/D95.png""]","false","random","","",""
"","","","","","html-keyboard-response","28","168037","0.0-10.0-0.0-0.9","9zqysdv6o0","","9zqysdv6o0","""2024-11-12T18:43:02.849Z""","null","+","null","","","","","","",""
"","","","","","image-keyboard-response","29","171274","0.0-10.0-0.0-1.9","9zqysdv6o0","","9zqysdv6o0","""2024-11-12T18:43:02.849Z""","3235","materials/imgs/D8.png","arrowleft","","[""materials/imgs/D20.png"",""materials/imgs/D92.png""]","false","random","","",""
"","","","","","html-button-response","30","176558","0.0-11.0","9zqysdv6o0","","9zqysdv6o0","""2024-11-12T18:43:02.849Z""","5283","<p>Great job!</p>
      <p>You are now ready to begin the experiment.</p>
      <p>There will be around 200 trials. You will have opportunities to take breaks at three stages of the trials.</p>
      <p>When you are ready to begin please click 'Continue'.</p>","0","","","","","","",""
"","","","","","html-keyboard-response","31","179082","0.0-12.0","9zqysdv6o0","","9zqysdv6o0","""2024-11-12T18:43:02.849Z""","null","+","null","","","","","","",""
"","","","","","html-keyboard-response","32","179584","0.0-13.0-0.0-0.0","9zqysdv6o0","","9zqysdv6o0","""2024-11-12T18:43:02.849Z""","null","+","null","","","","","","",""
"","","","","","image-keyboard-response","33","182016","0.0-13.0-0.0-1.0","9zqysdv6o0","","9zqysdv6o0","""2024-11-12T18:43:02.849Z""","2430","materials/imgs/D74.png","arrowright","","[""materials/imgs/D95.png"",""materials/imgs/D75.png""]","false","random","","",""
"","","","","","html-keyboard-response","34","182526","0.0-13.0-0.0-0.1","9zqysdv6o0","","9zqysdv6o0","""2024-11-12T18:43:02.849Z""","null","+","null","","","","","","",""
"","","","","","image-keyboard-response","35","184231","0.0-13.0-0.0-1.1","9zqysdv6o0","","9zqysdv6o0","""2024-11-12T18:43:02.849Z""","1703","materials/imgs/D53.png","arrowleft","","[""materials/imgs/D3.png"",""materials/imgs/D1.png""]","false","random","","",""
"","","","","","html-keyboard-response","36","184739","0.0-13.0-0.0-0.2","9zqysdv6o0","","9zqysdv6o0","""2024-11-12T18:43:02.849Z""","null","+","null","","","","","","",""
"","","","","","image-keyboard-response","37","188037","0.0-13.0-0.0-1.2","9zqysdv6o0","","9zqysdv6o0","""2024-11-12T18:43:02.849Z""","3290","materials/imgs/D80.png","arrowleft","","[""materials/imgs/D22.png"",""materials/imgs/D3.png""]","false","random","","",""
"","","","","","html-keyboard-response","38","188549","0.0-13.0-0.0-0.3","9zqysdv6o0","","9zqysdv6o0","""2024-11-12T18:43:02.849Z""","null","+","null","","","","","","",""
"","","","","","image-keyboard-response","39","190381","0.0-13.0-0.0-1.3","9zqysdv6o0","","9zqysdv6o0","""2024-11-12T18:43:02.849Z""","1831","materials/imgs/D111.png","arrowleft","","[""materials/imgs/D74.png"",""materials/imgs/D26.png""]","false","random","","",""
"","","","","","html-keyboard-response","40","190882","0.0-13.0-0.0-0.4","9zqysdv6o0","","9zqysdv6o0","""2024-11-12T18:43:02.849Z""","null","+","null","","","","","","",""
"","","","","","image-keyboard-response","41","193202","0.0-13.0-0.0-1.4","9zqysdv6o0","","9zqysdv6o0","""2024-11-12T18:43:02.849Z""","2319","materials/imgs/D47.png","arrowright","","[""materials/imgs/D37.png"",""materials/imgs/D36.png""]","false","random","","",""
"","","","","","html-keyboard-response","42","193718","0.0-13.0-0.0-0.5","9zqysdv6o0","","9zqysdv6o0","""2024-11-12T18:43:02.849Z""","null","+","null","","","","","","",""
"","","","","","image-keyboard-response","43","198999","0.0-13.0-0.0-1.5","9zqysdv6o0","","9zqysdv6o0","""2024-11-12T18:43:02.849Z""","5280","materials/imgs/D3.png","arrowright","","[""materials/imgs/D46.png"",""materials/imgs/D17.png""]","false","random","","",""
"","","","","","html-keyboard-response","44","199512","0.0-13.0-0.0-0.6","9zqysdv6o0","","9zqysdv6o0","""2024-11-12T18:43:02.849Z""","null","+","null","","","","","","",""
"","","","","","image-keyboard-response","45","200605","0.0-13.0-0.0-1.6","9zqysdv6o0","","9zqysdv6o0","""2024-11-12T18:43:02.849Z""","1091","materials/imgs/D11.png","arrowleft","","[""materials/imgs/D79.png"",""materials/imgs/D25.png""]","false","random","","",""
"","","","","","html-keyboard-response","46","201119","0.0-13.0-1.0-0.0","9zqysdv6o0","","9zqysdv6o0","""2024-11-12T18:43:02.849Z""","null","+","null","","","","","","",""
"","","","","","image-keyboard-response","47","202429","0.0-13.0-1.0-1.0","9zqysdv6o0","","9zqysdv6o0","""2024-11-12T18:43:02.849Z""","1309","materials/imgs/D18.png","arrowright","","[""materials/imgs/D8.png"",""materials/imgs/D18.png""]","","check","materials/imgs/D18.png","1","true"
"","","","","","html-keyboard-response","48","202943","0.0-13.0-2.0-0.0","9zqysdv6o0","","9zqysdv6o0","""2024-11-12T18:43:02.849Z""","null","+","null","","","","","","",""
"","","","","","image-keyboard-response","49","206762","0.0-13.0-2.0-1.0","9zqysdv6o0","","9zqysdv6o0","""2024-11-12T18:43:02.849Z""","3817","materials/imgs/D1.png","arrowright","","[""materials/imgs/D57.png"",""materials/imgs/D76.png""]","false","validation","","",""
"","","","","","html-keyboard-response","50","207272","0.0-13.0-2.0-0.1","9zqysdv6o0","","9zqysdv6o0","""2024-11-12T18:43:02.849Z""","null","+","null","","","","","","",""
"","","","","","image-keyboard-response","51","208612","0.0-13.0-2.0-1.1","9zqysdv6o0","","9zqysdv6o0","""2024-11-12T18:43:02.849Z""","1339","materials/imgs/D92.png","arrowright","","[""materials/imgs/D56.png"",""materials/imgs/D77.png""]","false","validation","","",""
"","","","","","html-keyboard-response","52","209126","0.0-13.0-0.1-0.7","9zqysdv6o0","","9zqysdv6o0","""2024-11-12T18:43:02.849Z""","null","+","null","","","","","","",""
"","","","","","image-keyboard-response","53","210607","0.0-13.0-0.1-1.7","9zqysdv6o0","","9zqysdv6o0","""2024-11-12T18:43:02.849Z""","1479","materials/imgs/D106.png","arrowleft","","[""materials/imgs/D11.png"",""materials/imgs/D47.png""]","false","random","","",""
"","","","","","html-keyboard-response","54","211119","0.0-13.0-0.1-0.8","9zqysdv6o0","","9zqysdv6o0","""2024-11-12T18:43:02.849Z""","null","+","null","","","","","","",""
"","","","","","image-keyboard-response","55","214694","0.0-13.0-0.1-1.8","9zqysdv6o0","","9zqysdv6o0","""2024-11-12T18:43:02.849Z""","3573","materials/imgs/D102.png","arrowright","","[""materials/imgs/D19.png"",""materials/imgs/D82.png""]","false","random","","",""
"","","","","","html-keyboard-response","56","215200","0.0-13.0-0.1-0.9","9zqysdv6o0","","9zqysdv6o0","""2024-11-12T18:43:02.849Z""","null","+","null","","","","","","",""
"","","","","","image-keyboard-response","57","219198","0.0-13.0-0.1-1.9","9zqysdv6o0","","9zqysdv6o0","""2024-11-12T18:43:02.849Z""","3997","materials/imgs/D80.png","arrowright","","[""materials/imgs/D68.png"",""materials/imgs/D105.png""]","false","random","","",""
"","","","","","html-keyboard-response","58","219703","0.0-13.0-0.1-0.10","9zqysdv6o0","","9zqysdv6o0","""2024-11-12T18:43:02.849Z""","null","+","null","","","","","","",""
"","","","","","image-keyboard-response","59","222310","0.0-13.0-0.1-1.10","9zqysdv6o0","","9zqysdv6o0","""2024-11-12T18:43:02.849Z""","2606","materials/imgs/D8.png","arrowleft","","[""materials/imgs/D47.png"",""materials/imgs/D92.png""]","false","random","","",""
"","","","","","html-keyboard-response","60","222816","0.0-13.0-0.1-0.11","9zqysdv6o0","","9zqysdv6o0","""2024-11-12T18:43:02.849Z""","null","+","null","","","","","","",""
"","","","","","image-keyboard-response","61","224725","0.0-13.0-0.1-1.11","9zqysdv6o0","","9zqysdv6o0","""2024-11-12T18:43:02.849Z""","1908","materials/imgs/D48.png","arrowright","","[""materials/imgs/D32.png"",""materials/imgs/D47.png""]","false","random","","",""
"","","","","","html-keyboard-response","62","225227","0.0-13.0-0.1-0.12","9zqysdv6o0","","9zqysdv6o0","""2024-11-12T18:43:02.849Z""","null","+","null","","","","","","",""
"","","","","","image-keyboard-response","63","229584","0.0-13.0-0.1-1.12","9zqysdv6o0","","9zqysdv6o0","""2024-11-12T18:43:02.849Z""","4353","materials/imgs/D111.png","arrowleft","","[""materials/imgs/D92.png"",""materials/imgs/D46.png""]","false","random","","",""
"","","","","","html-keyboard-response","64","230096","0.0-13.0-0.1-0.13","9zqysdv6o0","","9zqysdv6o0","""2024-11-12T18:43:02.849Z""","null","+","null","","","","","","",""
"","","","","","image-keyboard-response","65","233009","0.0-13.0-0.1-1.13","9zqysdv6o0","","9zqysdv6o0","""2024-11-12T18:43:02.849Z""","2912","materials/imgs/D19.png","arrowleft","","[""materials/imgs/D82.png"",""materials/imgs/D51.png""]","false","random","","",""
"","","","","","html-keyboard-response","66","233517","0.0-13.0-1.1-0.1","9zqysdv6o0","","9zqysdv6o0","""2024-11-12T18:43:02.849Z""","null","+","null","","","","","","",""
"","","","","","image-keyboard-response","67","234429","0.0-13.0-1.1-1.1","9zqysdv6o0","","9zqysdv6o0","""2024-11-12T18:43:02.849Z""","911","materials/imgs/D106.png","arrowleft","","[""materials/imgs/D106.png"",""materials/imgs/D101.png""]","","check","materials/imgs/D106.png","0","true"
"","","","","","html-keyboard-response","68","234938","0.0-13.0-2.1-0.2","9zqysdv6o0","","9zqysdv6o0","""2024-11-12T18:43:02.849Z""","null","+","null","","","","","","",""
"","","","","","image-keyboard-response","69","238125","0.0-13.0-2.1-1.2","9zqysdv6o0","","9zqysdv6o0","""2024-11-12T18:43:02.849Z""","3186","materials/imgs/D85.png","arrowleft","","[""materials/imgs/D6.png"",""materials/imgs/D111.png""]","false","validation","","",""
"","","","","","html-keyboard-response","70","238633","0.0-13.0-2.1-0.3","9zqysdv6o0","","9zqysdv6o0","""2024-11-12T18:43:02.849Z""","null","+","null","","","","","","",""
"","","","","","image-keyboard-response","71","243295","0.0-13.0-2.1-1.3","9zqysdv6o0","","9zqysdv6o0","""2024-11-12T18:43:02.849Z""","4662","materials/imgs/D4.png","arrowright","","[""materials/imgs/D52.png"",""materials/imgs/D83.png""]","false","validation","","",""
"","","","","","html-keyboard-response","72","243807","0.0-13.0-0.2-0.14","9zqysdv6o0","","9zqysdv6o0","""2024-11-12T18:43:02.849Z""","null","+","null","","","","","","",""
"","","","","","image-keyboard-response","73","245967","0.0-13.0-0.2-1.14","9zqysdv6o0","","9zqysdv6o0","""2024-11-12T18:43:02.849Z""","2158","materials/imgs/D111.png","arrowright","","[""materials/imgs/D76.png"",""materials/imgs/D34.png""]","false","random","","",""
"","","","","","html-keyboard-response","74","246479","0.0-13.0-0.2-0.15","9zqysdv6o0","","9zqysdv6o0","""2024-11-12T18:43:02.849Z""","null","+","null","","","","","","",""
"","","","","","image-keyboard-response","75","248174","0.0-13.0-0.2-1.15","9zqysdv6o0","","9zqysdv6o0","""2024-11-12T18:43:02.849Z""","1693","materials/imgs/D3.png","arrowright","","[""materials/imgs/D96.png"",""materials/imgs/D19.png""]","false","random","","",""
"","","","","","html-keyboard-response","76","248686","0.0-13.0-0.2-0.16","9zqysdv6o0","","9zqysdv6o0","""2024-11-12T18:43:02.849Z""","null","+","null","","","","","","",""
"","","","","","image-keyboard-response","77","252517","0.0-13.0-0.2-1.16","9zqysdv6o0","","9zqysdv6o0","""2024-11-12T18:43:02.849Z""","3829","materials/imgs/D94.png","arrowleft","","[""materials/imgs/D55.png"",""materials/imgs/D22.png""]","false","random","","",""
"","","","","","html-keyboard-response","78","253032","0.0-13.0-0.2-0.17","9zqysdv6o0","","9zqysdv6o0","""2024-11-12T18:43:02.849Z""","null","+","null","","","","","","",""
"","","","","","image-keyboard-response","79","256114","0.0-13.0-0.2-1.17","9zqysdv6o0","","9zqysdv6o0","""2024-11-12T18:43:02.849Z""","3080","materials/imgs/D14.png","arrowright","","[""materials/imgs/D101.png"",""materials/imgs/D104.png""]","false","random","","",""
"","","","","","html-keyboard-response","80","256629","0.0-13.0-0.2-0.18","9zqysdv6o0","","9zqysdv6o0","""2024-11-12T18:43:02.849Z""","null","+","null","","","","","","",""
"","","","","","image-keyboard-response","81","261446","0.0-13.0-0.2-1.18","9zqysdv6o0","","9zqysdv6o0","""2024-11-12T18:43:02.849Z""","4816","materials/imgs/D104.png","arrowleft","","[""materials/imgs/D66.png"",""materials/imgs/D25.png""]","false","random","","",""
"","","","","","html-keyboard-response","82","261955","0.0-13.0-0.2-0.19","9zqysdv6o0","","9zqysdv6o0","""2024-11-12T18:43:02.849Z""","null","+","null","","","","","","",""
"","","","","","image-keyboard-response","83","263910","0.0-13.0-0.2-1.19","9zqysdv6o0","","9zqysdv6o0","""2024-11-12T18:43:02.849Z""","1954","materials/imgs/D8.png","arrowright","","[""materials/imgs/D96.png"",""materials/imgs/D6.png""]","false","random","","",""
"","","","","","html-keyboard-response","84","264419","0.0-13.0-0.2-0.20","9zqysdv6o0","","9zqysdv6o0","""2024-11-12T18:43:02.849Z""","null","+","null","","","","","","",""
"","","","","","image-keyboard-response","85","268530","0.0-13.0-0.2-1.20","9zqysdv6o0","","9zqysdv6o0","""2024-11-12T18:43:02.849Z""","4109","materials/imgs/D19.png","arrowright","","[""materials/imgs/D74.png"",""materials/imgs/D84.png""]","false","random","","",""
"","","","","","html-keyboard-response","86","269043","0.0-13.0-1.2-0.2","9zqysdv6o0","","9zqysdv6o0","""2024-11-12T18:43:02.849Z""","null","+","null","","","","","","",""
"","","","","","image-keyboard-response","87","269942","0.0-13.0-1.2-1.2","9zqysdv6o0","","9zqysdv6o0","""2024-11-12T18:43:02.849Z""","898","materials/imgs/D106.png","arrowleft","","[""materials/imgs/D106.png"",""materials/imgs/D101.png""]","","check","materials/imgs/D106.png","0","true"
"","","","","","html-keyboard-response","88","270448","0.0-13.0-2.2-0.4","9zqysdv6o0","","9zqysdv6o0","""2024-11-12T18:43:02.849Z""","null","+","null","","","","","","",""
"","","","","","image-keyboard-response","89","272767","0.0-13.0-2.2-1.4","9zqysdv6o0","","9zqysdv6o0","""2024-11-12T18:43:02.849Z""","2317","materials/imgs/D83.png","arrowleft","","[""materials/imgs/D24.png"",""materials/imgs/D8.png""]","false","validation","","",""
"","","","","","html-keyboard-response","90","273280","0.0-13.0-2.2-0.5","9zqysdv6o0","","9zqysdv6o0","""2024-11-12T18:43:02.849Z""","null","+","null","","","","","","",""
"","","","","","image-keyboard-response","91","276286","0.0-13.0-2.2-1.5","9zqysdv6o0","","9zqysdv6o0","""2024-11-12T18:43:02.849Z""","3004","materials/imgs/D66.png","arrowright","","[""materials/imgs/D85.png"",""materials/imgs/D25.png""]","false","validation","","",""
"","","","","","html-keyboard-response","92","276799","0.0-13.0-0.3-0.21","9zqysdv6o0","","9zqysdv6o0","""2024-11-12T18:43:02.849Z""","null","+","null","","","","","","",""
"","","","","","image-keyboard-response","93","278301","0.0-13.0-0.3-1.21","9zqysdv6o0","","9zqysdv6o0","""2024-11-12T18:43:02.849Z""","1500","materials/imgs/D29.png","arrowright","","[""materials/imgs/D64.png"",""materials/imgs/D19.png""]","false","random","","",""
"","","","","","html-keyboard-response","94","278809","0.0-13.0-0.3-0.22","9zqysdv6o0","","9zqysdv6o0","""2024-11-12T18:43:02.849Z""","null","+","null","","","","","","",""
"","","","","","image-keyboard-response","95","280548","0.0-13.0-0.3-1.22","9zqysdv6o0","","9zqysdv6o0","""2024-11-12T18:43:02.849Z""","1737","materials/imgs/D20.png","arrowright","","[""materials/imgs/D29.png"",""materials/imgs/D36.png""]","false","random","","",""
"","","","","","html-keyboard-response","96","281051","0.0-13.0-0.3-0.23","9zqysdv6o0","","9zqysdv6o0","""2024-11-12T18:43:02.849Z""","null","+","null","","","","","","",""
"","","","","","image-keyboard-response","97","282520","0.0-13.0-0.3-1.23","9zqysdv6o0","","9zqysdv6o0","""2024-11-12T18:43:02.849Z""","1468","materials/imgs/D55.png","arrowleft","","[""materials/imgs/D17.png"",""materials/imgs/D94.png""]","false","random","","",""
"","","","","","html-keyboard-response","98","283032","0.0-13.0-0.3-0.24","9zqysdv6o0","","9zqysdv6o0","""2024-11-12T18:43:02.849Z""","null","+","null","","","","","","",""
"","","","","","image-keyboard-response","99","284248","0.0-13.0-0.3-1.24","9zqysdv6o0","","9zqysdv6o0","""2024-11-12T18:43:02.849Z""","1213","materials/imgs/D55.png","arrowright","","[""materials/imgs/D95.png"",""materials/imgs/D105.png""]","false","random","","",""
"","","","","","html-keyboard-response","100","284760","0.0-13.0-0.3-0.25","9zqysdv6o0","","9zqysdv6o0","""2024-11-12T18:43:02.849Z""","null","+","null","","","","","","",""
"","","","","","image-keyboard-response","101","286126","0.0-13.0-0.3-1.25","9zqysdv6o0","","9zqysdv6o0","""2024-11-12T18:43:02.849Z""","1364","materials/imgs/D75.png","arrowleft","","[""materials/imgs/D101.png"",""materials/imgs/D95.png""]","false","random","","",""
"","","","","","html-keyboard-response","102","286628","0.0-13.0-0.3-0.26","9zqysdv6o0","","9zqysdv6o0","""2024-11-12T18:43:02.849Z""","null","+","null","","","","","","",""
"","","","","","image-keyboard-response","103","290110","0.0-13.0-0.3-1.26","9zqysdv6o0","","9zqysdv6o0","""2024-11-12T18:43:02.849Z""","3481","materials/imgs/D47.png","arrowleft","","[""materials/imgs/D11.png"",""materials/imgs/D16.png""]","false","random","","",""
"","","","","","html-keyboard-response","104","290621","0.0-13.0-0.3-0.27","9zqysdv6o0","","9zqysdv6o0","""2024-11-12T18:43:02.849Z""","null","+","null","","","","","","",""
"","","","","","image-keyboard-response","105","294008","0.0-13.0-0.3-1.27","9zqysdv6o0","","9zqysdv6o0","""2024-11-12T18:43:02.849Z""","3385","materials/imgs/D46.png","arrowright","","[""materials/imgs/D87.png"",""materials/imgs/D19.png""]","false","random","","",""
"","","","","","html-keyboard-response","106","294522","0.0-13.0-1.3-0.3","9zqysdv6o0","","9zqysdv6o0","""2024-11-12T18:43:02.849Z""","null","+","null","","","","","","",""
"","","","","","image-keyboard-response","107","295390","0.0-13.0-1.3-1.3","9zqysdv6o0","","9zqysdv6o0","""2024-11-12T18:43:02.849Z""","867","materials/imgs/D78.png","arrowright","","[""materials/imgs/D76.png"",""materials/imgs/D78.png""]","","check","materials/imgs/D78.png","1","true"
"","","","","","html-keyboard-response","108","295892","0.0-13.0-2.3-0.6","9zqysdv6o0","","9zqysdv6o0","""2024-11-12T18:43:02.849Z""","null","+","null","","","","","","",""
"","","","","","image-keyboard-response","109","298109","0.0-13.0-2.3-1.6","9zqysdv6o0","","9zqysdv6o0","""2024-11-12T18:43:02.849Z""","2216","materials/imgs/D24.png","arrowleft","","[""materials/imgs/D36.png"",""materials/imgs/D8.png""]","false","validation","","",""
"","","","","","html-keyboard-response","110","298613","0.0-13.0-2.3-0.7","9zqysdv6o0","","9zqysdv6o0","""2024-11-12T18:43:02.849Z""","null","+","null","","","","","","",""
"","","","","","image-keyboard-response","111","304620","0.0-13.0-2.3-1.7","9zqysdv6o0","","9zqysdv6o0","""2024-11-12T18:43:02.849Z""","6006","materials/imgs/D83.png","arrowleft","","[""materials/imgs/D24.png"",""materials/imgs/D8.png""]","false","validation","","",""
"","","","","","html-keyboard-response","112","305123","0.0-13.0-0.4-0.28","9zqysdv6o0","","9zqysdv6o0","""2024-11-12T18:43:02.849Z""","null","+","null","","","","","","",""
"","","","","","image-keyboard-response","113","308389","0.0-13.0-0.4-1.28","9zqysdv6o0","","9zqysdv6o0","""2024-11-12T18:43:02.849Z""","3265","materials/imgs/D22.png","arrowright","","[""materials/imgs/D96.png"",""materials/imgs/D17.png""]","false","random","","",""
"","","","","","html-keyboard-response","114","308901","0.0-13.0-0.4-0.29","9zqysdv6o0","","9zqysdv6o0","""2024-11-12T18:43:02.849Z""","null","+","null","","","","","","",""
"","","","","","image-keyboard-response","115","312156","0.0-13.0-0.4-1.29","9zqysdv6o0","","9zqysdv6o0","""2024-11-12T18:43:02.849Z""","3253","materials/imgs/D78.png","arrowright","","[""materials/imgs/D66.png"",""materials/imgs/D87.png""]","false","random","","",""
"","","","","","html-keyboard-response","116","312670","0.0-13.0-0.4-0.30","9zqysdv6o0","","9zqysdv6o0","""2024-11-12T18:43:02.849Z""","null","+","null","","","","","","",""
"","","","","","image-keyboard-response","117","314557","0.0-13.0-0.4-1.30","9zqysdv6o0","","9zqysdv6o0","""2024-11-12T18:43:02.849Z""","1885","materials/imgs/D48.png","arrowright","","[""materials/imgs/D85.png"",""materials/imgs/D35.png""]","false","random","","",""
"","","","","","html-keyboard-response","118","315067","0.0-13.0-0.4-0.31","9zqysdv6o0","","9zqysdv6o0","""2024-11-12T18:43:02.849Z""","null","+","null","","","","","","",""
"","","","","","image-keyboard-response","119","317854","0.0-13.0-0.4-1.31","9zqysdv6o0","","9zqysdv6o0","""2024-11-12T18:43:02.849Z""","2786","materials/imgs/D68.png","arrowright","","[""materials/imgs/D101.png"",""materials/imgs/D22.png""]","false","random","","",""
"","","","","","html-keyboard-response","120","318355","0.0-13.0-0.4-0.32","9zqysdv6o0","","9zqysdv6o0","""2024-11-12T18:43:02.849Z""","null","+","null","","","","","","",""
"","","","","","image-keyboard-response","121","320038","0.0-13.0-0.4-1.32","9zqysdv6o0","","9zqysdv6o0","""2024-11-12T18:43:02.849Z""","1681","materials/imgs/D14.png","arrowleft","","[""materials/imgs/D35.png"",""materials/imgs/D47.png""]","false","random","","",""
"","","","","","html-keyboard-response","122","320544","0.0-13.0-0.4-0.33","9zqysdv6o0","","9zqysdv6o0","""2024-11-12T18:43:02.849Z""","null","+","null","","","","","","",""
"","","","","","image-keyboard-response","123","322876","0.0-13.0-0.4-1.33","9zqysdv6o0","","9zqysdv6o0","""2024-11-12T18:43:02.849Z""","2331","materials/imgs/D57.png","arrowright","","[""materials/imgs/D22.png"",""materials/imgs/D53.png""]","false","random","","",""
"","","","","","html-keyboard-response","124","323379","0.0-13.0-0.4-0.34","9zqysdv6o0","","9zqysdv6o0","""2024-11-12T18:43:02.849Z""","null","+","null","","","","","","",""
"","","","","","image-keyboard-response","125","324933","0.0-13.0-0.4-1.34","9zqysdv6o0","","9zqysdv6o0","""2024-11-12T18:43:02.849Z""","1551","materials/imgs/D55.png","arrowleft","","[""materials/imgs/D11.png"",""materials/imgs/D75.png""]","false","random","","",""
"","","","","","html-keyboard-response","126","325436","0.0-13.0-1.4-0.4","9zqysdv6o0","","9zqysdv6o0","""2024-11-12T18:43:02.849Z""","null","+","null","","","","","","",""
"","","","","","image-keyboard-response","127","326366","0.0-13.0-1.4-1.4","9zqysdv6o0","","9zqysdv6o0","""2024-11-12T18:43:02.849Z""","928","materials/imgs/D78.png","arrowright","","[""materials/imgs/D76.png"",""materials/imgs/D78.png""]","","check","materials/imgs/D78.png","1","true"
"","","","","","html-keyboard-response","128","326871","0.0-13.0-2.4-0.8","9zqysdv6o0","","9zqysdv6o0","""2024-11-12T18:43:02.849Z""","null","+","null","","","","","","",""
"","","","","","image-keyboard-response","129","330897","0.0-13.0-2.4-1.8","9zqysdv6o0","","9zqysdv6o0","""2024-11-12T18:43:02.849Z""","4025","materials/imgs/D46.png","arrowright","","[""materials/imgs/D92.png"",""materials/imgs/D77.png""]","false","validation","","",""
"","","","","","html-keyboard-response","130","331401","0.0-13.0-2.4-0.9","9zqysdv6o0","","9zqysdv6o0","""2024-11-12T18:43:02.849Z""","null","+","null","","","","","","",""
"","","","","","image-keyboard-response","131","333973","0.0-13.0-2.4-1.9","9zqysdv6o0","","9zqysdv6o0","""2024-11-12T18:43:02.849Z""","2570","materials/imgs/D18.png","arrowleft","","[""materials/imgs/D32.png"",""materials/imgs/D57.png""]","false","validation","","",""
"","","","","","html-button-response","132","341887","0.0-14.0","9zqysdv6o0","","9zqysdv6o0","""2024-11-12T18:43:02.849Z""","7913","You have completed 25% of the trials. Please click 'Continue' when you are ready proceed.","0","","","","","","",""
"","","","","","html-keyboard-response","133","342396","0.0-15.0-0.0-0.0","9zqysdv6o0","","9zqysdv6o0","""2024-11-12T18:43:02.849Z""","null","+","null","","","","","","",""
"","","","","","image-keyboard-response","134","345326","0.0-15.0-0.0-1.0","9zqysdv6o0","","9zqysdv6o0","""2024-11-12T18:43:02.849Z""","2928","materials/imgs/D104.png","arrowleft","","[""materials/imgs/D85.png"",""materials/imgs/D16.png""]","false","random","","",""
"","","","","","html-keyboard-response","135","345842","0.0-15.0-0.0-0.1","9zqysdv6o0","","9zqysdv6o0","""2024-11-12T18:43:02.849Z""","null","+","null","","","","","","",""
"","","","","","image-keyboard-response","136","350661","0.0-15.0-0.0-1.1","9zqysdv6o0","","9zqysdv6o0","""2024-11-12T18:43:02.849Z""","4818","materials/imgs/D66.png","arrowright","","[""materials/imgs/D94.png"",""materials/imgs/D95.png""]","false","random","","",""
"","","","","","html-keyboard-response","137","351167","0.0-15.0-0.0-0.2","9zqysdv6o0","","9zqysdv6o0","""2024-11-12T18:43:02.849Z""","null","+","null","","","","","","",""
"","","","","","image-keyboard-response","138","353439","0.0-15.0-0.0-1.2","9zqysdv6o0","","9zqysdv6o0","""2024-11-12T18:43:02.849Z""","2270","materials/imgs/D74.png","arrowright","","[""materials/imgs/D21.png"",""materials/imgs/D17.png""]","false","random","","",""
"","","","","","html-keyboard-response","139","353942","0.0-15.0-0.0-0.3","9zqysdv6o0","","9zqysdv6o0","""2024-11-12T18:43:02.849Z""","null","+","null","","","","","","",""
"","","","","","image-keyboard-response","140","355965","0.0-15.0-0.0-1.3","9zqysdv6o0","","9zqysdv6o0","""2024-11-12T18:43:02.849Z""","2021","materials/imgs/D111.png","arrowleft","","[""materials/imgs/D29.png"",""materials/imgs/D48.png""]","false","random","","",""
"","","","","","html-keyboard-response","141","356478","0.0-15.0-0.0-0.4","9zqysdv6o0","","9zqysdv6o0","""2024-11-12T18:43:02.849Z""","null","+","null","","","","","","",""
"","","","","","image-keyboard-response","142","358382","0.0-15.0-0.0-1.4","9zqysdv6o0","","9zqysdv6o0","""2024-11-12T18:43:02.849Z""","1901","materials/imgs/D25.png","arrowleft","","[""materials/imgs/D1.png"",""materials/imgs/D36.png""]","false","random","","",""
"","","","","","html-keyboard-response","143","358884","0.0-15.0-0.0-0.5","9zqysdv6o0","","9zqysdv6o0","""2024-11-12T18:43:02.849Z""","null","+","null","","","","","","",""
"","","","","","image-keyboard-response","144","361446","0.0-15.0-0.0-1.5","9zqysdv6o0","","9zqysdv6o0","""2024-11-12T18:43:02.849Z""","2560","materials/imgs/D57.png","arrowleft","","[""materials/imgs/D35.png"",""materials/imgs/D66.png""]","false","random","","",""
"","","","","","html-keyboard-response","145","361953","0.0-15.0-0.0-0.6","9zqysdv6o0","","9zqysdv6o0","""2024-11-12T18:43:02.849Z""","null","+","null","","","","","","",""
"","","","","","image-keyboard-response","146","363854","0.0-15.0-0.0-1.6","9zqysdv6o0","","9zqysdv6o0","""2024-11-12T18:43:02.849Z""","1900","materials/imgs/D84.png","arrowright","","[""materials/imgs/D8.png"",""materials/imgs/D22.png""]","false","random","","",""
"","","","","","html-keyboard-response","147","364367","0.0-15.0-1.0-0.0","9zqysdv6o0","","9zqysdv6o0","""2024-11-12T18:43:02.849Z""","null","+","null","","","","","","",""
"","","","","","image-keyboard-response","148","365237","0.0-15.0-1.0-1.0","9zqysdv6o0","","9zqysdv6o0","""2024-11-12T18:43:02.849Z""","868","materials/imgs/D76.png","arrowleft","","[""materials/imgs/D76.png"",""materials/imgs/D78.png""]","","check","materials/imgs/D76.png","0","true"
"","","","","","html-keyboard-response","149","365750","0.0-15.0-2.0-0.0","9zqysdv6o0","","9zqysdv6o0","""2024-11-12T18:43:02.849Z""","null","+","null","","","","","","",""
"","","","","","image-keyboard-response","150","368525","0.0-15.0-2.0-1.0","9zqysdv6o0","","9zqysdv6o0","""2024-11-12T18:43:02.849Z""","2773","materials/imgs/D82.png","arrowleft","","[""materials/imgs/D83.png"",""materials/imgs/D22.png""]","false","validation","","",""
"","","","","","html-keyboard-response","151","369038","0.0-15.0-2.0-0.1","9zqysdv6o0","","9zqysdv6o0","""2024-11-12T18:43:02.849Z""","null","+","null","","","","","","",""
"","","","","","image-keyboard-response","152","370901","0.0-15.0-2.0-1.1","9zqysdv6o0","","9zqysdv6o0","""2024-11-12T18:43:02.849Z""","1861","materials/imgs/D82.png","arrowleft","","[""materials/imgs/D83.png"",""materials/imgs/D22.png""]","false","validation","","",""
"","","","","","html-keyboard-response","153","371416","0.0-15.0-0.1-0.7","9zqysdv6o0","","9zqysdv6o0","""2024-11-12T18:43:02.849Z""","null","+","null","","","","","","",""
"","","","","","image-keyboard-response","154","372421","0.0-15.0-0.1-1.7","9zqysdv6o0","","9zqysdv6o0","""2024-11-12T18:43:02.849Z""","1003","materials/imgs/D9.png","arrowleft","","[""materials/imgs/D24.png"",""materials/imgs/D1.png""]","false","random","","",""
"","","","","","html-keyboard-response","155","372929","0.0-15.0-0.1-0.8","9zqysdv6o0","","9zqysdv6o0","""2024-11-12T18:43:02.849Z""","null","+","null","","","","","","",""
"","","","","","image-keyboard-response","156","374688","0.0-15.0-0.1-1.8","9zqysdv6o0","","9zqysdv6o0","""2024-11-12T18:43:02.849Z""","1757","materials/imgs/D19.png","arrowright","","[""materials/imgs/D17.png"",""materials/imgs/D82.png""]","false","random","","",""
"","","","","","html-keyboard-response","157","375202","0.0-15.0-0.1-0.9","9zqysdv6o0","","9zqysdv6o0","""2024-11-12T18:43:02.849Z""","null","+","null","","","","","","",""
"","","","","","image-keyboard-response","158","376413","0.0-15.0-0.1-1.9","9zqysdv6o0","","9zqysdv6o0","""2024-11-12T18:43:02.849Z""","1210","materials/imgs/D21.png","arrowright","","[""materials/imgs/D82.png"",""materials/imgs/D14.png""]","false","random","","",""
"","","","","","html-keyboard-response","159","376926","0.0-15.0-0.1-0.10","9zqysdv6o0","","9zqysdv6o0","""2024-11-12T18:43:02.849Z""","null","+","null","","","","","","",""
"","","","","","image-keyboard-response","160","380349","0.0-15.0-0.1-1.10","9zqysdv6o0","","9zqysdv6o0","""2024-11-12T18:43:02.849Z""","3421","materials/imgs/D36.png","arrowleft","","[""materials/imgs/D57.png"",""materials/imgs/D29.png""]","false","random","","",""
"","","","","","html-keyboard-response","161","380860","0.0-15.0-0.1-0.11","9zqysdv6o0","","9zqysdv6o0","""2024-11-12T18:43:02.849Z""","null","+","null","","","","","","",""
"","","","","","image-keyboard-response","162","382080","0.0-15.0-0.1-1.11","9zqysdv6o0","","9zqysdv6o0","""2024-11-12T18:43:02.849Z""","1219","materials/imgs/D111.png","arrowleft","","[""materials/imgs/D74.png"",""materials/imgs/D83.png""]","false","random","","",""
"","","","","","html-keyboard-response","163","382589","0.0-15.0-0.1-0.12","9zqysdv6o0","","9zqysdv6o0","""2024-11-12T18:43:02.849Z""","null","+","null","","","","","","",""
"","","","","","image-keyboard-response","164","389640","0.0-15.0-0.1-1.12","9zqysdv6o0","","9zqysdv6o0","""2024-11-12T18:43:02.849Z""","7049","materials/imgs/D102.png","arrowright","","[""materials/imgs/D47.png"",""materials/imgs/D87.png""]","false","random","","",""
"","","","","","html-keyboard-response","165","390154","0.0-15.0-0.1-0.13","9zqysdv6o0","","9zqysdv6o0","""2024-11-12T18:43:02.849Z""","null","+","null","","","","","","",""
"","","","","","image-keyboard-response","166","403664","0.0-15.0-0.1-1.13","9zqysdv6o0","","9zqysdv6o0","""2024-11-12T18:43:02.849Z""","13509","materials/imgs/D68.png","arrowleft","","[""materials/imgs/D52.png"",""materials/imgs/D48.png""]","false","random","","",""
"","","","","","html-keyboard-response","167","404170","0.0-15.0-1.1-0.1","9zqysdv6o0","","9zqysdv6o0","""2024-11-12T18:43:02.849Z""","null","+","null","","","","","","",""
"","","","","","image-keyboard-response","168","405980","0.0-15.0-1.1-1.1","9zqysdv6o0","","9zqysdv6o0","""2024-11-12T18:43:02.849Z""","1809","materials/imgs/D26.png","arrowleft","","[""materials/imgs/D26.png"",""materials/imgs/D46.png""]","","check","materials/imgs/D26.png","0","true"
"","","","","","html-keyboard-response","169","406491","0.0-15.0-2.1-0.2","9zqysdv6o0","","9zqysdv6o0","""2024-11-12T18:43:02.849Z""","null","+","null","","","","","","",""
"","","","","","image-keyboard-response","170","408215","0.0-15.0-2.1-1.2","9zqysdv6o0","","9zqysdv6o0","""2024-11-12T18:43:02.849Z""","1722","materials/imgs/D9.png","arrowright","","[""materials/imgs/D103.png"",""materials/imgs/D4.png""]","false","validation","","",""
"","","","","","html-keyboard-response","171","408723","0.0-15.0-2.1-0.3","9zqysdv6o0","","9zqysdv6o0","""2024-11-12T18:43:02.849Z""","null","+","null","","","","","","",""
"","","","","","image-keyboard-response","172","411789","0.0-15.0-2.1-1.3","9zqysdv6o0","","9zqysdv6o0","""2024-11-12T18:43:02.849Z""","3064","materials/imgs/D77.png","arrowright","","[""materials/imgs/D102.png"",""materials/imgs/D65.png""]","false","validation","","",""
"","","","","","html-keyboard-response","173","412305","0.0-15.0-0.2-0.14","9zqysdv6o0","","9zqysdv6o0","""2024-11-12T18:43:02.849Z""","null","+","null","","","","","","",""
"","","","","","image-keyboard-response","174","413703","0.0-15.0-0.2-1.14","9zqysdv6o0","","9zqysdv6o0","""2024-11-12T18:43:02.849Z""","1396","materials/imgs/D85.png","arrowleft","","[""materials/imgs/D11.png"",""materials/imgs/D81.png""]","false","random","","",""
"","","","","","html-keyboard-response","175","414205","0.0-15.0-0.2-0.15","9zqysdv6o0","","9zqysdv6o0","""2024-11-12T18:43:02.849Z""","null","+","null","","","","","","",""
"","","","","","image-keyboard-response","176","419149","0.0-15.0-0.2-1.15","9zqysdv6o0","","9zqysdv6o0","""2024-11-12T18:43:02.849Z""","4943","materials/imgs/D101.png","arrowright","","[""materials/imgs/D9.png"",""materials/imgs/D29.png""]","false","random","","",""
"","","","","","html-keyboard-response","177","419662","0.0-15.0-0.2-0.16","9zqysdv6o0","","9zqysdv6o0","""2024-11-12T18:43:02.849Z""","null","+","null","","","","","","",""
"","","","","","image-keyboard-response","178","423316","0.0-15.0-0.2-1.16","9zqysdv6o0","","9zqysdv6o0","""2024-11-12T18:43:02.849Z""","3652","materials/imgs/D81.png","arrowright","","[""materials/imgs/D25.png"",""materials/imgs/D65.png""]","false","random","","",""
"","","","","","html-keyboard-response","179","423823","0.0-15.0-0.2-0.17","9zqysdv6o0","","9zqysdv6o0","""2024-11-12T18:43:02.849Z""","null","+","null","","","","","","",""
"","","","","","image-keyboard-response","180","426799","0.0-15.0-0.2-1.17","9zqysdv6o0","","9zqysdv6o0","""2024-11-12T18:43:02.849Z""","2974","materials/imgs/D51.png","arrowright","","[""materials/imgs/D102.png"",""materials/imgs/D11.png""]","false","random","","",""
"","","","","","html-keyboard-response","181","427312","0.0-15.0-0.2-0.18","9zqysdv6o0","","9zqysdv6o0","""2024-11-12T18:43:02.849Z""","null","+","null","","","","","","",""
"","","","","","image-keyboard-response","182","429844","0.0-15.0-0.2-1.18","9zqysdv6o0","","9zqysdv6o0","""2024-11-12T18:43:02.849Z""","2530","materials/imgs/D25.png","arrowleft","","[""materials/imgs/D66.png"",""materials/imgs/D78.png""]","false","random","","",""
"","","","","","html-keyboard-response","183","430348","0.0-15.0-0.2-0.19","9zqysdv6o0","","9zqysdv6o0","""2024-11-12T18:43:02.849Z""","null","+","null","","","","","","",""
"","","","","","image-keyboard-response","184","431684","0.0-15.0-0.2-1.19","9zqysdv6o0","","9zqysdv6o0","""2024-11-12T18:43:02.849Z""","1335","materials/imgs/D14.png","arrowright","","[""materials/imgs/D34.png"",""materials/imgs/D77.png""]","false","random","","",""
"","","","","","html-keyboard-response","185","432199","0.0-15.0-0.2-0.20","9zqysdv6o0","","9zqysdv6o0","""2024-11-12T18:43:02.849Z""","null","+","null","","","","","","",""
"","","","","","image-keyboard-response","186","434021","0.0-15.0-0.2-1.20","9zqysdv6o0","","9zqysdv6o0","""2024-11-12T18:43:02.849Z""","1820","materials/imgs/D87.png","arrowright","","[""materials/imgs/D84.png"",""materials/imgs/D81.png""]","false","random","","",""
"","","","","","html-keyboard-response","187","434523","0.0-15.0-1.2-0.2","9zqysdv6o0","","9zqysdv6o0","""2024-11-12T18:43:02.849Z""","null","+","null","","","","","","",""
"","","","","","image-keyboard-response","188","435468","0.0-15.0-1.2-1.2","9zqysdv6o0","","9zqysdv6o0","""2024-11-12T18:43:02.849Z""","944","materials/imgs/D78.png","arrowright","","[""materials/imgs/D76.png"",""materials/imgs/D78.png""]","","check","materials/imgs/D78.png","1","true"
"","","","","","html-keyboard-response","189","435983","0.0-15.0-2.2-0.4","9zqysdv6o0","","9zqysdv6o0","""2024-11-12T18:43:02.849Z""","null","+","null","","","","","","",""
"","","","","","image-keyboard-response","190","437577","0.0-15.0-2.2-1.4","9zqysdv6o0","","9zqysdv6o0","""2024-11-12T18:43:02.849Z""","1593","materials/imgs/D79.png","arrowleft","","[""materials/imgs/D51.png"",""materials/imgs/D64.png""]","false","validation","","",""
"","","","","","html-keyboard-response","191","438084","0.0-15.0-2.2-0.5","9zqysdv6o0","","9zqysdv6o0","""2024-11-12T18:43:02.849Z""","null","+","null","","","","","","",""
"","","","","","image-keyboard-response","192","439710","0.0-15.0-2.2-1.5","9zqysdv6o0","","9zqysdv6o0","""2024-11-12T18:43:02.849Z""","1625","materials/imgs/D65.png","arrowright","","[""materials/imgs/D4.png"",""materials/imgs/D16.png""]","false","validation","","",""
"","","","","","html-keyboard-response","193","440219","0.0-15.0-0.3-0.21","9zqysdv6o0","","9zqysdv6o0","""2024-11-12T18:43:02.849Z""","null","+","null","","","","","","",""
"","","","","","image-keyboard-response","194","442028","0.0-15.0-0.3-1.21","9zqysdv6o0","","9zqysdv6o0","""2024-11-12T18:43:02.849Z""","1807","materials/imgs/D36.png","arrowleft","","[""materials/imgs/D75.png"",""materials/imgs/D8.png""]","false","random","","",""
"","","","","","html-keyboard-response","195","442534","0.0-15.0-0.3-0.22","9zqysdv6o0","","9zqysdv6o0","""2024-11-12T18:43:02.849Z""","null","+","null","","","","","","",""
"","","","","","image-keyboard-response","196","445076","0.0-15.0-0.3-1.22","9zqysdv6o0","","9zqysdv6o0","""2024-11-12T18:43:02.849Z""","2541","materials/imgs/D57.png","arrowright","","[""materials/imgs/D34.png"",""materials/imgs/D83.png""]","false","random","","",""
"","","","","","html-keyboard-response","197","445585","0.0-15.0-0.3-0.23","9zqysdv6o0","","9zqysdv6o0","""2024-11-12T18:43:02.849Z""","null","+","null","","","","","","",""
"","","","","","image-keyboard-response","198","449303","0.0-15.0-0.3-1.23","9zqysdv6o0","","9zqysdv6o0","""2024-11-12T18:43:02.849Z""","3716","materials/imgs/D94.png","arrowright","","[""materials/imgs/D21.png"",""materials/imgs/D64.png""]","false","random","","",""
"","","","","","html-keyboard-response","199","449809","0.0-15.0-0.3-0.24","9zqysdv6o0","","9zqysdv6o0","""2024-11-12T18:43:02.849Z""","null","+","null","","","","","","",""
"","","","","","image-keyboard-response","200","451500","0.0-15.0-0.3-1.24","9zqysdv6o0","","9zqysdv6o0","""2024-11-12T18:43:02.849Z""","1690","materials/imgs/D14.png","arrowleft","","[""materials/imgs/D106.png"",""materials/imgs/D46.png""]","false","random","","",""
"","","","","","html-keyboard-response","201","452013","0.0-15.0-0.3-0.25","9zqysdv6o0","","9zqysdv6o0","""2024-11-12T18:43:02.849Z""","null","+","null","","","","","","",""
"","","","","","image-keyboard-response","202","457589","0.0-15.0-0.3-1.25","9zqysdv6o0","","9zqysdv6o0","""2024-11-12T18:43:02.849Z""","5574","materials/imgs/D65.png","arrowright","","[""materials/imgs/D68.png"",""materials/imgs/D66.png""]","false","random","","",""
"","","","","","html-keyboard-response","203","458104","0.0-15.0-0.3-0.26","9zqysdv6o0","","9zqysdv6o0","""2024-11-12T18:43:02.849Z""","null","+","null","","","","","","",""
"","","","","","image-keyboard-response","204","460159","0.0-15.0-0.3-1.26","9zqysdv6o0","","9zqysdv6o0","""2024-11-12T18:43:02.849Z""","2053","materials/imgs/D3.png","arrowleft","","[""materials/imgs/D68.png"",""materials/imgs/D26.png""]","false","random","","",""
"","","","","","html-keyboard-response","205","460664","0.0-15.0-0.3-0.27","9zqysdv6o0","","9zqysdv6o0","""2024-11-12T18:43:02.849Z""","null","+","null","","","","","","",""
"","","","","","image-keyboard-response","206","462972","0.0-15.0-0.3-1.27","9zqysdv6o0","","9zqysdv6o0","""2024-11-12T18:43:02.849Z""","2306","materials/imgs/D18.png","arrowleft","","[""materials/imgs/D53.png"",""materials/imgs/D57.png""]","false","random","","",""
"","","","","","html-keyboard-response","207","463487","0.0-15.0-1.3-0.3","9zqysdv6o0","","9zqysdv6o0","""2024-11-12T18:43:02.849Z""","null","+","null","","","","","","",""
"","","","","","image-keyboard-response","208","464555","0.0-15.0-1.3-1.3","9zqysdv6o0","","9zqysdv6o0","""2024-11-12T18:43:02.849Z""","1067","materials/imgs/D53.png","arrowright","","[""materials/imgs/D64.png"",""materials/imgs/D53.png""]","","check","materials/imgs/D53.png","1","true"
"","","","","","html-keyboard-response","209","465058","0.0-15.0-2.3-0.6","9zqysdv6o0","","9zqysdv6o0","""2024-11-12T18:43:02.849Z""","null","+","null","","","","","","",""
"","","","","","image-keyboard-response","210","467164","0.0-15.0-2.3-1.6","9zqysdv6o0","","9zqysdv6o0","""2024-11-12T18:43:02.849Z""","2106","materials/imgs/D8.png","arrowleft","","[""materials/imgs/D101.png"",""materials/imgs/D52.png""]","false","validation","","",""
"","","","","","html-keyboard-response","211","467676","0.0-15.0-2.3-0.7","9zqysdv6o0","","9zqysdv6o0","""2024-11-12T18:43:02.849Z""","null","+","null","","","","","","",""
"","","","","","image-keyboard-response","212","470425","0.0-15.0-2.3-1.7","9zqysdv6o0","","9zqysdv6o0","""2024-11-12T18:43:02.849Z""","2748","materials/imgs/D65.png","arrowright","","[""materials/imgs/D4.png"",""materials/imgs/D16.png""]","false","validation","","",""
"","","","","","html-keyboard-response","213","470940","0.0-15.0-0.4-0.28","9zqysdv6o0","","9zqysdv6o0","""2024-11-12T18:43:02.849Z""","null","+","null","","","","","","",""
"","","","","","image-keyboard-response","214","472803","0.0-15.0-0.4-1.28","9zqysdv6o0","","9zqysdv6o0","""2024-11-12T18:43:02.849Z""","1862","materials/imgs/D57.png","arrowleft","","[""materials/imgs/D16.png"",""materials/imgs/D68.png""]","false","random","","",""
"","","","","","html-keyboard-response","215","473308","0.0-15.0-0.4-0.29","9zqysdv6o0","","9zqysdv6o0","""2024-11-12T18:43:02.849Z""","null","+","null","","","","","","",""
"","","","","","image-keyboard-response","216","475325","0.0-15.0-0.4-1.29","9zqysdv6o0","","9zqysdv6o0","""2024-11-12T18:43:02.849Z""","2016","materials/imgs/D37.png","arrowright","","[""materials/imgs/D51.png"",""materials/imgs/D68.png""]","false","random","","",""
"","","","","","html-keyboard-response","217","475840","0.0-15.0-0.4-0.30","9zqysdv6o0","","9zqysdv6o0","""2024-11-12T18:43:02.849Z""","null","+","null","","","","","","",""
"","","","","","image-keyboard-response","218","479237","0.0-15.0-0.4-1.30","9zqysdv6o0","","9zqysdv6o0","""2024-11-12T18:43:02.849Z""","3395","materials/imgs/D36.png","arrowleft","","[""materials/imgs/D9.png"",""materials/imgs/D48.png""]","false","random","","",""
"","","","","","html-keyboard-response","219","479750","0.0-15.0-0.4-0.31","9zqysdv6o0","","9zqysdv6o0","""2024-11-12T18:43:02.849Z""","null","+","null","","","","","","",""
"","","","","","image-keyboard-response","220","482293","0.0-15.0-0.4-1.31","9zqysdv6o0","","9zqysdv6o0","""2024-11-12T18:43:02.849Z""","2542","materials/imgs/D37.png","arrowright","","[""materials/imgs/D75.png"",""materials/imgs/D77.png""]","false","random","","",""
"","","","","","html-keyboard-response","221","482809","0.0-15.0-0.4-0.32","9zqysdv6o0","","9zqysdv6o0","""2024-11-12T18:43:02.849Z""","null","+","null","","","","","","",""
"","","","","","image-keyboard-response","222","485125","0.0-15.0-0.4-1.32","9zqysdv6o0","","9zqysdv6o0","""2024-11-12T18:43:02.849Z""","2315","materials/imgs/D106.png","arrowright","","[""materials/imgs/D81.png"",""materials/imgs/D83.png""]","false","random","","",""
"","","","","","html-keyboard-response","223","485627","0.0-15.0-0.4-0.33","9zqysdv6o0","","9zqysdv6o0","""2024-11-12T18:43:02.849Z""","null","+","null","","","","","","",""
"","","","","","image-keyboard-response","224","486981","0.0-15.0-0.4-1.33","9zqysdv6o0","","9zqysdv6o0","""2024-11-12T18:43:02.849Z""","1352","materials/imgs/D55.png","arrowleft","","[""materials/imgs/D3.png"",""materials/imgs/D64.png""]","false","random","","",""
"","","","","","html-keyboard-response","225","487493","0.0-15.0-0.4-0.34","9zqysdv6o0","","9zqysdv6o0","""2024-11-12T18:43:02.849Z""","null","+","null","","","","","","",""
"","","","","","image-keyboard-response","226","490141","0.0-15.0-0.4-1.34","9zqysdv6o0","","9zqysdv6o0","""2024-11-12T18:43:02.849Z""","2646","materials/imgs/D17.png","arrowright","","[""materials/imgs/D81.png"",""materials/imgs/D53.png""]","false","random","","",""
"","","","","","html-keyboard-response","227","490642","0.0-15.0-1.4-0.4","9zqysdv6o0","","9zqysdv6o0","""2024-11-12T18:43:02.849Z""","null","+","null","","","","","","",""
"","","","","","image-keyboard-response","228","491619","0.0-15.0-1.4-1.4","9zqysdv6o0","","9zqysdv6o0","""2024-11-12T18:43:02.849Z""","976","materials/imgs/D78.png","arrowright","","[""materials/imgs/D76.png"",""materials/imgs/D78.png""]","","check","materials/imgs/D78.png","1","true"
"","","","","","html-keyboard-response","229","492131","0.0-15.0-2.4-0.8","9zqysdv6o0","","9zqysdv6o0","""2024-11-12T18:43:02.849Z""","null","+","null","","","","","","",""
"","","","","","image-keyboard-response","230","496320","0.0-15.0-2.4-1.8","9zqysdv6o0","","9zqysdv6o0","""2024-11-12T18:43:02.849Z""","4188","materials/imgs/D6.png","arrowleft","","[""materials/imgs/D26.png"",""materials/imgs/D76.png""]","false","validation","","",""
"","","","","","html-keyboard-response","231","496835","0.0-15.0-2.4-0.9","9zqysdv6o0","","9zqysdv6o0","""2024-11-12T18:43:02.849Z""","null","+","null","","","","","","",""
"","","","","","image-keyboard-response","232","500916","0.0-15.0-2.4-1.9","9zqysdv6o0","","9zqysdv6o0","""2024-11-12T18:43:02.849Z""","4079","materials/imgs/D24.png","arrowleft","","[""materials/imgs/D36.png"",""materials/imgs/D8.png""]","false","validation","","",""
"","","","","","html-button-response","233","503555","0.0-16.0","9zqysdv6o0","","9zqysdv6o0","""2024-11-12T18:43:02.849Z""","2639","You have completed 50% of the trials. Please click 'Continue' when you are ready proceed.","0","","","","","","",""
"","","","","","html-keyboard-response","234","504059","0.0-17.0-0.0-0.0","9zqysdv6o0","","9zqysdv6o0","""2024-11-12T18:43:02.849Z""","null","+","null","","","","","","",""
"","","","","","image-keyboard-response","235","506284","0.0-17.0-0.0-1.0","9zqysdv6o0","","9zqysdv6o0","""2024-11-12T18:43:02.849Z""","2223","materials/imgs/D74.png","arrowleft","","[""materials/imgs/D96.png"",""materials/imgs/D105.png""]","false","random","","",""
"","","","","","html-keyboard-response","236","506789","0.0-17.0-0.0-0.1","9zqysdv6o0","","9zqysdv6o0","""2024-11-12T18:43:02.849Z""","null","+","null","","","","","","",""
"","","","","","image-keyboard-response","237","508014","0.0-17.0-0.0-1.1","9zqysdv6o0","","9zqysdv6o0","""2024-11-12T18:43:02.849Z""","1223","materials/imgs/D96.png","arrowleft","","[""materials/imgs/D95.png"",""materials/imgs/D104.png""]","false","random","","",""
"","","","","","html-keyboard-response","238","508516","0.0-17.0-0.0-0.2","9zqysdv6o0","","9zqysdv6o0","""2024-11-12T18:43:02.849Z""","null","+","null","","","","","","",""
"","","","","","image-keyboard-response","239","509596","0.0-17.0-0.0-1.2","9zqysdv6o0","","9zqysdv6o0","""2024-11-12T18:43:02.849Z""","1079","materials/imgs/D57.png","arrowleft","","[""materials/imgs/D32.png"",""materials/imgs/D104.png""]","false","random","","",""
"","","","","","html-keyboard-response","240","510106","0.0-17.0-0.0-0.3","9zqysdv6o0","","9zqysdv6o0","""2024-11-12T18:43:02.849Z""","null","+","null","","","","","","",""
"","","","","","image-keyboard-response","241","511596","0.0-17.0-0.0-1.3","9zqysdv6o0","","9zqysdv6o0","""2024-11-12T18:43:02.849Z""","1489","materials/imgs/D94.png","arrowleft","","[""materials/imgs/D55.png"",""materials/imgs/D48.png""]","false","random","","",""
"","","","","","html-keyboard-response","242","512099","0.0-17.0-0.0-0.4","9zqysdv6o0","","9zqysdv6o0","""2024-11-12T18:43:02.849Z""","null","+","null","","","","","","",""
"","","","","","image-keyboard-response","243","517684","0.0-17.0-0.0-1.4","9zqysdv6o0","","9zqysdv6o0","""2024-11-12T18:43:02.849Z""","5580","materials/imgs/D16.png","arrowleft","","[""materials/imgs/D4.png"",""materials/imgs/D46.png""]","false","random","","",""
"","","","","","html-keyboard-response","244","518192","0.0-17.0-0.0-0.5","9zqysdv6o0","","9zqysdv6o0","""2024-11-12T18:43:02.849Z""","null","+","null","","","","","","",""
"","","","","","image-keyboard-response","245","519500","0.0-17.0-0.0-1.5","9zqysdv6o0","","9zqysdv6o0","""2024-11-12T18:43:02.849Z""","1307","materials/imgs/D22.png","arrowright","","[""materials/imgs/D79.png"",""materials/imgs/D8.png""]","false","random","","",""
"","","","","","html-keyboard-response","246","520006","0.0-17.0-0.0-0.6","9zqysdv6o0","","9zqysdv6o0","""2024-11-12T18:43:02.849Z""","null","+","null","","","","","","",""
"","","","","","image-keyboard-response","247","521276","0.0-17.0-0.0-1.6","9zqysdv6o0","","9zqysdv6o0","""2024-11-12T18:43:02.849Z""","1269","materials/imgs/D74.png","arrowleft","","[""materials/imgs/D22.png"",""materials/imgs/D14.png""]","false","random","","",""
"","","","","","html-keyboard-response","248","521786","0.0-17.0-1.0-0.0","9zqysdv6o0","","9zqysdv6o0","""2024-11-12T18:43:02.849Z""","null","+","null","","","","","","",""
"","","","","","image-keyboard-response","249","522668","0.0-17.0-1.0-1.0","9zqysdv6o0","","9zqysdv6o0","""2024-11-12T18:43:02.849Z""","880","materials/imgs/D106.png","arrowleft","","[""materials/imgs/D106.png"",""materials/imgs/D101.png""]","","check","materials/imgs/D106.png","0","true"
"","","","","","html-keyboard-response","250","523183","0.0-17.0-2.0-0.0","9zqysdv6o0","","9zqysdv6o0","""2024-11-12T18:43:02.849Z""","null","+","null","","","","","","",""
"","","","","","image-keyboard-response","251","525604","0.0-17.0-2.0-1.0","9zqysdv6o0","","9zqysdv6o0","""2024-11-12T18:43:02.849Z""","2420","materials/imgs/D22.png","arrowleft","","[""materials/imgs/D4.png"",""materials/imgs/D25.png""]","false","validation","","",""
"","","","","","html-keyboard-response","252","526113","0.0-17.0-2.0-0.1","9zqysdv6o0","","9zqysdv6o0","""2024-11-12T18:43:02.849Z""","null","+","null","","","","","","",""
"","","","","","image-keyboard-response","253","527988","0.0-17.0-2.0-1.1","9zqysdv6o0","","9zqysdv6o0","""2024-11-12T18:43:02.849Z""","1873","materials/imgs/D37.png","arrowright","","[""materials/imgs/D84.png"",""materials/imgs/D111.png""]","false","validation","","",""
"","","","","","html-keyboard-response","254","528494","0.0-17.0-0.1-0.7","9zqysdv6o0","","9zqysdv6o0","""2024-11-12T18:43:02.849Z""","null","+","null","","","","","","",""
"","","","","","image-keyboard-response","255","530553","0.0-17.0-0.1-1.7","9zqysdv6o0","","9zqysdv6o0","""2024-11-12T18:43:02.849Z""","2057","materials/imgs/D34.png","arrowright","","[""materials/imgs/D11.png"",""materials/imgs/D80.png""]","false","random","","",""
"","","","","","html-keyboard-response","256","531068","0.0-17.0-0.1-0.8","9zqysdv6o0","","9zqysdv6o0","""2024-11-12T18:43:02.849Z""","null","+","null","","","","","","",""
"","","","","","image-keyboard-response","257","533892","0.0-17.0-0.1-1.8","9zqysdv6o0","","9zqysdv6o0","""2024-11-12T18:43:02.849Z""","2823","materials/imgs/D20.png","arrowleft","","[""materials/imgs/D83.png"",""materials/imgs/D80.png""]","false","random","","",""
"","","","","","html-keyboard-response","258","534399","0.0-17.0-0.1-0.9","9zqysdv6o0","","9zqysdv6o0","""2024-11-12T18:43:02.849Z""","null","+","null","","","","","","",""
"","","","","","image-keyboard-response","259","536228","0.0-17.0-0.1-1.9","9zqysdv6o0","","9zqysdv6o0","""2024-11-12T18:43:02.849Z""","1827","materials/imgs/D79.png","arrowright","","[""materials/imgs/D65.png"",""materials/imgs/D22.png""]","false","random","","",""
"","","","","","html-keyboard-response","260","536734","0.0-17.0-0.1-0.10","9zqysdv6o0","","9zqysdv6o0","""2024-11-12T18:43:02.849Z""","null","+","null","","","","","","",""
"","","","","","image-keyboard-response","261","540250","0.0-17.0-0.1-1.10","9zqysdv6o0","","9zqysdv6o0","""2024-11-12T18:43:02.849Z""","3515","materials/imgs/D95.png","arrowright","","[""materials/imgs/D79.png"",""materials/imgs/D46.png""]","false","random","","",""
"","","","","","html-keyboard-response","262","540752","0.0-17.0-0.1-0.11","9zqysdv6o0","","9zqysdv6o0","""2024-11-12T18:43:02.849Z""","null","+","null","","","","","","",""
"","","","","","image-keyboard-response","263","542312","0.0-17.0-0.1-1.11","9zqysdv6o0","","9zqysdv6o0","""2024-11-12T18:43:02.849Z""","1557","materials/imgs/D25.png","arrowleft","","[""materials/imgs/D1.png"",""materials/imgs/D92.png""]","false","random","","",""
"","","","","","html-keyboard-response","264","542821","0.0-17.0-0.1-0.12","9zqysdv6o0","","9zqysdv6o0","""2024-11-12T18:43:02.849Z""","null","+","null","","","","","","",""
"","","","","","image-keyboard-response","265","545140","0.0-17.0-0.1-1.12","9zqysdv6o0","","9zqysdv6o0","""2024-11-12T18:43:02.849Z""","2317","materials/imgs/D57.png","arrowright","","[""materials/imgs/D81.png"",""materials/imgs/D85.png""]","false","random","","",""
"","","","","","html-keyboard-response","266","545641","0.0-17.0-0.1-0.13","9zqysdv6o0","","9zqysdv6o0","""2024-11-12T18:43:02.849Z""","null","+","null","","","","","","",""
"","","","","","image-keyboard-response","267","549532","0.0-17.0-0.1-1.13","9zqysdv6o0","","9zqysdv6o0","""2024-11-12T18:43:02.849Z""","3890","materials/imgs/D92.png","arrowleft","","[""materials/imgs/D47.png"",""materials/imgs/D105.png""]","false","random","","",""
"","","","","","html-keyboard-response","268","550040","0.0-17.0-1.1-0.1","9zqysdv6o0","","9zqysdv6o0","""2024-11-12T18:43:02.849Z""","null","+","null","","","","","","",""
"","","","","","image-keyboard-response","269","550658","0.0-17.0-1.1-1.1","9zqysdv6o0","","9zqysdv6o0","""2024-11-12T18:43:02.849Z""","616","materials/imgs/D64.png","arrowleft","","[""materials/imgs/D64.png"",""materials/imgs/D53.png""]","","check","materials/imgs/D64.png","0","true"
"","","","","","html-keyboard-response","270","551159","0.0-17.0-2.1-0.2","9zqysdv6o0","","9zqysdv6o0","""2024-11-12T18:43:02.849Z""","null","+","null","","","","","","",""
"","","","","","image-keyboard-response","271","551891","0.0-17.0-2.1-1.2","9zqysdv6o0","","9zqysdv6o0","""2024-11-12T18:43:02.849Z""","731","materials/imgs/D105.png","arrowleft","","[""materials/imgs/D106.png"",""materials/imgs/D52.png""]","false","validation","","",""
"","","","","","html-keyboard-response","272","552406","0.0-17.0-2.1-0.3","9zqysdv6o0","","9zqysdv6o0","""2024-11-12T18:43:02.849Z""","null","+","null","","","","","","",""
"","","","","","image-keyboard-response","273","554615","0.0-17.0-2.1-1.3","9zqysdv6o0","","9zqysdv6o0","""2024-11-12T18:43:02.849Z""","2208","materials/imgs/D49.png","arrowright","","[""materials/imgs/D8.png"",""materials/imgs/D101.png""]","false","validation","","",""
"","","","","","html-keyboard-response","274","555131","0.0-17.0-0.2-0.14","9zqysdv6o0","","9zqysdv6o0","""2024-11-12T18:43:02.849Z""","null","+","null","","","","","","",""
"","","","","","image-keyboard-response","275","558971","0.0-17.0-0.2-1.14","9zqysdv6o0","","9zqysdv6o0","""2024-11-12T18:43:02.849Z""","3839","materials/imgs/D4.png","arrowleft","","[""materials/imgs/D92.png"",""materials/imgs/D57.png""]","false","random","","",""
"","","","","","html-keyboard-response","276","559483","0.0-17.0-0.2-0.15","9zqysdv6o0","","9zqysdv6o0","""2024-11-12T18:43:02.849Z""","null","+","null","","","","","","",""
"","","","","","image-keyboard-response","277","561419","0.0-17.0-0.2-1.15","9zqysdv6o0","","9zqysdv6o0","""2024-11-12T18:43:02.849Z""","1935","materials/imgs/D75.png","arrowleft","","[""materials/imgs/D24.png"",""materials/imgs/D85.png""]","false","random","","",""
"","","","","","html-keyboard-response","278","561924","0.0-17.0-0.2-0.16","9zqysdv6o0","","9zqysdv6o0","""2024-11-12T18:43:02.849Z""","null","+","null","","","","","","",""
"","","","","","image-keyboard-response","279","564902","0.0-17.0-0.2-1.16","9zqysdv6o0","","9zqysdv6o0","""2024-11-12T18:43:02.849Z""","2977","materials/imgs/D101.png","arrowleft","","[""materials/imgs/D104.png"",""materials/imgs/D37.png""]","false","random","","",""
"","","","","","html-keyboard-response","280","565410","0.0-17.0-0.2-0.17","9zqysdv6o0","","9zqysdv6o0","""2024-11-12T18:43:02.849Z""","null","+","null","","","","","","",""
"","","","","","image-keyboard-response","281","570339","0.0-17.0-0.2-1.17","9zqysdv6o0","","9zqysdv6o0","""2024-11-12T18:43:02.849Z""","4927","materials/imgs/D111.png","arrowleft","","[""materials/imgs/D51.png"",""materials/imgs/D37.png""]","false","random","","",""
"","","","","","html-keyboard-response","282","570846","0.0-17.0-0.2-0.18","9zqysdv6o0","","9zqysdv6o0","""2024-11-12T18:43:02.849Z""","null","+","null","","","","","","",""
"","","","","","image-keyboard-response","283","572412","0.0-17.0-0.2-1.18","9zqysdv6o0","","9zqysdv6o0","""2024-11-12T18:43:02.849Z""","1563","materials/imgs/D36.png","arrowright","","[""materials/imgs/D55.png"",""materials/imgs/D35.png""]","false","random","","",""
"","","","","","html-keyboard-response","284","572917","0.0-17.0-0.2-0.19","9zqysdv6o0","","9zqysdv6o0","""2024-11-12T18:43:02.849Z""","null","+","null","","","","","","",""
"","","","","","image-keyboard-response","285","575057","0.0-17.0-0.2-1.19","9zqysdv6o0","","9zqysdv6o0","""2024-11-12T18:43:02.849Z""","2140","materials/imgs/D55.png","arrowleft","","[""materials/imgs/D29.png"",""materials/imgs/D48.png""]","false","random","","",""
"","","","","","html-keyboard-response","286","575564","0.0-17.0-0.2-0.20","9zqysdv6o0","","9zqysdv6o0","""2024-11-12T18:43:02.849Z""","null","+","null","","","","","","",""
"","","","","","image-keyboard-response","287","577580","0.0-17.0-0.2-1.20","9zqysdv6o0","","9zqysdv6o0","""2024-11-12T18:43:02.849Z""","2014","materials/imgs/D6.png","arrowright","","[""materials/imgs/D37.png"",""materials/imgs/D16.png""]","false","random","","",""
"","","","","","html-keyboard-response","288","578084","0.0-17.0-1.2-0.2","9zqysdv6o0","","9zqysdv6o0","""2024-11-12T18:43:02.849Z""","null","+","null","","","","","","",""
"","","","","","image-keyboard-response","289","579811","0.0-17.0-1.2-1.2","9zqysdv6o0","","9zqysdv6o0","""2024-11-12T18:43:02.849Z""","1726","materials/imgs/D46.png","arrowleft","","[""materials/imgs/D46.png"",""materials/imgs/D26.png""]","","check","materials/imgs/D46.png","0","true"
"","","","","","html-keyboard-response","290","580313","0.0-17.0-2.2-0.4","9zqysdv6o0","","9zqysdv6o0","""2024-11-12T18:43:02.849Z""","null","+","null","","","","","","",""
"","","","","","image-keyboard-response","291","582308","0.0-17.0-2.2-1.4","9zqysdv6o0","","9zqysdv6o0","""2024-11-12T18:43:02.849Z""","1992","materials/imgs/D76.png","arrowleft","","[""materials/imgs/D83.png"",""materials/imgs/D6.png""]","false","validation","","",""
"","","","","","html-keyboard-response","292","582814","0.0-17.0-2.2-0.5","9zqysdv6o0","","9zqysdv6o0","""2024-11-12T18:43:02.849Z""","null","+","null","","","","","","",""
"","","","","","image-keyboard-response","293","584691","0.0-17.0-2.2-1.5","9zqysdv6o0","","9zqysdv6o0","""2024-11-12T18:43:02.849Z""","1876","materials/imgs/D35.png","arrowleft","","[""materials/imgs/D83.png"",""materials/imgs/D24.png""]","false","validation","","",""
"","","","","","html-keyboard-response","294","585196","0.0-17.0-0.3-0.21","9zqysdv6o0","","9zqysdv6o0","""2024-11-12T18:43:02.849Z""","null","+","null","","","","","","",""
"","","","","","image-keyboard-response","295","588015","0.0-17.0-0.3-1.21","9zqysdv6o0","","9zqysdv6o0","""2024-11-12T18:43:02.849Z""","2817","materials/imgs/D35.png","arrowright","","[""materials/imgs/D80.png"",""materials/imgs/D102.png""]","false","random","","",""
"","","","","","html-keyboard-response","296","588530","0.0-17.0-0.3-0.22","9zqysdv6o0","","9zqysdv6o0","""2024-11-12T18:43:02.849Z""","null","+","null","","","","","","",""
"","","","","","image-keyboard-response","297","591396","0.0-17.0-0.3-1.22","9zqysdv6o0","","9zqysdv6o0","""2024-11-12T18:43:02.849Z""","2864","materials/imgs/D56.png","arrowleft","","[""materials/imgs/D102.png"",""materials/imgs/D66.png""]","false","random","","",""
"","","","","","html-keyboard-response","298","591910","0.0-17.0-0.3-0.23","9zqysdv6o0","","9zqysdv6o0","""2024-11-12T18:43:02.849Z""","null","+","null","","","","","","",""
"","","","","","image-keyboard-response","299","594083","0.0-17.0-0.3-1.23","9zqysdv6o0","","9zqysdv6o0","""2024-11-12T18:43:02.849Z""","2171","materials/imgs/D34.png","arrowleft","","[""materials/imgs/D29.png"",""materials/imgs/D16.png""]","false","random","","",""
"","","","","","html-keyboard-response","300","594590","0.0-17.0-0.3-0.24","9zqysdv6o0","","9zqysdv6o0","""2024-11-12T18:43:02.849Z""","null","+","null","","","","","","",""
"","","","","","image-keyboard-response","301","596530","0.0-17.0-0.3-1.24","9zqysdv6o0","","9zqysdv6o0","""2024-11-12T18:43:02.849Z""","1938","materials/imgs/D25.png","arrowright","","[""materials/imgs/D83.png"",""materials/imgs/D24.png""]","false","random","","",""
"","","","","","html-keyboard-response","302","597034","0.0-17.0-0.3-0.25","9zqysdv6o0","","9zqysdv6o0","""2024-11-12T18:43:02.849Z""","null","+","null","","","","","","",""
"","","","","","image-keyboard-response","303","600535","0.0-17.0-0.3-1.25","9zqysdv6o0","","9zqysdv6o0","""2024-11-12T18:43:02.849Z""","3500","materials/imgs/D85.png","arrowleft","","[""materials/imgs/D64.png"",""materials/imgs/D111.png""]","false","random","","",""
"","","","","","html-keyboard-response","304","601041","0.0-17.0-0.3-0.26","9zqysdv6o0","","9zqysdv6o0","""2024-11-12T18:43:02.849Z""","null","+","null","","","","","","",""
"","","","","","image-keyboard-response","305","602803","0.0-17.0-0.3-1.26","9zqysdv6o0","","9zqysdv6o0","""2024-11-12T18:43:02.849Z""","1760","materials/imgs/D17.png","arrowleft","","[""materials/imgs/D105.png"",""materials/imgs/D46.png""]","false","random","","",""
"","","","","","html-keyboard-response","306","603314","0.0-17.0-0.3-0.27","9zqysdv6o0","","9zqysdv6o0","""2024-11-12T18:43:02.849Z""","null","+","null","","","","","","",""
"","","","","","image-keyboard-response","307","604812","0.0-17.0-0.3-1.27","9zqysdv6o0","","9zqysdv6o0","""2024-11-12T18:43:02.849Z""","1496","materials/imgs/D35.png","arrowleft","","[""materials/imgs/D101.png"",""materials/imgs/D16.png""]","false","random","","",""
"","","","","","html-keyboard-response","308","605326","0.0-17.0-1.3-0.3","9zqysdv6o0","","9zqysdv6o0","""2024-11-12T18:43:02.849Z""","null","+","null","","","","","","",""
"","","","","","image-keyboard-response","309","606191","0.0-17.0-1.3-1.3","9zqysdv6o0","","9zqysdv6o0","""2024-11-12T18:43:02.849Z""","864","materials/imgs/D76.png","arrowleft","","[""materials/imgs/D76.png"",""materials/imgs/D78.png""]","","check","materials/imgs/D76.png","0","true"
"","","","","","html-keyboard-response","310","606699","0.0-17.0-2.3-0.6","9zqysdv6o0","","9zqysdv6o0","""2024-11-12T18:43:02.849Z""","null","+","null","","","","","","",""
"","","","","","image-keyboard-response","311","608323","0.0-17.0-2.3-1.6","9zqysdv6o0","","9zqysdv6o0","""2024-11-12T18:43:02.849Z""","1622","materials/imgs/D25.png","arrowright","","[""materials/imgs/D103.png"",""materials/imgs/D64.png""]","false","validation","","",""
"","","","","","html-keyboard-response","312","608835","0.0-17.0-2.3-0.7","9zqysdv6o0","","9zqysdv6o0","""2024-11-12T18:43:02.849Z""","null","+","null","","","","","","",""
"","","","","","image-keyboard-response","313","610566","0.0-17.0-2.3-1.7","9zqysdv6o0","","9zqysdv6o0","""2024-11-12T18:43:02.849Z""","1731","materials/imgs/D3.png","arrowright","","[""materials/imgs/D79.png"",""materials/imgs/D48.png""]","false","validation","","",""
"","","","","","html-keyboard-response","314","611077","0.0-17.0-0.4-0.28","9zqysdv6o0","","9zqysdv6o0","""2024-11-12T18:43:02.849Z""","null","+","null","","","","","","",""
"","","","","","image-keyboard-response","315","613522","0.0-17.0-0.4-1.28","9zqysdv6o0","","9zqysdv6o0","""2024-11-12T18:43:02.849Z""","2443","materials/imgs/D79.png","arrowright","","[""materials/imgs/D95.png"",""materials/imgs/D80.png""]","false","random","","",""
"","","","","","html-keyboard-response","316","614025","0.0-17.0-0.4-0.29","9zqysdv6o0","","9zqysdv6o0","""2024-11-12T18:43:02.849Z""","null","+","null","","","","","","",""
"","","","","","image-keyboard-response","317","616962","0.0-17.0-0.4-1.29","9zqysdv6o0","","9zqysdv6o0","""2024-11-12T18:43:02.849Z""","2936","materials/imgs/D35.png","arrowleft","","[""materials/imgs/D47.png"",""materials/imgs/D95.png""]","false","random","","",""
"","","","","","html-keyboard-response","318","617465","0.0-17.0-0.4-0.30","9zqysdv6o0","","9zqysdv6o0","""2024-11-12T18:43:02.849Z""","null","+","null","","","","","","",""
"","","","","","image-keyboard-response","319","630363","0.0-17.0-0.4-1.30","9zqysdv6o0","","9zqysdv6o0","""2024-11-12T18:43:02.849Z""","12897","materials/imgs/D48.png","arrowright","","[""materials/imgs/D11.png"",""materials/imgs/D29.png""]","false","random","","",""
"","","","","","html-keyboard-response","320","630877","0.0-17.0-0.4-0.31","9zqysdv6o0","","9zqysdv6o0","""2024-11-12T18:43:02.849Z""","null","+","null","","","","","","",""
"","","","","","image-keyboard-response","321","632922","0.0-17.0-0.4-1.31","9zqysdv6o0","","9zqysdv6o0","""2024-11-12T18:43:02.849Z""","2044","materials/imgs/D66.png","arrowright","","[""materials/imgs/D29.png"",""materials/imgs/D14.png""]","false","random","","",""
"","","","","","html-keyboard-response","322","633430","0.0-17.0-0.4-0.32","9zqysdv6o0","","9zqysdv6o0","""2024-11-12T18:43:02.849Z""","null","+","null","","","","","","",""
"","","","","","image-keyboard-response","323","634996","0.0-17.0-0.4-1.32","9zqysdv6o0","","9zqysdv6o0","""2024-11-12T18:43:02.849Z""","1564","materials/imgs/D78.png","arrowleft","","[""materials/imgs/D64.png"",""materials/imgs/D66.png""]","false","random","","",""
"","","","","","html-keyboard-response","324","635504","0.0-17.0-0.4-0.33","9zqysdv6o0","","9zqysdv6o0","""2024-11-12T18:43:02.849Z""","null","+","null","","","","","","",""
"","","","","","image-keyboard-response","325","637022","0.0-17.0-0.4-1.33","9zqysdv6o0","","9zqysdv6o0","""2024-11-12T18:43:02.849Z""","1516","materials/imgs/D75.png","arrowright","","[""materials/imgs/D16.png"",""materials/imgs/D76.png""]","false","random","","",""
"","","","","","html-keyboard-response","326","637533","0.0-17.0-0.4-0.34","9zqysdv6o0","","9zqysdv6o0","""2024-11-12T18:43:02.849Z""","null","+","null","","","","","","",""
"","","","","","image-keyboard-response","327","643891","0.0-17.0-0.4-1.34","9zqysdv6o0","","9zqysdv6o0","""2024-11-12T18:43:02.849Z""","6357","materials/imgs/D78.png","arrowright","","[""materials/imgs/D47.png"",""materials/imgs/D76.png""]","false","random","","",""
"","","","","","html-keyboard-response","328","644404","0.0-17.0-1.4-0.4","9zqysdv6o0","","9zqysdv6o0","""2024-11-12T18:43:02.849Z""","null","+","null","","","","","","",""
"","","","","","image-keyboard-response","329","645202","0.0-17.0-1.4-1.4","9zqysdv6o0","","9zqysdv6o0","""2024-11-12T18:43:02.849Z""","798","materials/imgs/D106.png","arrowleft","","[""materials/imgs/D106.png"",""materials/imgs/D101.png""]","","check","materials/imgs/D106.png","0","true"
"","","","","","html-keyboard-response","330","645710","0.0-17.0-2.4-0.8","9zqysdv6o0","","9zqysdv6o0","""2024-11-12T18:43:02.849Z""","null","+","null","","","","","","",""
"","","","","","image-keyboard-response","331","648314","0.0-17.0-2.4-1.8","9zqysdv6o0","","9zqysdv6o0","""2024-11-12T18:43:02.849Z""","2602","materials/imgs/D49.png","arrowright","","[""materials/imgs/D8.png"",""materials/imgs/D101.png""]","false","validation","","",""
"","","","","","html-keyboard-response","332","648822","0.0-17.0-2.4-0.9","9zqysdv6o0","","9zqysdv6o0","""2024-11-12T18:43:02.849Z""","null","+","null","","","","","","",""
"","","","","","image-keyboard-response","333","649682","0.0-17.0-2.4-1.9","9zqysdv6o0","","9zqysdv6o0","""2024-11-12T18:43:02.849Z""","860","materials/imgs/D105.png","arrowleft","","[""materials/imgs/D106.png"",""materials/imgs/D52.png""]","false","validation","","",""
"","","","","","html-button-response","334","652271","0.0-18.0","9zqysdv6o0","","9zqysdv6o0","""2024-11-12T18:43:02.849Z""","2588","You have completed 75% of the trials. Please click 'Continue' when you are ready proceed.","0","","","","","","",""
"","","","","","html-keyboard-response","335","652786","0.0-19.0-0.0-0.0","9zqysdv6o0","","9zqysdv6o0","""2024-11-12T18:43:02.849Z""","null","+","null","","","","","","",""
"","","","","","image-keyboard-response","336","655991","0.0-19.0-0.0-1.0","9zqysdv6o0","","9zqysdv6o0","""2024-11-12T18:43:02.849Z""","3204","materials/imgs/D9.png","arrowleft","","[""materials/imgs/D95.png"",""materials/imgs/D94.png""]","false","random","","",""
"","","","","","html-keyboard-response","337","656493","0.0-19.0-0.0-0.1","9zqysdv6o0","","9zqysdv6o0","""2024-11-12T18:43:02.849Z""","null","+","null","","","","","","",""
"","","","","","image-keyboard-response","338","658963","0.0-19.0-0.0-1.1","9zqysdv6o0","","9zqysdv6o0","""2024-11-12T18:43:02.849Z""","2469","materials/imgs/D76.png","arrowright","","[""materials/imgs/D75.png"",""materials/imgs/D64.png""]","false","random","","",""
"","","","","","html-keyboard-response","339","659475","0.0-19.0-0.0-0.2","9zqysdv6o0","","9zqysdv6o0","""2024-11-12T18:43:02.849Z""","null","+","null","","","","","","",""
"","","","","","image-keyboard-response","340","660467","0.0-19.0-0.0-1.2","9zqysdv6o0","","9zqysdv6o0","""2024-11-12T18:43:02.849Z""","990","materials/imgs/D56.png","arrowright","","[""materials/imgs/D35.png"",""materials/imgs/D64.png""]","false","random","","",""
"","","","","","html-keyboard-response","341","660972","0.0-19.0-0.0-0.3","9zqysdv6o0","","9zqysdv6o0","""2024-11-12T18:43:02.849Z""","null","+","null","","","","","","",""
"","","","","","image-keyboard-response","342","664131","0.0-19.0-0.0-1.3","9zqysdv6o0","","9zqysdv6o0","""2024-11-12T18:43:02.849Z""","3158","materials/imgs/D25.png","arrowleft","","[""materials/imgs/D37.png"",""materials/imgs/D85.png""]","false","random","","",""
"","","","","","html-keyboard-response","343","664641","0.0-19.0-0.0-0.4","9zqysdv6o0","","9zqysdv6o0","""2024-11-12T18:43:02.849Z""","null","+","null","","","","","","",""
"","","","","","image-keyboard-response","344","666079","0.0-19.0-0.0-1.4","9zqysdv6o0","","9zqysdv6o0","""2024-11-12T18:43:02.849Z""","1437","materials/imgs/D77.png","arrowright","","[""materials/imgs/D48.png"",""materials/imgs/D32.png""]","false","random","","",""
"","","","","","html-keyboard-response","345","666584","0.0-19.0-0.0-0.5","9zqysdv6o0","","9zqysdv6o0","""2024-11-12T18:43:02.849Z""","null","+","null","","","","","","",""
"","","","","","image-keyboard-response","346","668081","0.0-19.0-0.0-1.5","9zqysdv6o0","","9zqysdv6o0","""2024-11-12T18:43:02.849Z""","1496","materials/imgs/D11.png","arrowleft","","[""materials/imgs/D78.png"",""materials/imgs/D22.png""]","false","random","","",""
"","","","","","html-keyboard-response","347","668597","0.0-19.0-0.0-0.6","9zqysdv6o0","","9zqysdv6o0","""2024-11-12T18:43:02.849Z""","null","+","null","","","","","","",""
"","","","","","image-keyboard-response","348","673922","0.0-19.0-0.0-1.6","9zqysdv6o0","","9zqysdv6o0","""2024-11-12T18:43:02.849Z""","5323","materials/imgs/D21.png","arrowleft","","[""materials/imgs/D36.png"",""materials/imgs/D66.png""]","false","random","","",""
"","","","","","html-keyboard-response","349","674428","0.0-19.0-1.0-0.0","9zqysdv6o0","","9zqysdv6o0","""2024-11-12T18:43:02.849Z""","null","+","null","","","","","","",""
"","","","","","image-keyboard-response","350","675435","0.0-19.0-1.0-1.0","9zqysdv6o0","","9zqysdv6o0","""2024-11-12T18:43:02.849Z""","1004","materials/imgs/D46.png","arrowleft","","[""materials/imgs/D46.png"",""materials/imgs/D26.png""]","","check","materials/imgs/D46.png","0","true"
"","","","","","html-keyboard-response","351","675941","0.0-19.0-2.0-0.0","9zqysdv6o0","","9zqysdv6o0","""2024-11-12T18:43:02.849Z""","null","+","null","","","","","","",""
"","","","","","image-keyboard-response","352","678308","0.0-19.0-2.0-1.0","9zqysdv6o0","","9zqysdv6o0","""2024-11-12T18:43:02.849Z""","2366","materials/imgs/D19.png","arrowleft","","[""materials/imgs/D111.png"",""materials/imgs/D56.png""]","false","validation","","",""
"","","","","","html-keyboard-response","353","678823","0.0-19.0-2.0-0.1","9zqysdv6o0","","9zqysdv6o0","""2024-11-12T18:43:02.849Z""","null","+","null","","","","","","",""
"","","","","","image-keyboard-response","354","681378","0.0-19.0-2.0-1.1","9zqysdv6o0","","9zqysdv6o0","""2024-11-12T18:43:02.849Z""","2554","materials/imgs/D22.png","arrowleft","","[""materials/imgs/D4.png"",""materials/imgs/D25.png""]","false","validation","","",""
"","","","","","html-keyboard-response","355","681881","0.0-19.0-0.1-0.7","9zqysdv6o0","","9zqysdv6o0","""2024-11-12T18:43:02.849Z""","null","+","null","","","","","","",""
"","","","","","image-keyboard-response","356","683187","0.0-19.0-0.1-1.7","9zqysdv6o0","","9zqysdv6o0","""2024-11-12T18:43:02.849Z""","1304","materials/imgs/D8.png","arrowleft","","[""materials/imgs/D9.png"",""materials/imgs/D96.png""]","false","random","","",""
"","","","","","html-keyboard-response","357","683701","0.0-19.0-0.1-0.8","9zqysdv6o0","","9zqysdv6o0","""2024-11-12T18:43:02.849Z""","null","+","null","","","","","","",""
"","","","","","image-keyboard-response","358","686139","0.0-19.0-0.1-1.8","9zqysdv6o0","","9zqysdv6o0","""2024-11-12T18:43:02.849Z""","2436","materials/imgs/D34.png","arrowleft","","[""materials/imgs/D92.png"",""materials/imgs/D95.png""]","false","random","","",""
"","","","","","html-keyboard-response","359","686652","0.0-19.0-0.1-0.9","9zqysdv6o0","","9zqysdv6o0","""2024-11-12T18:43:02.849Z""","null","+","null","","","","","","",""
"","","","","","image-keyboard-response","360","688584","0.0-19.0-0.1-1.9","9zqysdv6o0","","9zqysdv6o0","""2024-11-12T18:43:02.849Z""","1924","materials/imgs/D105.png","arrowleft","","[""materials/imgs/D52.png"",""materials/imgs/D4.png""]","false","random","","",""
"","","","","","html-keyboard-response","361","689085","0.0-19.0-0.1-0.10","9zqysdv6o0","","9zqysdv6o0","""2024-11-12T18:43:02.849Z""","null","+","null","","","","","","",""
"","","","","","image-keyboard-response","362","691251","0.0-19.0-0.1-1.10","9zqysdv6o0","","9zqysdv6o0","""2024-11-12T18:43:02.849Z""","2164","materials/imgs/D95.png","arrowleft","","[""materials/imgs/D35.png"",""materials/imgs/D83.png""]","false","random","","",""
"","","","","","html-keyboard-response","363","691759","0.0-19.0-0.1-0.11","9zqysdv6o0","","9zqysdv6o0","""2024-11-12T18:43:02.849Z""","null","+","null","","","","","","",""
"","","","","","image-keyboard-response","364","694019","0.0-19.0-0.1-1.11","9zqysdv6o0","","9zqysdv6o0","""2024-11-12T18:43:02.849Z""","2258","materials/imgs/D74.png","arrowleft","","[""materials/imgs/D6.png"",""materials/imgs/D77.png""]","false","random","","",""
"","","","","","html-keyboard-response","365","694529","0.0-19.0-0.1-0.12","9zqysdv6o0","","9zqysdv6o0","""2024-11-12T18:43:02.849Z""","null","+","null","","","","","","",""
"","","","","","image-keyboard-response","366","696147","0.0-19.0-0.1-1.12","9zqysdv6o0","","9zqysdv6o0","""2024-11-12T18:43:02.849Z""","1616","materials/imgs/D68.png","arrowright","","[""materials/imgs/D21.png"",""materials/imgs/D17.png""]","false","random","","",""
"","","","","","html-keyboard-response","367","696650","0.0-19.0-0.1-0.13","9zqysdv6o0","","9zqysdv6o0","""2024-11-12T18:43:02.849Z""","null","+","null","","","","","","",""
"","","","","","image-keyboard-response","368","697605","0.0-19.0-0.1-1.13","9zqysdv6o0","","9zqysdv6o0","""2024-11-12T18:43:02.849Z""","953","materials/imgs/D9.png","arrowleft","","[""materials/imgs/D4.png"",""materials/imgs/D77.png""]","false","random","","",""
"","","","","","html-keyboard-response","369","698115","0.0-19.0-1.1-0.1","9zqysdv6o0","","9zqysdv6o0","""2024-11-12T18:43:02.849Z""","null","+","null","","","","","","",""
"","","","","","image-keyboard-response","370","698757","0.0-19.0-1.1-1.1","9zqysdv6o0","","9zqysdv6o0","""2024-11-12T18:43:02.849Z""","642","materials/imgs/D64.png","arrowleft","","[""materials/imgs/D64.png"",""materials/imgs/D53.png""]","","check","materials/imgs/D64.png","0","true"
"","","","","","html-keyboard-response","371","699264","0.0-19.0-2.1-0.2","9zqysdv6o0","","9zqysdv6o0","""2024-11-12T18:43:02.849Z""","null","+","null","","","","","","",""
"","","","","","image-keyboard-response","372","701523","0.0-19.0-2.1-1.2","9zqysdv6o0","","9zqysdv6o0","""2024-11-12T18:43:02.849Z""","2258","materials/imgs/D75.png","arrowright","","[""materials/imgs/D96.png"",""materials/imgs/D4.png""]","false","validation","","",""
"","","","","","html-keyboard-response","373","702036","0.0-19.0-2.1-0.3","9zqysdv6o0","","9zqysdv6o0","""2024-11-12T18:43:02.849Z""","null","+","null","","","","","","",""
"","","","","","image-keyboard-response","374","705611","0.0-19.0-2.1-1.3","9zqysdv6o0","","9zqysdv6o0","""2024-11-12T18:43:02.849Z""","3573","materials/imgs/D103.png","arrowleft","","[""materials/imgs/D76.png"",""materials/imgs/D106.png""]","false","validation","","",""
"","","","","","html-keyboard-response","375","706116","0.0-19.0-0.2-0.14","9zqysdv6o0","","9zqysdv6o0","""2024-11-12T18:43:02.849Z""","null","+","null","","","","","","",""
"","","","","","image-keyboard-response","376","707722","0.0-19.0-0.2-1.14","9zqysdv6o0","","9zqysdv6o0","""2024-11-12T18:43:02.849Z""","1605","materials/imgs/D102.png","arrowright","","[""materials/imgs/D82.png"",""materials/imgs/D74.png""]","false","random","","",""
"","","","","","html-keyboard-response","377","708233","0.0-19.0-0.2-0.15","9zqysdv6o0","","9zqysdv6o0","""2024-11-12T18:43:02.849Z""","null","+","null","","","","","","",""
"","","","","","image-keyboard-response","378","713023","0.0-19.0-0.2-1.15","9zqysdv6o0","","9zqysdv6o0","""2024-11-12T18:43:02.849Z""","4788","materials/imgs/D32.png","arrowright","","[""materials/imgs/D21.png"",""materials/imgs/D53.png""]","false","random","","",""
"","","","","","html-keyboard-response","379","713530","0.0-19.0-0.2-0.16","9zqysdv6o0","","9zqysdv6o0","""2024-11-12T18:43:02.849Z""","null","+","null","","","","","","",""
"","","","","","image-keyboard-response","380","715034","0.0-19.0-0.2-1.16","9zqysdv6o0","","9zqysdv6o0","""2024-11-12T18:43:02.849Z""","1502","materials/imgs/D36.png","arrowleft","","[""materials/imgs/D87.png"",""materials/imgs/D17.png""]","false","random","","",""
"","","","","","html-keyboard-response","381","715548","0.0-19.0-0.2-0.17","9zqysdv6o0","","9zqysdv6o0","""2024-11-12T18:43:02.849Z""","null","+","null","","","","","","",""
"","","","","","image-keyboard-response","382","718898","0.0-19.0-0.2-1.17","9zqysdv6o0","","9zqysdv6o0","""2024-11-12T18:43:02.849Z""","3350","materials/imgs/D96.png","arrowleft","","[""materials/imgs/D104.png"",""materials/imgs/D18.png""]","false","random","","",""
"","","","","","html-keyboard-response","383","719404","0.0-19.0-0.2-0.18","9zqysdv6o0","","9zqysdv6o0","""2024-11-12T18:43:02.849Z""","null","+","null","","","","","","",""
"","","","","","image-keyboard-response","384","724590","0.0-19.0-0.2-1.18","9zqysdv6o0","","9zqysdv6o0","""2024-11-12T18:43:02.849Z""","5185","materials/imgs/D83.png","arrowright","","[""materials/imgs/D22.png"",""materials/imgs/D102.png""]","false","random","","",""
"","","","","","html-keyboard-response","385","725091","0.0-19.0-0.2-0.19","9zqysdv6o0","","9zqysdv6o0","""2024-11-12T18:43:02.849Z""","null","+","null","","","","","","",""
"","","","","","image-keyboard-response","386","729994","0.0-19.0-0.2-1.19","9zqysdv6o0","","9zqysdv6o0","""2024-11-12T18:43:02.849Z""","4902","materials/imgs/D6.png","arrowleft","","[""materials/imgs/D68.png"",""materials/imgs/D18.png""]","false","random","","",""
"","","","","","html-keyboard-response","387","730495","0.0-19.0-0.2-0.20","9zqysdv6o0","","9zqysdv6o0","""2024-11-12T18:43:02.849Z""","null","+","null","","","","","","",""
"","","","","","image-keyboard-response","388","733179","0.0-19.0-0.2-1.20","9zqysdv6o0","","9zqysdv6o0","""2024-11-12T18:43:02.849Z""","2682","materials/imgs/D51.png","arrowright","","[""materials/imgs/D96.png"",""materials/imgs/D3.png""]","false","random","","",""
"","","","","","html-keyboard-response","389","733688","0.0-19.0-1.2-0.2","9zqysdv6o0","","9zqysdv6o0","""2024-11-12T18:43:02.849Z""","null","+","null","","","","","","",""
"","","","","","image-keyboard-response","390","734596","0.0-19.0-1.2-1.2","9zqysdv6o0","","9zqysdv6o0","""2024-11-12T18:43:02.849Z""","906","materials/imgs/D53.png","arrowright","","[""materials/imgs/D64.png"",""materials/imgs/D53.png""]","","check","materials/imgs/D53.png","1","true"
"","","","","","html-keyboard-response","391","735109","0.0-19.0-2.2-0.4","9zqysdv6o0","","9zqysdv6o0","""2024-11-12T18:43:02.849Z""","null","+","null","","","","","","",""
"","","","","","image-keyboard-response","392","739859","0.0-19.0-2.2-1.4","9zqysdv6o0","","9zqysdv6o0","""2024-11-12T18:43:02.849Z""","4749","materials/imgs/D18.png","arrowleft","","[""materials/imgs/D32.png"",""materials/imgs/D57.png""]","false","validation","","",""
"","","","","","html-keyboard-response","393","740375","0.0-19.0-2.2-0.5","9zqysdv6o0","","9zqysdv6o0","""2024-11-12T18:43:02.849Z""","null","+","null","","","","","","",""
"","","","","","image-keyboard-response","394","741684","0.0-19.0-2.2-1.5","9zqysdv6o0","","9zqysdv6o0","""2024-11-12T18:43:02.849Z""","1307","materials/imgs/D11.png","arrowleft","","[""materials/imgs/D83.png"",""materials/imgs/D48.png""]","false","validation","","",""
"","","","","","html-keyboard-response","395","742193","0.0-19.0-0.3-0.21","9zqysdv6o0","","9zqysdv6o0","""2024-11-12T18:43:02.849Z""","null","+","null","","","","","","",""
"","","","","","image-keyboard-response","396","743883","0.0-19.0-0.3-1.21","9zqysdv6o0","","9zqysdv6o0","""2024-11-12T18:43:02.849Z""","1689","materials/imgs/D48.png","arrowright","","[""materials/imgs/D25.png"",""materials/imgs/D77.png""]","false","random","","",""
"","","","","","html-keyboard-response","397","744390","0.0-19.0-0.3-0.22","9zqysdv6o0","","9zqysdv6o0","""2024-11-12T18:43:02.849Z""","null","+","null","","","","","","",""
"","","","","","image-keyboard-response","398","748139","0.0-19.0-0.3-1.22","9zqysdv6o0","","9zqysdv6o0","""2024-11-12T18:43:02.849Z""","3748","materials/imgs/D83.png","arrowleft","","[""materials/imgs/D21.png"",""materials/imgs/D35.png""]","false","random","","",""
"","","","","","html-keyboard-response","399","748654","0.0-19.0-0.3-0.23","9zqysdv6o0","","9zqysdv6o0","""2024-11-12T18:43:02.849Z""","null","+","null","","","","","","",""
"","","","","","image-keyboard-response","400","751828","0.0-19.0-0.3-1.23","9zqysdv6o0","","9zqysdv6o0","""2024-11-12T18:43:02.849Z""","3172","materials/imgs/D94.png","arrowleft","","[""materials/imgs/D55.png"",""materials/imgs/D14.png""]","false","random","","",""
"","","","","","html-keyboard-response","401","752341","0.0-19.0-0.3-0.24","9zqysdv6o0","","9zqysdv6o0","""2024-11-12T18:43:02.849Z""","null","+","null","","","","","","",""
"","","","","","image-keyboard-response","402","755075","0.0-19.0-0.3-1.24","9zqysdv6o0","","9zqysdv6o0","""2024-11-12T18:43:02.849Z""","2733","materials/imgs/D35.png","arrowleft","","[""materials/imgs/D21.png"",""materials/imgs/D46.png""]","false","random","","",""
"","","","","","html-keyboard-response","403","755584","0.0-19.0-0.3-0.25","9zqysdv6o0","","9zqysdv6o0","""2024-11-12T18:43:02.849Z""","null","+","null","","","","","","",""
"","","","","","image-keyboard-response","404","758315","0.0-19.0-0.3-1.25","9zqysdv6o0","","9zqysdv6o0","""2024-11-12T18:43:02.849Z""","2730","materials/imgs/D103.png","arrowright","","[""materials/imgs/D25.png"",""materials/imgs/D102.png""]","false","random","","",""
"","","","","","html-keyboard-response","405","758820","0.0-19.0-0.3-0.26","9zqysdv6o0","","9zqysdv6o0","""2024-11-12T18:43:02.849Z""","null","+","null","","","","","","",""
"","","","","","image-keyboard-response","406","760059","0.0-19.0-0.3-1.26","9zqysdv6o0","","9zqysdv6o0","""2024-11-12T18:43:02.849Z""","1237","materials/imgs/D52.png","arrowright","","[""materials/imgs/D64.png"",""materials/imgs/D77.png""]","false","random","","",""
"","","","","","html-keyboard-response","407","760568","0.0-19.0-0.3-0.27","9zqysdv6o0","","9zqysdv6o0","""2024-11-12T18:43:02.849Z""","null","+","null","","","","","","",""
"","","","","","image-keyboard-response","408","762575","0.0-19.0-0.3-1.27","9zqysdv6o0","","9zqysdv6o0","""2024-11-12T18:43:02.849Z""","2005","materials/imgs/D6.png","arrowright","","[""materials/imgs/D32.png"",""materials/imgs/D1.png""]","false","random","","",""
"","","","","","html-keyboard-response","409","763087","0.0-19.0-1.3-0.3","9zqysdv6o0","","9zqysdv6o0","""2024-11-12T18:43:02.849Z""","null","+","null","","","","","","",""
"","","","","","image-keyboard-response","410","763954","0.0-19.0-1.3-1.3","9zqysdv6o0","","9zqysdv6o0","""2024-11-12T18:43:02.849Z""","865","materials/imgs/D76.png","arrowleft","","[""materials/imgs/D76.png"",""materials/imgs/D78.png""]","","check","materials/imgs/D76.png","0","true"
"","","","","","html-keyboard-response","411","764468","0.0-19.0-2.3-0.6","9zqysdv6o0","","9zqysdv6o0","""2024-11-12T18:43:02.849Z""","null","+","null","","","","","","",""
"","","","","","image-keyboard-response","412","765468","0.0-19.0-2.3-1.6","9zqysdv6o0","","9zqysdv6o0","""2024-11-12T18:43:02.849Z""","999","materials/imgs/D57.png","arrowright","","[""materials/imgs/D111.png"",""materials/imgs/D4.png""]","false","validation","","",""
"","","","","","html-keyboard-response","413","765980","0.0-19.0-2.3-0.7","9zqysdv6o0","","9zqysdv6o0","""2024-11-12T18:43:02.849Z""","null","+","null","","","","","","",""
"","","","","","image-keyboard-response","414","768955","0.0-19.0-2.3-1.7","9zqysdv6o0","","9zqysdv6o0","""2024-11-12T18:43:02.849Z""","2973","materials/imgs/D26.png","arrowleft","","[""materials/imgs/D36.png"",""materials/imgs/D92.png""]","false","validation","","",""
"","","","","","html-keyboard-response","415","769456","0.0-19.0-0.4-0.28","9zqysdv6o0","","9zqysdv6o0","""2024-11-12T18:43:02.849Z""","null","+","null","","","","","","",""
"","","","","","image-keyboard-response","416","771091","0.0-19.0-0.4-1.28","9zqysdv6o0","","9zqysdv6o0","""2024-11-12T18:43:02.849Z""","1634","materials/imgs/D74.png","arrowleft","","[""materials/imgs/D22.png"",""materials/imgs/D92.png""]","false","random","","",""
"","","","","","html-keyboard-response","417","771606","0.0-19.0-0.4-0.29","9zqysdv6o0","","9zqysdv6o0","""2024-11-12T18:43:02.849Z""","null","+","null","","","","","","",""
"","","","","","image-keyboard-response","418","774591","0.0-19.0-0.4-1.29","9zqysdv6o0","","9zqysdv6o0","""2024-11-12T18:43:02.849Z""","2983","materials/imgs/D80.png","arrowleft","","[""materials/imgs/D37.png"",""materials/imgs/D105.png""]","false","random","","",""
"","","","","","html-keyboard-response","419","775099","0.0-19.0-0.4-0.30","9zqysdv6o0","","9zqysdv6o0","""2024-11-12T18:43:02.849Z""","null","+","null","","","","","","",""
"","","","","","image-keyboard-response","420","778098","0.0-19.0-0.4-1.30","9zqysdv6o0","","9zqysdv6o0","""2024-11-12T18:43:02.849Z""","2997","materials/imgs/D55.png","arrowright","","[""materials/imgs/D75.png"",""materials/imgs/D85.png""]","false","random","","",""
"","","","","","html-keyboard-response","421","778604","0.0-19.0-0.4-0.31","9zqysdv6o0","","9zqysdv6o0","""2024-11-12T18:43:02.849Z""","null","+","null","","","","","","",""
"","","","","","image-keyboard-response","422","781033","0.0-19.0-0.4-1.31","9zqysdv6o0","","9zqysdv6o0","""2024-11-12T18:43:02.849Z""","2428","materials/imgs/D68.png","arrowleft","","[""materials/imgs/D56.png"",""materials/imgs/D26.png""]","false","random","","",""
"","","","","","html-keyboard-response","423","781549","0.0-19.0-0.4-0.32","9zqysdv6o0","","9zqysdv6o0","""2024-11-12T18:43:02.849Z""","null","+","null","","","","","","",""
"","","","","","image-keyboard-response","424","783426","0.0-19.0-0.4-1.32","9zqysdv6o0","","9zqysdv6o0","""2024-11-12T18:43:02.849Z""","1875","materials/imgs/D101.png","arrowright","","[""materials/imgs/D106.png"",""materials/imgs/D102.png""]","false","random","","",""
"","","","","","html-keyboard-response","425","783935","0.0-19.0-0.4-0.33","9zqysdv6o0","","9zqysdv6o0","""2024-11-12T18:43:02.849Z""","null","+","null","","","","","","",""
"","","","","","image-keyboard-response","426","785409","0.0-19.0-0.4-1.33","9zqysdv6o0","","9zqysdv6o0","""2024-11-12T18:43:02.849Z""","1472","materials/imgs/D53.png","arrowright","","[""materials/imgs/D18.png"",""materials/imgs/D103.png""]","false","random","","",""
"","","","","","html-keyboard-response","427","785914","0.0-19.0-0.4-0.34","9zqysdv6o0","","9zqysdv6o0","""2024-11-12T18:43:02.849Z""","null","+","null","","","","","","",""
"","","","","","image-keyboard-response","428","787634","0.0-19.0-0.4-1.34","9zqysdv6o0","","9zqysdv6o0","""2024-11-12T18:43:02.849Z""","1718","materials/imgs/D52.png","arrowleft","","[""materials/imgs/D65.png"",""materials/imgs/D21.png""]","false","random","","",""
"","","","","","html-keyboard-response","429","788139","0.0-19.0-1.4-0.4","9zqysdv6o0","","9zqysdv6o0","""2024-11-12T18:43:02.849Z""","null","+","null","","","","","","",""
"","","","","","image-keyboard-response","430","789114","0.0-19.0-1.4-1.4","9zqysdv6o0","","9zqysdv6o0","""2024-11-12T18:43:02.849Z""","974","materials/imgs/D18.png","arrowright","","[""materials/imgs/D8.png"",""materials/imgs/D18.png""]","","check","materials/imgs/D18.png","1","true"
"","","","","","html-keyboard-response","431","789623","0.0-19.0-2.4-0.8","9zqysdv6o0","","9zqysdv6o0","""2024-11-12T18:43:02.849Z""","null","+","null","","","","","","",""
"","","","","","image-keyboard-response","432","791554","0.0-19.0-2.4-1.8","9zqysdv6o0","","9zqysdv6o0","""2024-11-12T18:43:02.849Z""","1930","materials/imgs/D56.png","arrowleft","","[""materials/imgs/D25.png"",""materials/imgs/D105.png""]","false","validation","","",""
"","","","","","html-keyboard-response","433","792057","0.0-19.0-2.4-0.9","9zqysdv6o0","","9zqysdv6o0","""2024-11-12T18:43:02.849Z""","null","+","null","","","","","","",""
"","","","","","image-keyboard-response","434","794537","0.0-19.0-2.4-1.9","9zqysdv6o0","","9zqysdv6o0","""2024-11-12T18:43:02.849Z""","2479","materials/imgs/D37.png","arrowright","","[""materials/imgs/D84.png"",""materials/imgs/D111.png""]","false","validation","","",""
