"success","timeout","failed_images","failed_audio","failed_video","trial_type","trial_index","time_elapsed","internal_node_id","subject_id","sona_id","subjectID","dateInfo","rt","stimulus","response","question_order","choices","speedy","sampleAlg","selected_image","selected_index","correct"
"true","false","[]","[]","[]","preload","0","582","0.0-0.0","a71b4k8han","","a71b4k8han","""2024-11-12T18:30:36.444Z""","","","","","","","","","",""
"true","","","","","fullscreen","1","2087692","0.0-1.0","a71b4k8han","","a71b4k8han","""2024-11-12T18:30:36.444Z""","","","","","","","","","",""
"","","","","","html-keyboard-response","2","2087703","0.0-2.0","a71b4k8han","","a71b4k8han","""2024-11-12T18:30:36.444Z""","null","","null","","","","","","",""
"","","","","","html-button-response","3","2098992","0.0-3.0","a71b4k8han","","a71b4k8han","""2024-11-12T18:30:36.444Z""","11288","<div style='text-align:center; font-size:20px; line-height:25px; width: 1200px;'>
                Welcome to our experiment! <br>
                <br>At the bottom of this screen, you will see a button that says 'Begin Experiment.
                <br>Please only click that button when you are ready to complete the 25 minute experiment in one sitting. <br>
                <br> Once you click that button, it will not be possible to restart the experiment. <br><br>","0","","","","","","",""
"true","","","","","fullscreen","4","2112046","0.0-4.0","a71b4k8han","","a71b4k8han","""2024-11-12T18:30:36.444Z""","","","","","","","","","",""
"","","","","","survey-multi-select","5","2131780","0.0-5.0","a71b4k8han","","a71b4k8han","""2024-11-12T18:30:36.444Z""","19732","","{""Consent"":[""<strong>I consent</strong>""]}","[0]","","","","","",""
"","","","","","html-button-response","6","2134696","0.0-6.0","a71b4k8han","","a71b4k8han","""2024-11-12T18:30:36.444Z""","2916","Welcome! <p> This experiment involves two parts: demographic information, followed by the experimental task.<p> It will take about 25 minutes to complete both parts.","0","","","","","","",""
"","","","","","survey-text","7","2144363","0.0-7.0","a71b4k8han","","a71b4k8han","""2024-11-12T18:30:36.444Z""","9664","","{""Age"":""19"",""Gender"":""Female"",""Race/ethnicity"":""White""}","","","","","","",""
"","","","","","html-button-response","8","2161425","0.0-8.0","a71b4k8han","","a71b4k8han","""2024-11-12T18:30:36.444Z""","17059","<div style='text-align: center;'>
      <p>In each trial of this task, you will see three texture images: one target item on top, and two choices beneath the target item.</p>
      <p><strong>Please select the item that is most like the target item.</strong></p>
      <p>To select the option on the <strong>LEFT</strong>, press the <strong>LEFT ARROW</strong> key. 
      To select the option on the <strong>RIGHT</strong>, press the <strong>RIGHT ARROW</strong> key.</p>
                  <!-- Target Image at the Top -->
      <div style='margin: 20px;'>
        <img src='materials/imgs/instruction_images/InstructionImg1D78.png' alt='Target Image' style='width:200px; height:auto;' />
        <p><em>Target Image</em></p>
      </div>

      <!-- Two Choice Images Below -->
      <div style='display: flex; justify-content: center;'>
        <div style='margin-right: 50px;'>
          <img src='materials/imgs/instruction_images/InstructionImg2D34.png' alt='Choice Image 1' style='width:150px; height:auto;' />
          <p><em><strong>LEFT ARROW</strong></em></p>
        </div>
        <div style='margin-left: 50px;'>
          <img src='materials/imgs/instruction_images/InstructionImg3D80.png' alt='Choice Image 2' style='width:150px; height:auto;' />
          <p><em><strong>RIGHT ARROW</strong></em></p>
        </div>
      </div>
    </div>

      <p>When you are ready to proceed, please click 'Continue' to begin practice.</p>","0","","","","","","",""
"","","","","","html-keyboard-response","9","2163947","0.0-9.0","a71b4k8han","","a71b4k8han","""2024-11-12T18:30:36.444Z""","null","+","null","","","","","","",""
"","","","","","html-keyboard-response","10","2164459","0.0-10.0-0.0-0.0","a71b4k8han","","a71b4k8han","""2024-11-12T18:30:36.444Z""","null","+","null","","","","","","",""
"","","","","","image-keyboard-response","11","2180627","0.0-10.0-0.0-1.0","a71b4k8han","","a71b4k8han","""2024-11-12T18:30:36.444Z""","16163","materials/imgs/D68.png","arrowleft","","[""materials/imgs/D94.png"",""materials/imgs/D11.png""]","false","random","","",""
"","","","","","html-keyboard-response","12","2181131","0.0-10.0-0.0-0.1","a71b4k8han","","a71b4k8han","""2024-11-12T18:30:36.444Z""","null","+","null","","","","","","",""
"","","","","","image-keyboard-response","13","2185374","0.0-10.0-0.0-1.1","a71b4k8han","","a71b4k8han","""2024-11-12T18:30:36.444Z""","4242","materials/imgs/D8.png","arrowright","","[""materials/imgs/D103.png"",""materials/imgs/D35.png""]","false","random","","",""
"","","","","","html-keyboard-response","14","2185890","0.0-10.0-0.0-0.2","a71b4k8han","","a71b4k8han","""2024-11-12T18:30:36.444Z""","null","+","null","","","","","","",""
"","","","","","image-keyboard-response","15","2187685","0.0-10.0-0.0-1.2","a71b4k8han","","a71b4k8han","""2024-11-12T18:30:36.444Z""","1793","materials/imgs/D95.png","arrowleft","","[""materials/imgs/D94.png"",""materials/imgs/D51.png""]","false","random","","",""
"","","","","","html-keyboard-response","16","2188194","0.0-10.0-0.0-0.3","a71b4k8han","","a71b4k8han","""2024-11-12T18:30:36.444Z""","null","+","null","","","","","","",""
"","","","","","image-keyboard-response","17","2191072","0.0-10.0-0.0-1.3","a71b4k8han","","a71b4k8han","""2024-11-12T18:30:36.444Z""","2875","materials/imgs/D78.png","arrowleft","","[""materials/imgs/D65.png"",""materials/imgs/D74.png""]","false","random","","",""
"","","","","","html-keyboard-response","18","2191581","0.0-10.0-0.0-0.4","a71b4k8han","","a71b4k8han","""2024-11-12T18:30:36.444Z""","null","+","null","","","","","","",""
"","","","","","image-keyboard-response","19","2196318","0.0-10.0-0.0-1.4","a71b4k8han","","a71b4k8han","""2024-11-12T18:30:36.444Z""","4734","materials/imgs/D66.png","arrowright","","[""materials/imgs/D32.png"",""materials/imgs/D52.png""]","false","random","","",""
"","","","","","html-keyboard-response","20","2196826","0.0-10.0-0.0-0.5","a71b4k8han","","a71b4k8han","""2024-11-12T18:30:36.444Z""","null","+","null","","","","","","",""
"","","","","","image-keyboard-response","21","2201079","0.0-10.0-0.0-1.5","a71b4k8han","","a71b4k8han","""2024-11-12T18:30:36.444Z""","4250","materials/imgs/D37.png","arrowleft","","[""materials/imgs/D94.png"",""materials/imgs/D3.png""]","false","random","","",""
"","","","","","html-keyboard-response","22","2201588","0.0-10.0-0.0-0.6","a71b4k8han","","a71b4k8han","""2024-11-12T18:30:36.444Z""","null","+","null","","","","","","",""
"","","","","","image-keyboard-response","23","2205856","0.0-10.0-0.0-1.6","a71b4k8han","","a71b4k8han","""2024-11-12T18:30:36.444Z""","4264","materials/imgs/D66.png","arrowleft","","[""materials/imgs/D87.png"",""materials/imgs/D65.png""]","false","random","","",""
"","","","","","html-keyboard-response","24","2206366","0.0-10.0-0.0-0.7","a71b4k8han","","a71b4k8han","""2024-11-12T18:30:36.444Z""","null","+","null","","","","","","",""
"","","","","","image-keyboard-response","25","2210653","0.0-10.0-0.0-1.7","a71b4k8han","","a71b4k8han","""2024-11-12T18:30:36.444Z""","4283","materials/imgs/D51.png","arrowright","","[""materials/imgs/D4.png"",""materials/imgs/D64.png""]","false","random","","",""
"","","","","","html-keyboard-response","26","2211162","0.0-10.0-0.0-0.8","a71b4k8han","","a71b4k8han","""2024-11-12T18:30:36.444Z""","null","+","null","","","","","","",""
"","","","","","image-keyboard-response","27","2215522","0.0-10.0-0.0-1.8","a71b4k8han","","a71b4k8han","""2024-11-12T18:30:36.444Z""","4357","materials/imgs/D37.png","arrowright","","[""materials/imgs/D77.png"",""materials/imgs/D78.png""]","false","random","","",""
"","","","","","html-keyboard-response","28","2216028","0.0-10.0-0.0-0.9","a71b4k8han","","a71b4k8han","""2024-11-12T18:30:36.444Z""","null","+","null","","","","","","",""
"","","","","","image-keyboard-response","29","2217409","0.0-10.0-0.0-1.9","a71b4k8han","","a71b4k8han","""2024-11-12T18:30:36.444Z""","1377","materials/imgs/D35.png","arrowright","","[""materials/imgs/D21.png"",""materials/imgs/D56.png""]","false","random","","",""
"","","","","","html-button-response","30","2219313","0.0-11.0","a71b4k8han","","a71b4k8han","""2024-11-12T18:30:36.444Z""","1902","<p>Great job!</p>
      <p>You are now ready to begin the experiment.</p>
      <p>There will be around 200 trials. You will have opportunities to take breaks at three stages of the trials.</p>
      <p>When you are ready to begin please click 'Continue'.</p>","0","","","","","","",""
"","","","","","html-keyboard-response","31","2221836","0.0-12.0","a71b4k8han","","a71b4k8han","""2024-11-12T18:30:36.444Z""","null","+","null","","","","","","",""
"","","","","","html-keyboard-response","32","2222344","0.0-13.0-0.0-0.0","a71b4k8han","","a71b4k8han","""2024-11-12T18:30:36.444Z""","null","+","null","","","","","","",""
"","","","","","image-keyboard-response","33","2226840","0.0-13.0-0.0-1.0","a71b4k8han","","a71b4k8han","""2024-11-12T18:30:36.444Z""","4493","materials/imgs/D1.png","arrowleft","","[""materials/imgs/D76.png"",""materials/imgs/D46.png""]","false","random","","",""
"","","","","","html-keyboard-response","34","2227349","0.0-13.0-0.0-0.1","a71b4k8han","","a71b4k8han","""2024-11-12T18:30:36.444Z""","null","+","null","","","","","","",""
"","","","","","image-keyboard-response","35","2230869","0.0-13.0-0.0-1.1","a71b4k8han","","a71b4k8han","""2024-11-12T18:30:36.444Z""","3517","materials/imgs/D77.png","arrowleft","","[""materials/imgs/D18.png"",""materials/imgs/D8.png""]","false","random","","",""
"","","","","","html-keyboard-response","36","2231376","0.0-13.0-0.0-0.2","a71b4k8han","","a71b4k8han","""2024-11-12T18:30:36.444Z""","null","+","null","","","","","","",""
"","","","","","image-keyboard-response","37","2232662","0.0-13.0-0.0-1.2","a71b4k8han","","a71b4k8han","""2024-11-12T18:30:36.444Z""","1285","materials/imgs/D80.png","arrowleft","","[""materials/imgs/D57.png"",""materials/imgs/D20.png""]","false","random","","",""
"","","","","","html-keyboard-response","38","2233169","0.0-13.0-0.0-0.3","a71b4k8han","","a71b4k8han","""2024-11-12T18:30:36.444Z""","null","+","null","","","","","","",""
"","","","","","image-keyboard-response","39","2238012","0.0-13.0-0.0-1.3","a71b4k8han","","a71b4k8han","""2024-11-12T18:30:36.444Z""","4840","materials/imgs/D96.png","arrowright","","[""materials/imgs/D68.png"",""materials/imgs/D77.png""]","false","random","","",""
"","","","","","html-keyboard-response","40","2238520","0.0-13.0-0.0-0.4","a71b4k8han","","a71b4k8han","""2024-11-12T18:30:36.444Z""","null","+","null","","","","","","",""
"","","","","","image-keyboard-response","41","2240174","0.0-13.0-0.0-1.4","a71b4k8han","","a71b4k8han","""2024-11-12T18:30:36.444Z""","1651","materials/imgs/D11.png","arrowleft","","[""materials/imgs/D76.png"",""materials/imgs/D101.png""]","false","random","","",""
"","","","","","html-keyboard-response","42","2240685","0.0-13.0-0.0-0.5","a71b4k8han","","a71b4k8han","""2024-11-12T18:30:36.444Z""","null","+","null","","","","","","",""
"","","","","","image-keyboard-response","43","2242592","0.0-13.0-0.0-1.5","a71b4k8han","","a71b4k8han","""2024-11-12T18:30:36.444Z""","1904","materials/imgs/D46.png","arrowright","","[""materials/imgs/D1.png"",""materials/imgs/D82.png""]","false","random","","",""
"","","","","","html-keyboard-response","44","2243099","0.0-13.0-0.0-0.6","a71b4k8han","","a71b4k8han","""2024-11-12T18:30:36.444Z""","null","+","null","","","","","","",""
"","","","","","image-keyboard-response","45","2246398","0.0-13.0-0.0-1.6","a71b4k8han","","a71b4k8han","""2024-11-12T18:30:36.444Z""","3298","materials/imgs/D74.png","arrowleft","","[""materials/imgs/D20.png"",""materials/imgs/D68.png""]","false","random","","",""
"","","","","","html-keyboard-response","46","2246909","0.0-13.0-1.0-0.0","a71b4k8han","","a71b4k8han","""2024-11-12T18:30:36.444Z""","null","+","null","","","","","","",""
"","","","","","image-keyboard-response","47","2248232","0.0-13.0-1.0-1.0","a71b4k8han","","a71b4k8han","""2024-11-12T18:30:36.444Z""","1320","materials/imgs/D18.png","arrowright","","[""materials/imgs/D8.png"",""materials/imgs/D18.png""]","","check","materials/imgs/D18.png","1","true"
"","","","","","html-keyboard-response","48","2248739","0.0-13.0-2.0-0.0","a71b4k8han","","a71b4k8han","""2024-11-12T18:30:36.444Z""","null","+","null","","","","","","",""
"","","","","","image-keyboard-response","49","2253786","0.0-13.0-2.0-1.0","a71b4k8han","","a71b4k8han","""2024-11-12T18:30:36.444Z""","5047","materials/imgs/D49.png","arrowright","","[""materials/imgs/D8.png"",""materials/imgs/D101.png""]","false","validation","","",""
"","","","","","html-keyboard-response","50","2254295","0.0-13.0-2.0-0.1","a71b4k8han","","a71b4k8han","""2024-11-12T18:30:36.444Z""","null","+","null","","","","","","",""
"","","","","","image-keyboard-response","51","2259380","0.0-13.0-2.0-1.1","a71b4k8han","","a71b4k8han","""2024-11-12T18:30:36.444Z""","5083","materials/imgs/D85.png","arrowleft","","[""materials/imgs/D6.png"",""materials/imgs/D111.png""]","false","validation","","",""
"","","","","","html-keyboard-response","52","2259890","0.0-13.0-0.1-0.7","a71b4k8han","","a71b4k8han","""2024-11-12T18:30:36.444Z""","null","+","null","","","","","","",""
"","","","","","image-keyboard-response","53","2262179","0.0-13.0-0.1-1.7","a71b4k8han","","a71b4k8han","""2024-11-12T18:30:36.444Z""","2288","materials/imgs/D103.png","arrowleft","","[""materials/imgs/D4.png"",""materials/imgs/D96.png""]","false","random","","",""
"","","","","","html-keyboard-response","54","2262688","0.0-13.0-0.1-0.8","a71b4k8han","","a71b4k8han","""2024-11-12T18:30:36.444Z""","null","+","null","","","","","","",""
"","","","","","image-keyboard-response","55","2264542","0.0-13.0-0.1-1.8","a71b4k8han","","a71b4k8han","""2024-11-12T18:30:36.444Z""","1852","materials/imgs/D64.png","arrowright","","[""materials/imgs/D74.png"",""materials/imgs/D14.png""]","false","random","","",""
"","","","","","html-keyboard-response","56","2265050","0.0-13.0-0.1-0.9","a71b4k8han","","a71b4k8han","""2024-11-12T18:30:36.444Z""","null","+","null","","","","","","",""
"","","","","","image-keyboard-response","57","2266864","0.0-13.0-0.1-1.9","a71b4k8han","","a71b4k8han","""2024-11-12T18:30:36.444Z""","1811","materials/imgs/D84.png","arrowleft","","[""materials/imgs/D79.png"",""materials/imgs/D36.png""]","false","random","","",""
"","","","","","html-keyboard-response","58","2267374","0.0-13.0-0.1-0.10","a71b4k8han","","a71b4k8han","""2024-11-12T18:30:36.444Z""","null","+","null","","","","","","",""
"","","","","","image-keyboard-response","59","2270280","0.0-13.0-0.1-1.10","a71b4k8han","","a71b4k8han","""2024-11-12T18:30:36.444Z""","2903","materials/imgs/D79.png","arrowleft","","[""materials/imgs/D21.png"",""materials/imgs/D104.png""]","false","random","","",""
"","","","","","html-keyboard-response","60","2270790","0.0-13.0-0.1-0.11","a71b4k8han","","a71b4k8han","""2024-11-12T18:30:36.444Z""","null","+","null","","","","","","",""
"","","","","","image-keyboard-response","61","2291427","0.0-13.0-0.1-1.11","a71b4k8han","","a71b4k8han","""2024-11-12T18:30:36.444Z""","20633","materials/imgs/D21.png","arrowleft","","[""materials/imgs/D37.png"",""materials/imgs/D64.png""]","false","random","","",""
"","","","","","html-keyboard-response","62","2291935","0.0-13.0-0.1-0.12","a71b4k8han","","a71b4k8han","""2024-11-12T18:30:36.444Z""","null","+","null","","","","","","",""
"","","","","","image-keyboard-response","63","2293197","0.0-13.0-0.1-1.12","a71b4k8han","","a71b4k8han","""2024-11-12T18:30:36.444Z""","1260","materials/imgs/D53.png","arrowleft","","[""materials/imgs/D83.png"",""materials/imgs/D46.png""]","false","random","","",""
"","","","","","html-keyboard-response","64","2293705","0.0-13.0-0.1-0.13","a71b4k8han","","a71b4k8han","""2024-11-12T18:30:36.444Z""","null","+","null","","","","","","",""
"","","","","","image-keyboard-response","65","2295244","0.0-13.0-0.1-1.13","a71b4k8han","","a71b4k8han","""2024-11-12T18:30:36.444Z""","1535","materials/imgs/D14.png","arrowright","","[""materials/imgs/D51.png"",""materials/imgs/D36.png""]","false","random","","",""
"","","","","","html-keyboard-response","66","2295754","0.0-13.0-1.1-0.1","a71b4k8han","","a71b4k8han","""2024-11-12T18:30:36.444Z""","null","+","null","","","","","","",""
"","","","","","image-keyboard-response","67","2296568","0.0-13.0-1.1-1.1","a71b4k8han","","a71b4k8han","""2024-11-12T18:30:36.444Z""","811","materials/imgs/D18.png","arrowright","","[""materials/imgs/D8.png"",""materials/imgs/D18.png""]","","check","materials/imgs/D18.png","1","true"
"","","","","","html-keyboard-response","68","2297081","0.0-13.0-2.1-0.2","a71b4k8han","","a71b4k8han","""2024-11-12T18:30:36.444Z""","null","+","null","","","","","","",""
"","","","","","image-keyboard-response","69","2299231","0.0-13.0-2.1-1.2","a71b4k8han","","a71b4k8han","""2024-11-12T18:30:36.444Z""","2148","materials/imgs/D25.png","arrowright","","[""materials/imgs/D103.png"",""materials/imgs/D64.png""]","false","validation","","",""
"","","","","","html-keyboard-response","70","2299738","0.0-13.0-2.1-0.3","a71b4k8han","","a71b4k8han","""2024-11-12T18:30:36.444Z""","null","+","null","","","","","","",""
"","","","","","image-keyboard-response","71","2302232","0.0-13.0-2.1-1.3","a71b4k8han","","a71b4k8han","""2024-11-12T18:30:36.444Z""","2493","materials/imgs/D56.png","arrowleft","","[""materials/imgs/D25.png"",""materials/imgs/D105.png""]","false","validation","","",""
"","","","","","html-keyboard-response","72","2302740","0.0-13.0-0.2-0.14","a71b4k8han","","a71b4k8han","""2024-11-12T18:30:36.444Z""","null","+","null","","","","","","",""
"","","","","","image-keyboard-response","73","2304299","0.0-13.0-0.2-1.14","a71b4k8han","","a71b4k8han","""2024-11-12T18:30:36.444Z""","1556","materials/imgs/D92.png","arrowright","","[""materials/imgs/D51.png"",""materials/imgs/D96.png""]","false","random","","",""
"","","","","","html-keyboard-response","74","2304809","0.0-13.0-0.2-0.15","a71b4k8han","","a71b4k8han","""2024-11-12T18:30:36.444Z""","null","+","null","","","","","","",""
"","","","","","image-keyboard-response","75","2306501","0.0-13.0-0.2-1.15","a71b4k8han","","a71b4k8han","""2024-11-12T18:30:36.444Z""","1690","materials/imgs/D26.png","arrowright","","[""materials/imgs/D51.png"",""materials/imgs/D85.png""]","false","random","","",""
"","","","","","html-keyboard-response","76","2307010","0.0-13.0-0.2-0.16","a71b4k8han","","a71b4k8han","""2024-11-12T18:30:36.444Z""","null","+","null","","","","","","",""
"","","","","","image-keyboard-response","77","2308508","0.0-13.0-0.2-1.16","a71b4k8han","","a71b4k8han","""2024-11-12T18:30:36.444Z""","1495","materials/imgs/D9.png","arrowleft","","[""materials/imgs/D87.png"",""materials/imgs/D106.png""]","false","random","","",""
"","","","","","html-keyboard-response","78","2309017","0.0-13.0-0.2-0.17","a71b4k8han","","a71b4k8han","""2024-11-12T18:30:36.444Z""","null","+","null","","","","","","",""
"","","","","","image-keyboard-response","79","2312649","0.0-13.0-0.2-1.17","a71b4k8han","","a71b4k8han","""2024-11-12T18:30:36.444Z""","3632","materials/imgs/D94.png","arrowright","","[""materials/imgs/D32.png"",""materials/imgs/D102.png""]","false","random","","",""
"","","","","","html-keyboard-response","80","2313158","0.0-13.0-0.2-0.18","a71b4k8han","","a71b4k8han","""2024-11-12T18:30:36.444Z""","null","+","null","","","","","","",""
"","","","","","image-keyboard-response","81","2315147","0.0-13.0-0.2-1.18","a71b4k8han","","a71b4k8han","""2024-11-12T18:30:36.444Z""","1986","materials/imgs/D105.png","arrowleft","","[""materials/imgs/D76.png"",""materials/imgs/D85.png""]","false","random","","",""
"","","","","","html-keyboard-response","82","2315657","0.0-13.0-0.2-0.19","a71b4k8han","","a71b4k8han","""2024-11-12T18:30:36.444Z""","null","+","null","","","","","","",""
"","","","","","image-keyboard-response","83","2317350","0.0-13.0-0.2-1.19","a71b4k8han","","a71b4k8han","""2024-11-12T18:30:36.444Z""","1690","materials/imgs/D36.png","arrowleft","","[""materials/imgs/D81.png"",""materials/imgs/D79.png""]","false","random","","",""
"","","","","","html-keyboard-response","84","2317859","0.0-13.0-0.2-0.20","a71b4k8han","","a71b4k8han","""2024-11-12T18:30:36.444Z""","null","+","null","","","","","","",""
"","","","","","image-keyboard-response","85","2321997","0.0-13.0-0.2-1.20","a71b4k8han","","a71b4k8han","""2024-11-12T18:30:36.444Z""","4135","materials/imgs/D82.png","arrowright","","[""materials/imgs/D3.png"",""materials/imgs/D22.png""]","false","random","","",""
"","","","","","html-keyboard-response","86","2322510","0.0-13.0-1.2-0.2","a71b4k8han","","a71b4k8han","""2024-11-12T18:30:36.444Z""","null","+","null","","","","","","",""
"","","","","","image-keyboard-response","87","2323505","0.0-13.0-1.2-1.2","a71b4k8han","","a71b4k8han","""2024-11-12T18:30:36.444Z""","992","materials/imgs/D18.png","arrowright","","[""materials/imgs/D8.png"",""materials/imgs/D18.png""]","","check","materials/imgs/D18.png","1","true"
"","","","","","html-keyboard-response","88","2324013","0.0-13.0-2.2-0.4","a71b4k8han","","a71b4k8han","""2024-11-12T18:30:36.444Z""","null","+","null","","","","","","",""
"","","","","","image-keyboard-response","89","2326090","0.0-13.0-2.2-1.4","a71b4k8han","","a71b4k8han","""2024-11-12T18:30:36.444Z""","2075","materials/imgs/D68.png","arrowleft","","[""materials/imgs/D96.png"",""materials/imgs/D48.png""]","false","validation","","",""
"","","","","","html-keyboard-response","90","2326599","0.0-13.0-2.2-0.5","a71b4k8han","","a71b4k8han","""2024-11-12T18:30:36.444Z""","null","+","null","","","","","","",""
"","","","","","image-keyboard-response","91","2328883","0.0-13.0-2.2-1.5","a71b4k8han","","a71b4k8han","""2024-11-12T18:30:36.444Z""","2281","materials/imgs/D83.png","arrowleft","","[""materials/imgs/D24.png"",""materials/imgs/D8.png""]","false","validation","","",""
"","","","","","html-keyboard-response","92","2329393","0.0-13.0-0.3-0.21","a71b4k8han","","a71b4k8han","""2024-11-12T18:30:36.444Z""","null","+","null","","","","","","",""
"","","","","","image-keyboard-response","93","2332877","0.0-13.0-0.3-1.21","a71b4k8han","","a71b4k8han","""2024-11-12T18:30:36.444Z""","3481","materials/imgs/D22.png","arrowright","","[""materials/imgs/D29.png"",""materials/imgs/D87.png""]","false","random","","",""
"","","","","","html-keyboard-response","94","2333384","0.0-13.0-0.3-0.22","a71b4k8han","","a71b4k8han","""2024-11-12T18:30:36.444Z""","null","+","null","","","","","","",""
"","","","","","image-keyboard-response","95","2336190","0.0-13.0-0.3-1.22","a71b4k8han","","a71b4k8han","""2024-11-12T18:30:36.444Z""","2804","materials/imgs/D81.png","arrowright","","[""materials/imgs/D46.png"",""materials/imgs/D95.png""]","false","random","","",""
"","","","","","html-keyboard-response","96","2336697","0.0-13.0-0.3-0.23","a71b4k8han","","a71b4k8han","""2024-11-12T18:30:36.444Z""","null","+","null","","","","","","",""
"","","","","","image-keyboard-response","97","2338937","0.0-13.0-0.3-1.23","a71b4k8han","","a71b4k8han","""2024-11-12T18:30:36.444Z""","2237","materials/imgs/D76.png","arrowleft","","[""materials/imgs/D78.png"",""materials/imgs/D92.png""]","false","random","","",""
"","","","","","html-keyboard-response","98","2339447","0.0-13.0-0.3-0.24","a71b4k8han","","a71b4k8han","""2024-11-12T18:30:36.444Z""","null","+","null","","","","","","",""
"","","","","","image-keyboard-response","99","2341495","0.0-13.0-0.3-1.24","a71b4k8han","","a71b4k8han","""2024-11-12T18:30:36.444Z""","2044","materials/imgs/D29.png","arrowleft","","[""materials/imgs/D36.png"",""materials/imgs/D96.png""]","false","random","","",""
"","","","","","html-keyboard-response","100","2342004","0.0-13.0-0.3-0.25","a71b4k8han","","a71b4k8han","""2024-11-12T18:30:36.444Z""","null","+","null","","","","","","",""
"","","","","","image-keyboard-response","101","2344634","0.0-13.0-0.3-1.25","a71b4k8han","","a71b4k8han","""2024-11-12T18:30:36.444Z""","2627","materials/imgs/D66.png","arrowright","","[""materials/imgs/D17.png"",""materials/imgs/D29.png""]","false","random","","",""
"","","","","","html-keyboard-response","102","2345143","0.0-13.0-0.3-0.26","a71b4k8han","","a71b4k8han","""2024-11-12T18:30:36.444Z""","null","+","null","","","","","","",""
"","","","","","image-keyboard-response","103","2347150","0.0-13.0-0.3-1.26","a71b4k8han","","a71b4k8han","""2024-11-12T18:30:36.444Z""","2005","materials/imgs/D21.png","arrowright","","[""materials/imgs/D22.png"",""materials/imgs/D29.png""]","false","random","","",""
"","","","","","html-keyboard-response","104","2347659","0.0-13.0-0.3-0.27","a71b4k8han","","a71b4k8han","""2024-11-12T18:30:36.444Z""","null","+","null","","","","","","",""
"","","","","","image-keyboard-response","105","2348755","0.0-13.0-0.3-1.27","a71b4k8han","","a71b4k8han","""2024-11-12T18:30:36.444Z""","1093","materials/imgs/D51.png","arrowleft","","[""materials/imgs/D11.png"",""materials/imgs/D26.png""]","false","random","","",""
"","","","","","html-keyboard-response","106","2349264","0.0-13.0-1.3-0.3","a71b4k8han","","a71b4k8han","""2024-11-12T18:30:36.444Z""","null","+","null","","","","","","",""
"","","","","","image-keyboard-response","107","2350030","0.0-13.0-1.3-1.3","a71b4k8han","","a71b4k8han","""2024-11-12T18:30:36.444Z""","764","materials/imgs/D76.png","arrowleft","","[""materials/imgs/D76.png"",""materials/imgs/D78.png""]","","check","materials/imgs/D76.png","0","true"
"","","","","","html-keyboard-response","108","2350536","0.0-13.0-2.3-0.6","a71b4k8han","","a71b4k8han","""2024-11-12T18:30:36.444Z""","null","+","null","","","","","","",""
"","","","","","image-keyboard-response","109","2351499","0.0-13.0-2.3-1.6","a71b4k8han","","a71b4k8han","""2024-11-12T18:30:36.444Z""","962","materials/imgs/D11.png","arrowleft","","[""materials/imgs/D83.png"",""materials/imgs/D48.png""]","false","validation","","",""
"","","","","","html-keyboard-response","110","2352003","0.0-13.0-2.3-0.7","a71b4k8han","","a71b4k8han","""2024-11-12T18:30:36.444Z""","null","+","null","","","","","","",""
"","","","","","image-keyboard-response","111","2352983","0.0-13.0-2.3-1.7","a71b4k8han","","a71b4k8han","""2024-11-12T18:30:36.444Z""","979","materials/imgs/D9.png","arrowright","","[""materials/imgs/D103.png"",""materials/imgs/D4.png""]","false","validation","","",""
"","","","","","html-keyboard-response","112","2353489","0.0-13.0-0.4-0.28","a71b4k8han","","a71b4k8han","""2024-11-12T18:30:36.444Z""","null","+","null","","","","","","",""
"","","","","","image-keyboard-response","113","2355364","0.0-13.0-0.4-1.28","a71b4k8han","","a71b4k8han","""2024-11-12T18:30:36.444Z""","1874","materials/imgs/D83.png","arrowleft","","[""materials/imgs/D21.png"",""materials/imgs/D1.png""]","false","random","","",""
"","","","","","html-keyboard-response","114","2355867","0.0-13.0-0.4-0.29","a71b4k8han","","a71b4k8han","""2024-11-12T18:30:36.444Z""","null","+","null","","","","","","",""
"","","","","","image-keyboard-response","115","2360203","0.0-13.0-0.4-1.29","a71b4k8han","","a71b4k8han","""2024-11-12T18:30:36.444Z""","4335","materials/imgs/D17.png","arrowleft","","[""materials/imgs/D36.png"",""materials/imgs/D3.png""]","false","random","","",""
"","","","","","html-keyboard-response","116","2360709","0.0-13.0-0.4-0.30","a71b4k8han","","a71b4k8han","""2024-11-12T18:30:36.444Z""","null","+","null","","","","","","",""
"","","","","","image-keyboard-response","117","2363690","0.0-13.0-0.4-1.30","a71b4k8han","","a71b4k8han","""2024-11-12T18:30:36.444Z""","2980","materials/imgs/D18.png","arrowright","","[""materials/imgs/D46.png"",""materials/imgs/D19.png""]","false","random","","",""
"","","","","","html-keyboard-response","118","2364199","0.0-13.0-0.4-0.31","a71b4k8han","","a71b4k8han","""2024-11-12T18:30:36.444Z""","null","+","null","","","","","","",""
"","","","","","image-keyboard-response","119","2365844","0.0-13.0-0.4-1.31","a71b4k8han","","a71b4k8han","""2024-11-12T18:30:36.444Z""","1644","materials/imgs/D57.png","arrowright","","[""materials/imgs/D79.png"",""materials/imgs/D87.png""]","false","random","","",""
"","","","","","html-keyboard-response","120","2366351","0.0-13.0-0.4-0.32","a71b4k8han","","a71b4k8han","""2024-11-12T18:30:36.444Z""","null","+","null","","","","","","",""
"","","","","","image-keyboard-response","121","2367667","0.0-13.0-0.4-1.32","a71b4k8han","","a71b4k8han","""2024-11-12T18:30:36.444Z""","1314","materials/imgs/D22.png","arrowleft","","[""materials/imgs/D17.png"",""materials/imgs/D25.png""]","false","random","","",""
"","","","","","html-keyboard-response","122","2368176","0.0-13.0-0.4-0.33","a71b4k8han","","a71b4k8han","""2024-11-12T18:30:36.444Z""","null","+","null","","","","","","",""
"","","","","","image-keyboard-response","123","2368845","0.0-13.0-0.4-1.33","a71b4k8han","","a71b4k8han","""2024-11-12T18:30:36.444Z""","667","materials/imgs/D3.png","arrowleft","","[""materials/imgs/D6.png"",""materials/imgs/D111.png""]","false","random","","",""
"","","","","","html-keyboard-response","124","2369353","0.0-13.0-0.4-0.34","a71b4k8han","","a71b4k8han","""2024-11-12T18:30:36.444Z""","null","+","null","","","","","","",""
"","","","","","image-keyboard-response","125","2371498","0.0-13.0-0.4-1.34","a71b4k8han","","a71b4k8han","""2024-11-12T18:30:36.444Z""","2141","materials/imgs/D81.png","arrowright","","[""materials/imgs/D111.png"",""materials/imgs/D36.png""]","false","random","","",""
"","","","","","html-keyboard-response","126","2372004","0.0-13.0-1.4-0.4","a71b4k8han","","a71b4k8han","""2024-11-12T18:30:36.444Z""","null","+","null","","","","","","",""
"","","","","","image-keyboard-response","127","2373129","0.0-13.0-1.4-1.4","a71b4k8han","","a71b4k8han","""2024-11-12T18:30:36.444Z""","1122","materials/imgs/D8.png","arrowright","","[""materials/imgs/D18.png"",""materials/imgs/D8.png""]","","check","materials/imgs/D8.png","1","true"
"","","","","","html-keyboard-response","128","2373640","0.0-13.0-2.4-0.8","a71b4k8han","","a71b4k8han","""2024-11-12T18:30:36.444Z""","null","+","null","","","","","","",""
"","","","","","image-keyboard-response","129","2377309","0.0-13.0-2.4-1.8","a71b4k8han","","a71b4k8han","""2024-11-12T18:30:36.444Z""","3667","materials/imgs/D18.png","arrowright","","[""materials/imgs/D32.png"",""materials/imgs/D57.png""]","false","validation","","",""
"","","","","","html-keyboard-response","130","2377816","0.0-13.0-2.4-0.9","a71b4k8han","","a71b4k8han","""2024-11-12T18:30:36.444Z""","null","+","null","","","","","","",""
"","","","","","image-keyboard-response","131","2387566","0.0-13.0-2.4-1.9","a71b4k8han","","a71b4k8han","""2024-11-12T18:30:36.444Z""","9747","materials/imgs/D36.png","arrowright","","[""materials/imgs/D47.png"",""materials/imgs/D49.png""]","false","validation","","",""
"","","","","","html-button-response","132","2465946","0.0-14.0","a71b4k8han","","a71b4k8han","""2024-11-12T18:30:36.444Z""","78377","You have completed 25% of the trials. Please click 'Continue' when you are ready proceed.","0","","","","","","",""
"","","","","","html-keyboard-response","133","2466451","0.0-15.0-0.0-0.0","a71b4k8han","","a71b4k8han","""2024-11-12T18:30:36.444Z""","null","+","null","","","","","","",""
"","","","","","image-keyboard-response","134","2469695","0.0-15.0-0.0-1.0","a71b4k8han","","a71b4k8han","""2024-11-12T18:30:36.444Z""","3243","materials/imgs/D64.png","arrowleft","","[""materials/imgs/D18.png"",""materials/imgs/D84.png""]","false","random","","",""
"","","","","","html-keyboard-response","135","2470204","0.0-15.0-0.0-0.1","a71b4k8han","","a71b4k8han","""2024-11-12T18:30:36.444Z""","null","+","null","","","","","","",""
"","","","","","image-keyboard-response","136","2472037","0.0-15.0-0.0-1.1","a71b4k8han","","a71b4k8han","""2024-11-12T18:30:36.444Z""","1829","materials/imgs/D76.png","arrowleft","","[""materials/imgs/D55.png"",""materials/imgs/D94.png""]","false","random","","",""
"","","","","","html-keyboard-response","137","2472546","0.0-15.0-0.0-0.2","a71b4k8han","","a71b4k8han","""2024-11-12T18:30:36.444Z""","null","+","null","","","","","","",""
"","","","","","image-keyboard-response","138","2473305","0.0-15.0-0.0-1.2","a71b4k8han","","a71b4k8han","""2024-11-12T18:30:36.444Z""","757","materials/imgs/D94.png","arrowright","","[""materials/imgs/D52.png"",""materials/imgs/D26.png""]","false","random","","",""
"","","","","","html-keyboard-response","139","2473815","0.0-15.0-0.0-0.3","a71b4k8han","","a71b4k8han","""2024-11-12T18:30:36.444Z""","null","+","null","","","","","","",""
"","","","","","image-keyboard-response","140","2476322","0.0-15.0-0.0-1.3","a71b4k8han","","a71b4k8han","""2024-11-12T18:30:36.444Z""","2505","materials/imgs/D92.png","arrowright","","[""materials/imgs/D48.png"",""materials/imgs/D1.png""]","false","random","","",""
"","","","","","html-keyboard-response","141","2476826","0.0-15.0-0.0-0.4","a71b4k8han","","a71b4k8han","""2024-11-12T18:30:36.444Z""","null","+","null","","","","","","",""
"","","","","","image-keyboard-response","142","2480899","0.0-15.0-0.0-1.4","a71b4k8han","","a71b4k8han","""2024-11-12T18:30:36.444Z""","4071","materials/imgs/D36.png","arrowright","","[""materials/imgs/D95.png"",""materials/imgs/D103.png""]","false","random","","",""
"","","","","","html-keyboard-response","143","2481406","0.0-15.0-0.0-0.5","a71b4k8han","","a71b4k8han","""2024-11-12T18:30:36.444Z""","null","+","null","","","","","","",""
"","","","","","image-keyboard-response","144","2483024","0.0-15.0-0.0-1.5","a71b4k8han","","a71b4k8han","""2024-11-12T18:30:36.444Z""","1615","materials/imgs/D66.png","arrowright","","[""materials/imgs/D11.png"",""materials/imgs/D92.png""]","false","random","","",""
"","","","","","html-keyboard-response","145","2483532","0.0-15.0-0.0-0.6","a71b4k8han","","a71b4k8han","""2024-11-12T18:30:36.444Z""","null","+","null","","","","","","",""
"","","","","","image-keyboard-response","146","2507947","0.0-15.0-0.0-1.6","a71b4k8han","","a71b4k8han","""2024-11-12T18:30:36.444Z""","24414","materials/imgs/D11.png","arrowleft","","[""materials/imgs/D111.png"",""materials/imgs/D101.png""]","false","random","","",""
"","","","","","html-keyboard-response","147","2508455","0.0-15.0-1.0-0.0","a71b4k8han","","a71b4k8han","""2024-11-12T18:30:36.444Z""","null","+","null","","","","","","",""
"","","","","","image-keyboard-response","148","2509141","0.0-15.0-1.0-1.0","a71b4k8han","","a71b4k8han","""2024-11-12T18:30:36.444Z""","684","materials/imgs/D53.png","arrowright","","[""materials/imgs/D64.png"",""materials/imgs/D53.png""]","","check","materials/imgs/D53.png","1","true"
"","","","","","html-keyboard-response","149","2509650","0.0-15.0-2.0-0.0","a71b4k8han","","a71b4k8han","""2024-11-12T18:30:36.444Z""","null","+","null","","","","","","",""
"","","","","","image-keyboard-response","150","2512352","0.0-15.0-2.0-1.0","a71b4k8han","","a71b4k8han","""2024-11-12T18:30:36.444Z""","2699","materials/imgs/D47.png","arrowright","","[""materials/imgs/D1.png"",""materials/imgs/D52.png""]","false","validation","","",""
"","","","","","html-keyboard-response","151","2512861","0.0-15.0-2.0-0.1","a71b4k8han","","a71b4k8han","""2024-11-12T18:30:36.444Z""","null","+","null","","","","","","",""
"","","","","","image-keyboard-response","152","2514749","0.0-15.0-2.0-1.1","a71b4k8han","","a71b4k8han","""2024-11-12T18:30:36.444Z""","1885","materials/imgs/D65.png","arrowleft","","[""materials/imgs/D4.png"",""materials/imgs/D16.png""]","false","validation","","",""
"","","","","","html-keyboard-response","153","2515260","0.0-15.0-0.1-0.7","a71b4k8han","","a71b4k8han","""2024-11-12T18:30:36.444Z""","null","+","null","","","","","","",""
"","","","","","image-keyboard-response","154","2516987","0.0-15.0-0.1-1.7","a71b4k8han","","a71b4k8han","""2024-11-12T18:30:36.444Z""","1724","materials/imgs/D94.png","arrowright","","[""materials/imgs/D35.png"",""materials/imgs/D4.png""]","false","random","","",""
"","","","","","html-keyboard-response","155","2517494","0.0-15.0-0.1-0.8","a71b4k8han","","a71b4k8han","""2024-11-12T18:30:36.444Z""","null","+","null","","","","","","",""
"","","","","","image-keyboard-response","156","2519779","0.0-15.0-0.1-1.8","a71b4k8han","","a71b4k8han","""2024-11-12T18:30:36.444Z""","2284","materials/imgs/D103.png","arrowright","","[""materials/imgs/D35.png"",""materials/imgs/D65.png""]","false","random","","",""
"","","","","","html-keyboard-response","157","2520280","0.0-15.0-0.1-0.9","a71b4k8han","","a71b4k8han","""2024-11-12T18:30:36.444Z""","null","+","null","","","","","","",""
"","","","","","image-keyboard-response","158","2522813","0.0-15.0-0.1-1.9","a71b4k8han","","a71b4k8han","""2024-11-12T18:30:36.444Z""","2523","materials/imgs/D32.png","arrowleft","","[""materials/imgs/D1.png"",""materials/imgs/D64.png""]","false","random","","",""
"","","","","","html-keyboard-response","159","2523324","0.0-15.0-0.1-0.10","a71b4k8han","","a71b4k8han","""2024-11-12T18:30:36.444Z""","null","+","null","","","","","","",""
"","","","","","image-keyboard-response","160","2524734","0.0-15.0-0.1-1.10","a71b4k8han","","a71b4k8han","""2024-11-12T18:30:36.444Z""","1407","materials/imgs/D84.png","arrowright","","[""materials/imgs/D51.png"",""materials/imgs/D14.png""]","false","random","","",""
"","","","","","html-keyboard-response","161","2525241","0.0-15.0-0.1-0.11","a71b4k8han","","a71b4k8han","""2024-11-12T18:30:36.444Z""","null","+","null","","","","","","",""
"","","","","","image-keyboard-response","162","2529405","0.0-15.0-0.1-1.11","a71b4k8han","","a71b4k8han","""2024-11-12T18:30:36.444Z""","4161","materials/imgs/D25.png","arrowleft","","[""materials/imgs/D82.png"",""materials/imgs/D14.png""]","false","random","","",""
"","","","","","html-keyboard-response","163","2529915","0.0-15.0-0.1-0.12","a71b4k8han","","a71b4k8han","""2024-11-12T18:30:36.444Z""","null","+","null","","","","","","",""
"","","","","","image-keyboard-response","164","2532411","0.0-15.0-0.1-1.12","a71b4k8han","","a71b4k8han","""2024-11-12T18:30:36.444Z""","2494","materials/imgs/D83.png","arrowleft","","[""materials/imgs/D87.png"",""materials/imgs/D96.png""]","false","random","","",""
"","","","","","html-keyboard-response","165","2532920","0.0-15.0-0.1-0.13","a71b4k8han","","a71b4k8han","""2024-11-12T18:30:36.444Z""","null","+","null","","","","","","",""
"","","","","","image-keyboard-response","166","2536757","0.0-15.0-0.1-1.13","a71b4k8han","","a71b4k8han","""2024-11-12T18:30:36.444Z""","3833","materials/imgs/D81.png","arrowright","","[""materials/imgs/D66.png"",""materials/imgs/D76.png""]","false","random","","",""
"","","","","","html-keyboard-response","167","2537268","0.0-15.0-1.1-0.1","a71b4k8han","","a71b4k8han","""2024-11-12T18:30:36.444Z""","null","+","null","","","","","","",""
"","","","","","image-keyboard-response","168","2538295","0.0-15.0-1.1-1.1","a71b4k8han","","a71b4k8han","""2024-11-12T18:30:36.444Z""","1024","materials/imgs/D78.png","arrowright","","[""materials/imgs/D76.png"",""materials/imgs/D78.png""]","","check","materials/imgs/D78.png","1","true"
"","","","","","html-keyboard-response","169","2538803","0.0-15.0-2.1-0.2","a71b4k8han","","a71b4k8han","""2024-11-12T18:30:36.444Z""","null","+","null","","","","","","",""
"","","","","","image-keyboard-response","170","2540382","0.0-15.0-2.1-1.2","a71b4k8han","","a71b4k8han","""2024-11-12T18:30:36.444Z""","1576","materials/imgs/D111.png","arrowleft","","[""materials/imgs/D82.png"",""materials/imgs/D95.png""]","false","validation","","",""
"","","","","","html-keyboard-response","171","2540892","0.0-15.0-2.1-0.3","a71b4k8han","","a71b4k8han","""2024-11-12T18:30:36.444Z""","null","+","null","","","","","","",""
"","","","","","image-keyboard-response","172","2543763","0.0-15.0-2.1-1.3","a71b4k8han","","a71b4k8han","""2024-11-12T18:30:36.444Z""","2867","materials/imgs/D84.png","arrowright","","[""materials/imgs/D106.png"",""materials/imgs/D37.png""]","false","validation","","",""
"","","","","","html-keyboard-response","173","2544272","0.0-15.0-0.2-0.14","a71b4k8han","","a71b4k8han","""2024-11-12T18:30:36.444Z""","null","+","null","","","","","","",""
"","","","","","image-keyboard-response","174","2545743","0.0-15.0-0.2-1.14","a71b4k8han","","a71b4k8han","""2024-11-12T18:30:36.444Z""","1468","materials/imgs/D6.png","arrowright","","[""materials/imgs/D57.png"",""materials/imgs/D21.png""]","false","random","","",""
"","","","","","html-keyboard-response","175","2546252","0.0-15.0-0.2-0.15","a71b4k8han","","a71b4k8han","""2024-11-12T18:30:36.444Z""","null","+","null","","","","","","",""
"","","","","","image-keyboard-response","176","2548458","0.0-15.0-0.2-1.15","a71b4k8han","","a71b4k8han","""2024-11-12T18:30:36.444Z""","2203","materials/imgs/D84.png","arrowleft","","[""materials/imgs/D34.png"",""materials/imgs/D25.png""]","false","random","","",""
"","","","","","html-keyboard-response","177","2548967","0.0-15.0-0.2-0.16","a71b4k8han","","a71b4k8han","""2024-11-12T18:30:36.444Z""","null","+","null","","","","","","",""
"","","","","","image-keyboard-response","178","2550587","0.0-15.0-0.2-1.16","a71b4k8han","","a71b4k8han","""2024-11-12T18:30:36.444Z""","1617","materials/imgs/D80.png","arrowleft","","[""materials/imgs/D53.png"",""materials/imgs/D22.png""]","false","random","","",""
"","","","","","html-keyboard-response","179","2551098","0.0-15.0-0.2-0.17","a71b4k8han","","a71b4k8han","""2024-11-12T18:30:36.444Z""","null","+","null","","","","","","",""
"","","","","","image-keyboard-response","180","2552523","0.0-15.0-0.2-1.17","a71b4k8han","","a71b4k8han","""2024-11-12T18:30:36.444Z""","1422","materials/imgs/D80.png","arrowright","","[""materials/imgs/D18.png"",""materials/imgs/D32.png""]","false","random","","",""
"","","","","","html-keyboard-response","181","2553030","0.0-15.0-0.2-0.18","a71b4k8han","","a71b4k8han","""2024-11-12T18:30:36.444Z""","null","+","null","","","","","","",""
"","","","","","image-keyboard-response","182","2554103","0.0-15.0-0.2-1.18","a71b4k8han","","a71b4k8han","""2024-11-12T18:30:36.444Z""","1069","materials/imgs/D79.png","arrowleft","","[""materials/imgs/D47.png"",""materials/imgs/D25.png""]","false","random","","",""
"","","","","","html-keyboard-response","183","2554609","0.0-15.0-0.2-0.19","a71b4k8han","","a71b4k8han","""2024-11-12T18:30:36.444Z""","null","+","null","","","","","","",""
"","","","","","image-keyboard-response","184","2555784","0.0-15.0-0.2-1.19","a71b4k8han","","a71b4k8han","""2024-11-12T18:30:36.444Z""","1171","materials/imgs/D80.png","arrowright","","[""materials/imgs/D106.png"",""materials/imgs/D82.png""]","false","random","","",""
"","","","","","html-keyboard-response","185","2556293","0.0-15.0-0.2-0.20","a71b4k8han","","a71b4k8han","""2024-11-12T18:30:36.444Z""","null","+","null","","","","","","",""
"","","","","","image-keyboard-response","186","2557393","0.0-15.0-0.2-1.20","a71b4k8han","","a71b4k8han","""2024-11-12T18:30:36.444Z""","1096","materials/imgs/D74.png","arrowright","","[""materials/imgs/D104.png"",""materials/imgs/D95.png""]","false","random","","",""
"","","","","","html-keyboard-response","187","2557902","0.0-15.0-1.2-0.2","a71b4k8han","","a71b4k8han","""2024-11-12T18:30:36.444Z""","null","+","null","","","","","","",""
"","","","","","image-keyboard-response","188","2558711","0.0-15.0-1.2-1.2","a71b4k8han","","a71b4k8han","""2024-11-12T18:30:36.444Z""","805","materials/imgs/D78.png","arrowright","","[""materials/imgs/D76.png"",""materials/imgs/D78.png""]","","check","materials/imgs/D78.png","1","true"
"","","","","","html-keyboard-response","189","2559222","0.0-15.0-2.2-0.4","a71b4k8han","","a71b4k8han","""2024-11-12T18:30:36.444Z""","null","+","null","","","","","","",""
"","","","","","image-keyboard-response","190","2560943","0.0-15.0-2.2-1.4","a71b4k8han","","a71b4k8han","""2024-11-12T18:30:36.444Z""","1721","materials/imgs/D111.png","arrowleft","","[""materials/imgs/D82.png"",""materials/imgs/D95.png""]","false","validation","","",""
"","","","","","html-keyboard-response","191","2561452","0.0-15.0-2.2-0.5","a71b4k8han","","a71b4k8han","""2024-11-12T18:30:36.444Z""","null","+","null","","","","","","",""
"","","","","","image-keyboard-response","192","2562664","0.0-15.0-2.2-1.5","a71b4k8han","","a71b4k8han","""2024-11-12T18:30:36.444Z""","1209","materials/imgs/D75.png","arrowright","","[""materials/imgs/D96.png"",""materials/imgs/D4.png""]","false","validation","","",""
"","","","","","html-keyboard-response","193","2563168","0.0-15.0-0.3-0.21","a71b4k8han","","a71b4k8han","""2024-11-12T18:30:36.444Z""","null","+","null","","","","","","",""
"","","","","","image-keyboard-response","194","2564279","0.0-15.0-0.3-1.21","a71b4k8han","","a71b4k8han","""2024-11-12T18:30:36.444Z""","1109","materials/imgs/D46.png","arrowleft","","[""materials/imgs/D17.png"",""materials/imgs/D16.png""]","false","random","","",""
"","","","","","html-keyboard-response","195","2564787","0.0-15.0-0.3-0.22","a71b4k8han","","a71b4k8han","""2024-11-12T18:30:36.444Z""","null","+","null","","","","","","",""
"","","","","","image-keyboard-response","196","2566238","0.0-15.0-0.3-1.22","a71b4k8han","","a71b4k8han","""2024-11-12T18:30:36.444Z""","1446","materials/imgs/D103.png","arrowright","","[""materials/imgs/D52.png"",""materials/imgs/D84.png""]","false","random","","",""
"","","","","","html-keyboard-response","197","2566747","0.0-15.0-0.3-0.23","a71b4k8han","","a71b4k8han","""2024-11-12T18:30:36.444Z""","null","+","null","","","","","","",""
"","","","","","image-keyboard-response","198","2567709","0.0-15.0-0.3-1.23","a71b4k8han","","a71b4k8han","""2024-11-12T18:30:36.444Z""","956","materials/imgs/D82.png","arrowleft","","[""materials/imgs/D29.png"",""materials/imgs/D75.png""]","false","random","","",""
"","","","","","html-keyboard-response","199","2568218","0.0-15.0-0.3-0.24","a71b4k8han","","a71b4k8han","""2024-11-12T18:30:36.444Z""","null","+","null","","","","","","",""
"","","","","","image-keyboard-response","200","2569450","0.0-15.0-0.3-1.24","a71b4k8han","","a71b4k8han","""2024-11-12T18:30:36.444Z""","1230","materials/imgs/D52.png","arrowleft","","[""materials/imgs/D6.png"",""materials/imgs/D37.png""]","false","random","","",""
"","","","","","html-keyboard-response","201","2569957","0.0-15.0-0.3-0.25","a71b4k8han","","a71b4k8han","""2024-11-12T18:30:36.444Z""","null","+","null","","","","","","",""
"","","","","","image-keyboard-response","202","2571453","0.0-15.0-0.3-1.25","a71b4k8han","","a71b4k8han","""2024-11-12T18:30:36.444Z""","1490","materials/imgs/D82.png","arrowleft","","[""materials/imgs/D77.png"",""materials/imgs/D1.png""]","false","random","","",""
"","","","","","html-keyboard-response","203","2571965","0.0-15.0-0.3-0.26","a71b4k8han","","a71b4k8han","""2024-11-12T18:30:36.444Z""","null","+","null","","","","","","",""
"","","","","","image-keyboard-response","204","2572907","0.0-15.0-0.3-1.26","a71b4k8han","","a71b4k8han","""2024-11-12T18:30:36.444Z""","938","materials/imgs/D24.png","arrowright","","[""materials/imgs/D17.png"",""materials/imgs/D80.png""]","false","random","","",""
"","","","","","html-keyboard-response","205","2573417","0.0-15.0-0.3-0.27","a71b4k8han","","a71b4k8han","""2024-11-12T18:30:36.444Z""","null","+","null","","","","","","",""
"","","","","","image-keyboard-response","206","2574598","0.0-15.0-0.3-1.27","a71b4k8han","","a71b4k8han","""2024-11-12T18:30:36.444Z""","1178","materials/imgs/D101.png","arrowleft","","[""materials/imgs/D103.png"",""materials/imgs/D51.png""]","false","random","","",""
"","","","","","html-keyboard-response","207","2575108","0.0-15.0-1.3-0.3","a71b4k8han","","a71b4k8han","""2024-11-12T18:30:36.444Z""","null","+","null","","","","","","",""
"","","","","","image-keyboard-response","208","2575960","0.0-15.0-1.3-1.3","a71b4k8han","","a71b4k8han","""2024-11-12T18:30:36.444Z""","849","materials/imgs/D76.png","arrowleft","","[""materials/imgs/D76.png"",""materials/imgs/D78.png""]","","check","materials/imgs/D76.png","0","true"
"","","","","","html-keyboard-response","209","2576469","0.0-15.0-2.3-0.6","a71b4k8han","","a71b4k8han","""2024-11-12T18:30:36.444Z""","null","+","null","","","","","","",""
"","","","","","image-keyboard-response","210","2577406","0.0-15.0-2.3-1.6","a71b4k8han","","a71b4k8han","""2024-11-12T18:30:36.444Z""","933","materials/imgs/D102.png","arrowright","","[""materials/imgs/D32.png"",""materials/imgs/D111.png""]","false","validation","","",""
"","","","","","html-keyboard-response","211","2577917","0.0-15.0-2.3-0.7","a71b4k8han","","a71b4k8han","""2024-11-12T18:30:36.444Z""","null","+","null","","","","","","",""
"","","","","","image-keyboard-response","212","2579374","0.0-15.0-2.3-1.7","a71b4k8han","","a71b4k8han","""2024-11-12T18:30:36.444Z""","1453","materials/imgs/D4.png","arrowright","","[""materials/imgs/D52.png"",""materials/imgs/D83.png""]","false","validation","","",""
"","","","","","html-keyboard-response","213","2579885","0.0-15.0-0.4-0.28","a71b4k8han","","a71b4k8han","""2024-11-12T18:30:36.444Z""","null","+","null","","","","","","",""
"","","","","","image-keyboard-response","214","2581631","0.0-15.0-0.4-1.28","a71b4k8han","","a71b4k8han","""2024-11-12T18:30:36.444Z""","1742","materials/imgs/D24.png","arrowleft","","[""materials/imgs/D16.png"",""materials/imgs/D49.png""]","false","random","","",""
"","","","","","html-keyboard-response","215","2582139","0.0-15.0-0.4-0.29","a71b4k8han","","a71b4k8han","""2024-11-12T18:30:36.444Z""","null","+","null","","","","","","",""
"","","","","","image-keyboard-response","216","2583201","0.0-15.0-0.4-1.29","a71b4k8han","","a71b4k8han","""2024-11-12T18:30:36.444Z""","1058","materials/imgs/D4.png","arrowright","","[""materials/imgs/D105.png"",""materials/imgs/D34.png""]","false","random","","",""
"","","","","","html-keyboard-response","217","2583710","0.0-15.0-0.4-0.30","a71b4k8han","","a71b4k8han","""2024-11-12T18:30:36.444Z""","null","+","null","","","","","","",""
"","","","","","image-keyboard-response","218","2584995","0.0-15.0-0.4-1.30","a71b4k8han","","a71b4k8han","""2024-11-12T18:30:36.444Z""","1281","materials/imgs/D24.png","arrowleft","","[""materials/imgs/D87.png"",""materials/imgs/D49.png""]","false","random","","",""
"","","","","","html-keyboard-response","219","2585503","0.0-15.0-0.4-0.31","a71b4k8han","","a71b4k8han","""2024-11-12T18:30:36.444Z""","null","+","null","","","","","","",""
"","","","","","image-keyboard-response","220","2588401","0.0-15.0-0.4-1.31","a71b4k8han","","a71b4k8han","""2024-11-12T18:30:36.444Z""","2894","materials/imgs/D95.png","arrowleft","","[""materials/imgs/D29.png"",""materials/imgs/D53.png""]","false","random","","",""
"","","","","","html-keyboard-response","221","2588911","0.0-15.0-0.4-0.32","a71b4k8han","","a71b4k8han","""2024-11-12T18:30:36.444Z""","null","+","null","","","","","","",""
"","","","","","image-keyboard-response","222","2589703","0.0-15.0-0.4-1.32","a71b4k8han","","a71b4k8han","""2024-11-12T18:30:36.444Z""","789","materials/imgs/D105.png","arrowright","","[""materials/imgs/D65.png"",""materials/imgs/D57.png""]","false","random","","",""
"","","","","","html-keyboard-response","223","2590212","0.0-15.0-0.4-0.33","a71b4k8han","","a71b4k8han","""2024-11-12T18:30:36.444Z""","null","+","null","","","","","","",""
"","","","","","image-keyboard-response","224","2591727","0.0-15.0-0.4-1.33","a71b4k8han","","a71b4k8han","""2024-11-12T18:30:36.444Z""","1511","materials/imgs/D79.png","arrowleft","","[""materials/imgs/D18.png"",""materials/imgs/D87.png""]","false","random","","",""
"","","","","","html-keyboard-response","225","2592235","0.0-15.0-0.4-0.34","a71b4k8han","","a71b4k8han","""2024-11-12T18:30:36.444Z""","null","+","null","","","","","","",""
"","","","","","image-keyboard-response","226","2593463","0.0-15.0-0.4-1.34","a71b4k8han","","a71b4k8han","""2024-11-12T18:30:36.444Z""","1224","materials/imgs/D68.png","arrowright","","[""materials/imgs/D46.png"",""materials/imgs/D77.png""]","false","random","","",""
"","","","","","html-keyboard-response","227","2593973","0.0-15.0-1.4-0.4","a71b4k8han","","a71b4k8han","""2024-11-12T18:30:36.444Z""","null","+","null","","","","","","",""
"","","","","","image-keyboard-response","228","2594676","0.0-15.0-1.4-1.4","a71b4k8han","","a71b4k8han","""2024-11-12T18:30:36.444Z""","699","materials/imgs/D26.png","arrowleft","","[""materials/imgs/D26.png"",""materials/imgs/D46.png""]","","check","materials/imgs/D26.png","0","true"
"","","","","","html-keyboard-response","229","2595186","0.0-15.0-2.4-0.8","a71b4k8han","","a71b4k8han","""2024-11-12T18:30:36.444Z""","null","+","null","","","","","","",""
"","","","","","image-keyboard-response","230","2595890","0.0-15.0-2.4-1.8","a71b4k8han","","a71b4k8han","""2024-11-12T18:30:36.444Z""","699","materials/imgs/D57.png","arrowright","","[""materials/imgs/D111.png"",""materials/imgs/D4.png""]","false","validation","","",""
"","","","","","html-keyboard-response","231","2596399","0.0-15.0-2.4-0.9","a71b4k8han","","a71b4k8han","""2024-11-12T18:30:36.444Z""","null","+","null","","","","","","",""
"","","","","","image-keyboard-response","232","2597887","0.0-15.0-2.4-1.9","a71b4k8han","","a71b4k8han","""2024-11-12T18:30:36.444Z""","1485","materials/imgs/D22.png","arrowleft","","[""materials/imgs/D4.png"",""materials/imgs/D25.png""]","false","validation","","",""
"","","","","","html-button-response","233","2601807","0.0-16.0","a71b4k8han","","a71b4k8han","""2024-11-12T18:30:36.444Z""","3917","You have completed 50% of the trials. Please click 'Continue' when you are ready proceed.","0","","","","","","",""
"","","","","","html-keyboard-response","234","2602310","0.0-17.0-0.0-0.0","a71b4k8han","","a71b4k8han","""2024-11-12T18:30:36.444Z""","null","+","null","","","","","","",""
"","","","","","image-keyboard-response","235","2603471","0.0-17.0-0.0-1.0","a71b4k8han","","a71b4k8han","""2024-11-12T18:30:36.444Z""","1157","materials/imgs/D85.png","arrowleft","","[""materials/imgs/D49.png"",""materials/imgs/D77.png""]","false","random","","",""
"","","","","","html-keyboard-response","236","2603981","0.0-17.0-0.0-0.1","a71b4k8han","","a71b4k8han","""2024-11-12T18:30:36.444Z""","null","+","null","","","","","","",""
"","","","","","image-keyboard-response","237","2605859","0.0-17.0-0.0-1.1","a71b4k8han","","a71b4k8han","""2024-11-12T18:30:36.444Z""","1875","materials/imgs/D48.png","arrowright","","[""materials/imgs/D106.png"",""materials/imgs/D24.png""]","false","random","","",""
"","","","","","html-keyboard-response","238","2606360","0.0-17.0-0.0-0.2","a71b4k8han","","a71b4k8han","""2024-11-12T18:30:36.444Z""","null","+","null","","","","","","",""
"","","","","","image-keyboard-response","239","2607194","0.0-17.0-0.0-1.2","a71b4k8han","","a71b4k8han","""2024-11-12T18:30:36.444Z""","831","materials/imgs/D48.png","arrowleft","","[""materials/imgs/D46.png"",""materials/imgs/D77.png""]","false","random","","",""
"","","","","","html-keyboard-response","240","2607701","0.0-17.0-0.0-0.3","a71b4k8han","","a71b4k8han","""2024-11-12T18:30:36.444Z""","null","+","null","","","","","","",""
"","","","","","image-keyboard-response","241","2610602","0.0-17.0-0.0-1.3","a71b4k8han","","a71b4k8han","""2024-11-12T18:30:36.444Z""","2898","materials/imgs/D87.png","arrowleft","","[""materials/imgs/D80.png"",""materials/imgs/D14.png""]","false","random","","",""
"","","","","","html-keyboard-response","242","2611112","0.0-17.0-0.0-0.4","a71b4k8han","","a71b4k8han","""2024-11-12T18:30:36.444Z""","null","+","null","","","","","","",""
"","","","","","image-keyboard-response","243","2612116","0.0-17.0-0.0-1.4","a71b4k8han","","a71b4k8han","""2024-11-12T18:30:36.444Z""","1000","materials/imgs/D94.png","arrowleft","","[""materials/imgs/D96.png"",""materials/imgs/D17.png""]","false","random","","",""
"","","","","","html-keyboard-response","244","2612625","0.0-17.0-0.0-0.5","a71b4k8han","","a71b4k8han","""2024-11-12T18:30:36.444Z""","null","+","null","","","","","","",""
"","","","","","image-keyboard-response","245","2613912","0.0-17.0-0.0-1.5","a71b4k8han","","a71b4k8han","""2024-11-12T18:30:36.444Z""","1283","materials/imgs/D82.png","arrowleft","","[""materials/imgs/D24.png"",""materials/imgs/D8.png""]","false","random","","",""
"","","","","","html-keyboard-response","246","2614421","0.0-17.0-0.0-0.6","a71b4k8han","","a71b4k8han","""2024-11-12T18:30:36.444Z""","null","+","null","","","","","","",""
"","","","","","image-keyboard-response","247","2615892","0.0-17.0-0.0-1.6","a71b4k8han","","a71b4k8han","""2024-11-12T18:30:36.444Z""","1467","materials/imgs/D96.png","arrowright","","[""materials/imgs/D53.png"",""materials/imgs/D64.png""]","false","random","","",""
"","","","","","html-keyboard-response","248","2616406","0.0-17.0-1.0-0.0","a71b4k8han","","a71b4k8han","""2024-11-12T18:30:36.444Z""","null","+","null","","","","","","",""
"","","","","","image-keyboard-response","249","2617047","0.0-17.0-1.0-1.0","a71b4k8han","","a71b4k8han","""2024-11-12T18:30:36.444Z""","639","materials/imgs/D8.png","arrowright","","[""materials/imgs/D18.png"",""materials/imgs/D8.png""]","","check","materials/imgs/D8.png","1","true"
"","","","","","html-keyboard-response","250","2617557","0.0-17.0-2.0-0.0","a71b4k8han","","a71b4k8han","""2024-11-12T18:30:36.444Z""","null","+","null","","","","","","",""
"","","","","","image-keyboard-response","251","2618164","0.0-17.0-2.0-1.0","a71b4k8han","","a71b4k8han","""2024-11-12T18:30:36.444Z""","604","materials/imgs/D9.png","arrowright","","[""materials/imgs/D103.png"",""materials/imgs/D4.png""]","false","validation","","",""
"","","","","","html-keyboard-response","252","2618674","0.0-17.0-2.0-0.1","a71b4k8han","","a71b4k8han","""2024-11-12T18:30:36.444Z""","null","+","null","","","","","","",""
"","","","","","image-keyboard-response","253","2619384","0.0-17.0-2.0-1.1","a71b4k8han","","a71b4k8han","""2024-11-12T18:30:36.444Z""","707","materials/imgs/D53.png","arrowleft","","[""materials/imgs/D77.png"",""materials/imgs/D75.png""]","false","validation","","",""
"","","","","","html-keyboard-response","254","2619893","0.0-17.0-0.1-0.7","a71b4k8han","","a71b4k8han","""2024-11-12T18:30:36.444Z""","null","+","null","","","","","","",""
"","","","","","image-keyboard-response","255","2620984","0.0-17.0-0.1-1.7","a71b4k8han","","a71b4k8han","""2024-11-12T18:30:36.444Z""","1087","materials/imgs/D94.png","arrowright","","[""materials/imgs/D105.png"",""materials/imgs/D56.png""]","false","random","","",""
"","","","","","html-keyboard-response","256","2621492","0.0-17.0-0.1-0.8","a71b4k8han","","a71b4k8han","""2024-11-12T18:30:36.444Z""","null","+","null","","","","","","",""
"","","","","","image-keyboard-response","257","2623893","0.0-17.0-0.1-1.8","a71b4k8han","","a71b4k8han","""2024-11-12T18:30:36.444Z""","2396","materials/imgs/D81.png","arrowleft","","[""materials/imgs/D103.png"",""materials/imgs/D8.png""]","false","random","","",""
"","","","","","html-keyboard-response","258","2624401","0.0-17.0-0.1-0.9","a71b4k8han","","a71b4k8han","""2024-11-12T18:30:36.444Z""","null","+","null","","","","","","",""
"","","","","","image-keyboard-response","259","2626045","0.0-17.0-0.1-1.9","a71b4k8han","","a71b4k8han","""2024-11-12T18:30:36.444Z""","1640","materials/imgs/D78.png","arrowright","","[""materials/imgs/D36.png"",""materials/imgs/D84.png""]","false","random","","",""
"","","","","","html-keyboard-response","260","2626553","0.0-17.0-0.1-0.10","a71b4k8han","","a71b4k8han","""2024-11-12T18:30:36.444Z""","null","+","null","","","","","","",""
"","","","","","image-keyboard-response","261","2628535","0.0-17.0-0.1-1.10","a71b4k8han","","a71b4k8han","""2024-11-12T18:30:36.444Z""","1978","materials/imgs/D11.png","arrowright","","[""materials/imgs/D65.png"",""materials/imgs/D20.png""]","false","random","","",""
"","","","","","html-keyboard-response","262","2629041","0.0-17.0-0.1-0.11","a71b4k8han","","a71b4k8han","""2024-11-12T18:30:36.444Z""","null","+","null","","","","","","",""
"","","","","","image-keyboard-response","263","2630659","0.0-17.0-0.1-1.11","a71b4k8han","","a71b4k8han","""2024-11-12T18:30:36.444Z""","1613","materials/imgs/D8.png","arrowleft","","[""materials/imgs/D81.png"",""materials/imgs/D29.png""]","false","random","","",""
"","","","","","html-keyboard-response","264","2631170","0.0-17.0-0.1-0.12","a71b4k8han","","a71b4k8han","""2024-11-12T18:30:36.444Z""","null","+","null","","","","","","",""
"","","","","","image-keyboard-response","265","2632624","0.0-17.0-0.1-1.12","a71b4k8han","","a71b4k8han","""2024-11-12T18:30:36.444Z""","1451","materials/imgs/D32.png","arrowright","","[""materials/imgs/D85.png"",""materials/imgs/D19.png""]","false","random","","",""
"","","","","","html-keyboard-response","266","2633133","0.0-17.0-0.1-0.13","a71b4k8han","","a71b4k8han","""2024-11-12T18:30:36.444Z""","null","+","null","","","","","","",""
"","","","","","image-keyboard-response","267","2634135","0.0-17.0-0.1-1.13","a71b4k8han","","a71b4k8han","""2024-11-12T18:30:36.444Z""","999","materials/imgs/D55.png","arrowright","","[""materials/imgs/D101.png"",""materials/imgs/D103.png""]","false","random","","",""
"","","","","","html-keyboard-response","268","2634645","0.0-17.0-1.1-0.1","a71b4k8han","","a71b4k8han","""2024-11-12T18:30:36.444Z""","null","+","null","","","","","","",""
"","","","","","image-keyboard-response","269","2635182","0.0-17.0-1.1-1.1","a71b4k8han","","a71b4k8han","""2024-11-12T18:30:36.444Z""","536","materials/imgs/D46.png","arrowleft","","[""materials/imgs/D46.png"",""materials/imgs/D26.png""]","","check","materials/imgs/D46.png","0","true"
"","","","","","html-keyboard-response","270","2635689","0.0-17.0-2.1-0.2","a71b4k8han","","a71b4k8han","""2024-11-12T18:30:36.444Z""","null","+","null","","","","","","",""
"","","","","","image-keyboard-response","271","2637601","0.0-17.0-2.1-1.2","a71b4k8han","","a71b4k8han","""2024-11-12T18:30:36.444Z""","1910","materials/imgs/D46.png","arrowleft","","[""materials/imgs/D92.png"",""materials/imgs/D77.png""]","false","validation","","",""
"","","","","","html-keyboard-response","272","2638109","0.0-17.0-2.1-0.3","a71b4k8han","","a71b4k8han","""2024-11-12T18:30:36.444Z""","null","+","null","","","","","","",""
"","","","","","image-keyboard-response","273","2640055","0.0-17.0-2.1-1.3","a71b4k8han","","a71b4k8han","""2024-11-12T18:30:36.444Z""","1944","materials/imgs/D26.png","arrowleft","","[""materials/imgs/D36.png"",""materials/imgs/D92.png""]","false","validation","","",""
"","","","","","html-keyboard-response","274","2640568","0.0-17.0-0.2-0.14","a71b4k8han","","a71b4k8han","""2024-11-12T18:30:36.444Z""","null","+","null","","","","","","",""
"","","","","","image-keyboard-response","275","2642735","0.0-17.0-0.2-1.14","a71b4k8han","","a71b4k8han","""2024-11-12T18:30:36.444Z""","2164","materials/imgs/D46.png","arrowleft","","[""materials/imgs/D64.png"",""materials/imgs/D29.png""]","false","random","","",""
"","","","","","html-keyboard-response","276","2643245","0.0-17.0-0.2-0.15","a71b4k8han","","a71b4k8han","""2024-11-12T18:30:36.444Z""","null","+","null","","","","","","",""
"","","","","","image-keyboard-response","277","2644481","0.0-17.0-0.2-1.15","a71b4k8han","","a71b4k8han","""2024-11-12T18:30:36.444Z""","1232","materials/imgs/D17.png","arrowright","","[""materials/imgs/D79.png"",""materials/imgs/D103.png""]","false","random","","",""
"","","","","","html-keyboard-response","278","2644990","0.0-17.0-0.2-0.16","a71b4k8han","","a71b4k8han","""2024-11-12T18:30:36.444Z""","null","+","null","","","","","","",""
"","","","","","image-keyboard-response","279","2646346","0.0-17.0-0.2-1.16","a71b4k8han","","a71b4k8han","""2024-11-12T18:30:36.444Z""","1353","materials/imgs/D32.png","arrowright","","[""materials/imgs/D51.png"",""materials/imgs/D3.png""]","false","random","","",""
"","","","","","html-keyboard-response","280","2646857","0.0-17.0-0.2-0.17","a71b4k8han","","a71b4k8han","""2024-11-12T18:30:36.444Z""","null","+","null","","","","","","",""
"","","","","","image-keyboard-response","281","2649284","0.0-17.0-0.2-1.17","a71b4k8han","","a71b4k8han","""2024-11-12T18:30:36.444Z""","2422","materials/imgs/D18.png","arrowright","","[""materials/imgs/D3.png"",""materials/imgs/D94.png""]","false","random","","",""
"","","","","","html-keyboard-response","282","2649793","0.0-17.0-0.2-0.18","a71b4k8han","","a71b4k8han","""2024-11-12T18:30:36.444Z""","null","+","null","","","","","","",""
"","","","","","image-keyboard-response","283","2650385","0.0-17.0-0.2-1.18","a71b4k8han","","a71b4k8han","""2024-11-12T18:30:36.444Z""","588","materials/imgs/D17.png","arrowleft","","[""materials/imgs/D85.png"",""materials/imgs/D18.png""]","false","random","","",""
"","","","","","html-keyboard-response","284","2650894","0.0-17.0-0.2-0.19","a71b4k8han","","a71b4k8han","""2024-11-12T18:30:36.444Z""","null","+","null","","","","","","",""
"","","","","","image-keyboard-response","285","2651744","0.0-17.0-0.2-1.19","a71b4k8han","","a71b4k8han","""2024-11-12T18:30:36.444Z""","838","materials/imgs/D32.png","arrowleft","","[""materials/imgs/D81.png"",""materials/imgs/D105.png""]","false","random","","",""
"","","","","","html-keyboard-response","286","2652255","0.0-17.0-0.2-0.20","a71b4k8han","","a71b4k8han","""2024-11-12T18:30:36.444Z""","null","+","null","","","","","","",""
"","","","","","image-keyboard-response","287","2653801","0.0-17.0-0.2-1.20","a71b4k8han","","a71b4k8han","""2024-11-12T18:30:36.444Z""","1544","materials/imgs/D53.png","arrowright","","[""materials/imgs/D34.png"",""materials/imgs/D106.png""]","false","random","","",""
"","","","","","html-keyboard-response","288","2654311","0.0-17.0-1.2-0.2","a71b4k8han","","a71b4k8han","""2024-11-12T18:30:36.444Z""","null","+","null","","","","","","",""
"","","","","","image-keyboard-response","289","2654844","0.0-17.0-1.2-1.2","a71b4k8han","","a71b4k8han","""2024-11-12T18:30:36.444Z""","530","materials/imgs/D26.png","arrowleft","","[""materials/imgs/D26.png"",""materials/imgs/D46.png""]","","check","materials/imgs/D26.png","0","true"
"","","","","","html-keyboard-response","290","2655355","0.0-17.0-2.2-0.4","a71b4k8han","","a71b4k8han","""2024-11-12T18:30:36.444Z""","null","+","null","","","","","","",""
"","","","","","image-keyboard-response","291","2656457","0.0-17.0-2.2-1.4","a71b4k8han","","a71b4k8han","""2024-11-12T18:30:36.444Z""","1099","materials/imgs/D16.png","arrowleft","","[""materials/imgs/D52.png"",""materials/imgs/D25.png""]","false","validation","","",""
"","","","","","html-keyboard-response","292","2656964","0.0-17.0-2.2-0.5","a71b4k8han","","a71b4k8han","""2024-11-12T18:30:36.444Z""","null","+","null","","","","","","",""
"","","","","","image-keyboard-response","293","2657830","0.0-17.0-2.2-1.5","a71b4k8han","","a71b4k8han","""2024-11-12T18:30:36.444Z""","863","materials/imgs/D92.png","arrowleft","","[""materials/imgs/D56.png"",""materials/imgs/D77.png""]","false","validation","","",""
"","","","","","html-keyboard-response","294","2658339","0.0-17.0-0.3-0.21","a71b4k8han","","a71b4k8han","""2024-11-12T18:30:36.444Z""","null","+","null","","","","","","",""
"","","","","","image-keyboard-response","295","2659556","0.0-17.0-0.3-1.21","a71b4k8han","","a71b4k8han","""2024-11-12T18:30:36.444Z""","1214","materials/imgs/D94.png","arrowright","","[""materials/imgs/D106.png"",""materials/imgs/D47.png""]","false","random","","",""
"","","","","","html-keyboard-response","296","2660068","0.0-17.0-0.3-0.22","a71b4k8han","","a71b4k8han","""2024-11-12T18:30:36.444Z""","null","+","null","","","","","","",""
"","","","","","image-keyboard-response","297","2662445","0.0-17.0-0.3-1.22","a71b4k8han","","a71b4k8han","""2024-11-12T18:30:36.444Z""","2373","materials/imgs/D75.png","arrowleft","","[""materials/imgs/D24.png"",""materials/imgs/D83.png""]","false","random","","",""
"","","","","","html-keyboard-response","298","2662955","0.0-17.0-0.3-0.23","a71b4k8han","","a71b4k8han","""2024-11-12T18:30:36.444Z""","null","+","null","","","","","","",""
"","","","","","image-keyboard-response","299","2663809","0.0-17.0-0.3-1.23","a71b4k8han","","a71b4k8han","""2024-11-12T18:30:36.444Z""","853","materials/imgs/D85.png","arrowleft","","[""materials/imgs/D103.png"",""materials/imgs/D64.png""]","false","random","","",""
"","","","","","html-keyboard-response","300","2664318","0.0-17.0-0.3-0.24","a71b4k8han","","a71b4k8han","""2024-11-12T18:30:36.444Z""","null","+","null","","","","","","",""
"","","","","","image-keyboard-response","301","2665439","0.0-17.0-0.3-1.24","a71b4k8han","","a71b4k8han","""2024-11-12T18:30:36.444Z""","1120","materials/imgs/D25.png","arrowright","","[""materials/imgs/D21.png"",""materials/imgs/D55.png""]","false","random","","",""
"","","","","","html-keyboard-response","302","2665944","0.0-17.0-0.3-0.25","a71b4k8han","","a71b4k8han","""2024-11-12T18:30:36.444Z""","null","+","null","","","","","","",""
"","","","","","image-keyboard-response","303","2667595","0.0-17.0-0.3-1.25","a71b4k8han","","a71b4k8han","""2024-11-12T18:30:36.444Z""","1650","materials/imgs/D64.png","arrowleft","","[""materials/imgs/D16.png"",""materials/imgs/D66.png""]","false","random","","",""
"","","","","","html-keyboard-response","304","2668110","0.0-17.0-0.3-0.26","a71b4k8han","","a71b4k8han","""2024-11-12T18:30:36.444Z""","null","+","null","","","","","","",""
"","","","","","image-keyboard-response","305","2669038","0.0-17.0-0.3-1.26","a71b4k8han","","a71b4k8han","""2024-11-12T18:30:36.444Z""","927","materials/imgs/D79.png","arrowright","","[""materials/imgs/D57.png"",""materials/imgs/D68.png""]","false","random","","",""
"","","","","","html-keyboard-response","306","2669542","0.0-17.0-0.3-0.27","a71b4k8han","","a71b4k8han","""2024-11-12T18:30:36.444Z""","null","+","null","","","","","","",""
"","","","","","image-keyboard-response","307","2670635","0.0-17.0-0.3-1.27","a71b4k8han","","a71b4k8han","""2024-11-12T18:30:36.444Z""","1092","materials/imgs/D4.png","arrowleft","","[""materials/imgs/D111.png"",""materials/imgs/D8.png""]","false","random","","",""
"","","","","","html-keyboard-response","308","2671143","0.0-17.0-1.3-0.3","a71b4k8han","","a71b4k8han","""2024-11-12T18:30:36.444Z""","null","+","null","","","","","","",""
"","","","","","image-keyboard-response","309","2671785","0.0-17.0-1.3-1.3","a71b4k8han","","a71b4k8han","""2024-11-12T18:30:36.444Z""","639","materials/imgs/D101.png","arrowright","","[""materials/imgs/D106.png"",""materials/imgs/D101.png""]","","check","materials/imgs/D101.png","1","true"
"","","","","","html-keyboard-response","310","2672302","0.0-17.0-2.3-0.6","a71b4k8han","","a71b4k8han","""2024-11-12T18:30:36.444Z""","null","+","null","","","","","","",""
"","","","","","image-keyboard-response","311","2673009","0.0-17.0-2.3-1.6","a71b4k8han","","a71b4k8han","""2024-11-12T18:30:36.444Z""","704","materials/imgs/D106.png","arrowleft","","[""materials/imgs/D57.png"",""materials/imgs/D18.png""]","false","validation","","",""
"","","","","","html-keyboard-response","312","2673519","0.0-17.0-2.3-0.7","a71b4k8han","","a71b4k8han","""2024-11-12T18:30:36.444Z""","null","+","null","","","","","","",""
"","","","","","image-keyboard-response","313","2674563","0.0-17.0-2.3-1.7","a71b4k8han","","a71b4k8han","""2024-11-12T18:30:36.444Z""","1042","materials/imgs/D102.png","arrowright","","[""materials/imgs/D32.png"",""materials/imgs/D111.png""]","false","validation","","",""
"","","","","","html-keyboard-response","314","2675065","0.0-17.0-0.4-0.28","a71b4k8han","","a71b4k8han","""2024-11-12T18:30:36.444Z""","null","+","null","","","","","","",""
"","","","","","image-keyboard-response","315","2676493","0.0-17.0-0.4-1.28","a71b4k8han","","a71b4k8han","""2024-11-12T18:30:36.444Z""","1424","materials/imgs/D64.png","arrowright","","[""materials/imgs/D79.png"",""materials/imgs/D101.png""]","false","random","","",""
"","","","","","html-keyboard-response","316","2677002","0.0-17.0-0.4-0.29","a71b4k8han","","a71b4k8han","""2024-11-12T18:30:36.444Z""","null","+","null","","","","","","",""
"","","","","","image-keyboard-response","317","2677899","0.0-17.0-0.4-1.29","a71b4k8han","","a71b4k8han","""2024-11-12T18:30:36.444Z""","894","materials/imgs/D94.png","arrowleft","","[""materials/imgs/D56.png"",""materials/imgs/D49.png""]","false","random","","",""
"","","","","","html-keyboard-response","318","2678407","0.0-17.0-0.4-0.30","a71b4k8han","","a71b4k8han","""2024-11-12T18:30:36.444Z""","null","+","null","","","","","","",""
"","","","","","image-keyboard-response","319","2679201","0.0-17.0-0.4-1.30","a71b4k8han","","a71b4k8han","""2024-11-12T18:30:36.444Z""","792","materials/imgs/D84.png","arrowright","","[""materials/imgs/D48.png"",""materials/imgs/D1.png""]","false","random","","",""
"","","","","","html-keyboard-response","320","2679709","0.0-17.0-0.4-0.31","a71b4k8han","","a71b4k8han","""2024-11-12T18:30:36.444Z""","null","+","null","","","","","","",""
"","","","","","image-keyboard-response","321","2682293","0.0-17.0-0.4-1.31","a71b4k8han","","a71b4k8han","""2024-11-12T18:30:36.444Z""","2580","materials/imgs/D37.png","arrowright","","[""materials/imgs/D8.png"",""materials/imgs/D74.png""]","false","random","","",""
"","","","","","html-keyboard-response","322","2682803","0.0-17.0-0.4-0.32","a71b4k8han","","a71b4k8han","""2024-11-12T18:30:36.444Z""","null","+","null","","","","","","",""
"","","","","","image-keyboard-response","323","2683894","0.0-17.0-0.4-1.32","a71b4k8han","","a71b4k8han","""2024-11-12T18:30:36.444Z""","1088","materials/imgs/D83.png","arrowleft","","[""materials/imgs/D85.png"",""materials/imgs/D78.png""]","false","random","","",""
"","","","","","html-keyboard-response","324","2684403","0.0-17.0-0.4-0.33","a71b4k8han","","a71b4k8han","""2024-11-12T18:30:36.444Z""","null","+","null","","","","","","",""
"","","","","","image-keyboard-response","325","2685860","0.0-17.0-0.4-1.33","a71b4k8han","","a71b4k8han","""2024-11-12T18:30:36.444Z""","1454","materials/imgs/D37.png","arrowleft","","[""materials/imgs/D79.png"",""materials/imgs/D95.png""]","false","random","","",""
"","","","","","html-keyboard-response","326","2686369","0.0-17.0-0.4-0.34","a71b4k8han","","a71b4k8han","""2024-11-12T18:30:36.444Z""","null","+","null","","","","","","",""
"","","","","","image-keyboard-response","327","2687822","0.0-17.0-0.4-1.34","a71b4k8han","","a71b4k8han","""2024-11-12T18:30:36.444Z""","1450","materials/imgs/D95.png","arrowleft","","[""materials/imgs/D85.png"",""materials/imgs/D75.png""]","false","random","","",""
"","","","","","html-keyboard-response","328","2688333","0.0-17.0-1.4-0.4","a71b4k8han","","a71b4k8han","""2024-11-12T18:30:36.444Z""","null","+","null","","","","","","",""
"","","","","","image-keyboard-response","329","2688883","0.0-17.0-1.4-1.4","a71b4k8han","","a71b4k8han","""2024-11-12T18:30:36.444Z""","546","materials/imgs/D18.png","arrowright","","[""materials/imgs/D8.png"",""materials/imgs/D18.png""]","","check","materials/imgs/D18.png","1","true"
"","","","","","html-keyboard-response","330","2689393","0.0-17.0-2.4-0.8","a71b4k8han","","a71b4k8han","""2024-11-12T18:30:36.444Z""","null","+","null","","","","","","",""
"","","","","","image-keyboard-response","331","2691371","0.0-17.0-2.4-1.8","a71b4k8han","","a71b4k8han","""2024-11-12T18:30:36.444Z""","1974","materials/imgs/D20.png","arrowleft","","[""materials/imgs/D84.png"",""materials/imgs/D85.png""]","false","validation","","",""
"","","","","","html-keyboard-response","332","2691878","0.0-17.0-2.4-0.9","a71b4k8han","","a71b4k8han","""2024-11-12T18:30:36.444Z""","null","+","null","","","","","","",""
"","","","","","image-keyboard-response","333","2693093","0.0-17.0-2.4-1.9","a71b4k8han","","a71b4k8han","""2024-11-12T18:30:36.444Z""","1213","materials/imgs/D25.png","arrowright","","[""materials/imgs/D103.png"",""materials/imgs/D64.png""]","false","validation","","",""
"","","","","","html-button-response","334","2694243","0.0-18.0","a71b4k8han","","a71b4k8han","""2024-11-12T18:30:36.444Z""","1148","You have completed 75% of the trials. Please click 'Continue' when you are ready proceed.","0","","","","","","",""
"","","","","","html-keyboard-response","335","2694750","0.0-19.0-0.0-0.0","a71b4k8han","","a71b4k8han","""2024-11-12T18:30:36.444Z""","null","+","null","","","","","","",""
"","","","","","image-keyboard-response","336","2696721","0.0-19.0-0.0-1.0","a71b4k8han","","a71b4k8han","""2024-11-12T18:30:36.444Z""","1967","materials/imgs/D65.png","arrowleft","","[""materials/imgs/D4.png"",""materials/imgs/D102.png""]","false","random","","",""
"","","","","","html-keyboard-response","337","2697228","0.0-19.0-0.0-0.1","a71b4k8han","","a71b4k8han","""2024-11-12T18:30:36.444Z""","null","+","null","","","","","","",""
"","","","","","image-keyboard-response","338","2699031","0.0-19.0-0.0-1.1","a71b4k8han","","a71b4k8han","""2024-11-12T18:30:36.444Z""","1799","materials/imgs/D85.png","arrowleft","","[""materials/imgs/D19.png"",""materials/imgs/D36.png""]","false","random","","",""
"","","","","","html-keyboard-response","339","2699538","0.0-19.0-0.0-0.2","a71b4k8han","","a71b4k8han","""2024-11-12T18:30:36.444Z""","null","+","null","","","","","","",""
"","","","","","image-keyboard-response","340","2701606","0.0-19.0-0.0-1.2","a71b4k8han","","a71b4k8han","""2024-11-12T18:30:36.444Z""","2062","materials/imgs/D83.png","arrowright","","[""materials/imgs/D4.png"",""materials/imgs/D65.png""]","false","random","","",""
"","","","","","html-keyboard-response","341","2702109","0.0-19.0-0.0-0.3","a71b4k8han","","a71b4k8han","""2024-11-12T18:30:36.444Z""","null","+","null","","","","","","",""
"","","","","","image-keyboard-response","342","2704488","0.0-19.0-0.0-1.3","a71b4k8han","","a71b4k8han","""2024-11-12T18:30:36.444Z""","2375","materials/imgs/D6.png","arrowright","","[""materials/imgs/D11.png"",""materials/imgs/D85.png""]","false","random","","",""
"","","","","","html-keyboard-response","343","2704989","0.0-19.0-0.0-0.4","a71b4k8han","","a71b4k8han","""2024-11-12T18:30:36.444Z""","null","+","null","","","","","","",""
"","","","","","image-keyboard-response","344","2706266","0.0-19.0-0.0-1.4","a71b4k8han","","a71b4k8han","""2024-11-12T18:30:36.444Z""","1276","materials/imgs/D82.png","arrowright","","[""materials/imgs/D106.png"",""materials/imgs/D9.png""]","false","random","","",""
"","","","","","html-keyboard-response","345","2706776","0.0-19.0-0.0-0.5","a71b4k8han","","a71b4k8han","""2024-11-12T18:30:36.444Z""","null","+","null","","","","","","",""
"","","","","","image-keyboard-response","346","2708159","0.0-19.0-0.0-1.5","a71b4k8han","","a71b4k8han","""2024-11-12T18:30:36.444Z""","1380","materials/imgs/D52.png","arrowleft","","[""materials/imgs/D14.png"",""materials/imgs/D57.png""]","false","random","","",""
"","","","","","html-keyboard-response","347","2708671","0.0-19.0-0.0-0.6","a71b4k8han","","a71b4k8han","""2024-11-12T18:30:36.444Z""","null","+","null","","","","","","",""
"","","","","","image-keyboard-response","348","2710614","0.0-19.0-0.0-1.6","a71b4k8han","","a71b4k8han","""2024-11-12T18:30:36.444Z""","1939","materials/imgs/D77.png","arrowleft","","[""materials/imgs/D52.png"",""materials/imgs/D82.png""]","false","random","","",""
"","","","","","html-keyboard-response","349","2711125","0.0-19.0-1.0-0.0","a71b4k8han","","a71b4k8han","""2024-11-12T18:30:36.444Z""","null","+","null","","","","","","",""
"","","","","","image-keyboard-response","350","2712421","0.0-19.0-1.0-1.0","a71b4k8han","","a71b4k8han","""2024-11-12T18:30:36.444Z""","1293","materials/imgs/D53.png","arrowright","","[""materials/imgs/D64.png"",""materials/imgs/D53.png""]","","check","materials/imgs/D53.png","1","true"
"","","","","","html-keyboard-response","351","2712924","0.0-19.0-2.0-0.0","a71b4k8han","","a71b4k8han","""2024-11-12T18:30:36.444Z""","null","+","null","","","","","","",""
"","","","","","image-keyboard-response","352","2714094","0.0-19.0-2.0-1.0","a71b4k8han","","a71b4k8han","""2024-11-12T18:30:36.444Z""","1167","materials/imgs/D76.png","arrowleft","","[""materials/imgs/D83.png"",""materials/imgs/D6.png""]","false","validation","","",""
"","","","","","html-keyboard-response","353","2714601","0.0-19.0-2.0-0.1","a71b4k8han","","a71b4k8han","""2024-11-12T18:30:36.444Z""","null","+","null","","","","","","",""
"","","","","","image-keyboard-response","354","2716731","0.0-19.0-2.0-1.1","a71b4k8han","","a71b4k8han","""2024-11-12T18:30:36.444Z""","2128","materials/imgs/D3.png","arrowleft","","[""materials/imgs/D79.png"",""materials/imgs/D48.png""]","false","validation","","",""
"","","","","","html-keyboard-response","355","2717242","0.0-19.0-0.1-0.7","a71b4k8han","","a71b4k8han","""2024-11-12T18:30:36.444Z""","null","+","null","","","","","","",""
"","","","","","image-keyboard-response","356","2718447","0.0-19.0-0.1-1.7","a71b4k8han","","a71b4k8han","""2024-11-12T18:30:36.444Z""","1202","materials/imgs/D81.png","arrowright","","[""materials/imgs/D94.png"",""materials/imgs/D78.png""]","false","random","","",""
"","","","","","html-keyboard-response","357","2718957","0.0-19.0-0.1-0.8","a71b4k8han","","a71b4k8han","""2024-11-12T18:30:36.444Z""","null","+","null","","","","","","",""
"","","","","","image-keyboard-response","358","2720677","0.0-19.0-0.1-1.8","a71b4k8han","","a71b4k8han","""2024-11-12T18:30:36.444Z""","1716","materials/imgs/D83.png","arrowright","","[""materials/imgs/D35.png"",""materials/imgs/D22.png""]","false","random","","",""
"","","","","","html-keyboard-response","359","2721187","0.0-19.0-0.1-0.9","a71b4k8han","","a71b4k8han","""2024-11-12T18:30:36.444Z""","null","+","null","","","","","","",""
"","","","","","image-keyboard-response","360","2722907","0.0-19.0-0.1-1.9","a71b4k8han","","a71b4k8han","""2024-11-12T18:30:36.444Z""","1719","materials/imgs/D35.png","arrowright","","[""materials/imgs/D81.png"",""materials/imgs/D11.png""]","false","random","","",""
"","","","","","html-keyboard-response","361","2723408","0.0-19.0-0.1-0.10","a71b4k8han","","a71b4k8han","""2024-11-12T18:30:36.444Z""","null","+","null","","","","","","",""
"","","","","","image-keyboard-response","362","2724151","0.0-19.0-0.1-1.10","a71b4k8han","","a71b4k8han","""2024-11-12T18:30:36.444Z""","740","materials/imgs/D84.png","arrowright","","[""materials/imgs/D21.png"",""materials/imgs/D103.png""]","false","random","","",""
"","","","","","html-keyboard-response","363","2724667","0.0-19.0-0.1-0.11","a71b4k8han","","a71b4k8han","""2024-11-12T18:30:36.444Z""","null","+","null","","","","","","",""
"","","","","","image-keyboard-response","364","2726755","0.0-19.0-0.1-1.11","a71b4k8han","","a71b4k8han","""2024-11-12T18:30:36.444Z""","2083","materials/imgs/D32.png","arrowleft","","[""materials/imgs/D101.png"",""materials/imgs/D56.png""]","false","random","","",""
"","","","","","html-keyboard-response","365","2727264","0.0-19.0-0.1-0.12","a71b4k8han","","a71b4k8han","""2024-11-12T18:30:36.444Z""","null","+","null","","","","","","",""
"","","","","","image-keyboard-response","366","2729067","0.0-19.0-0.1-1.12","a71b4k8han","","a71b4k8han","""2024-11-12T18:30:36.444Z""","1799","materials/imgs/D101.png","arrowleft","","[""materials/imgs/D74.png"",""materials/imgs/D76.png""]","false","random","","",""
"","","","","","html-keyboard-response","367","2729575","0.0-19.0-0.1-0.13","a71b4k8han","","a71b4k8han","""2024-11-12T18:30:36.444Z""","null","+","null","","","","","","",""
"","","","","","image-keyboard-response","368","2731960","0.0-19.0-0.1-1.13","a71b4k8han","","a71b4k8han","""2024-11-12T18:30:36.444Z""","2382","materials/imgs/D34.png","arrowright","","[""materials/imgs/D101.png"",""materials/imgs/D36.png""]","false","random","","",""
"","","","","","html-keyboard-response","369","2732469","0.0-19.0-1.1-0.1","a71b4k8han","","a71b4k8han","""2024-11-12T18:30:36.444Z""","null","+","null","","","","","","",""
"","","","","","image-keyboard-response","370","2733305","0.0-19.0-1.1-1.1","a71b4k8han","","a71b4k8han","""2024-11-12T18:30:36.444Z""","833","materials/imgs/D18.png","arrowright","","[""materials/imgs/D8.png"",""materials/imgs/D18.png""]","","check","materials/imgs/D18.png","1","true"
"","","","","","html-keyboard-response","371","2733819","0.0-19.0-2.1-0.2","a71b4k8han","","a71b4k8han","""2024-11-12T18:30:36.444Z""","null","+","null","","","","","","",""
"","","","","","image-keyboard-response","372","2736037","0.0-19.0-2.1-1.2","a71b4k8han","","a71b4k8han","""2024-11-12T18:30:36.444Z""","2214","materials/imgs/D95.png","arrowleft","","[""materials/imgs/D36.png"",""materials/imgs/D4.png""]","false","validation","","",""
"","","","","","html-keyboard-response","373","2736548","0.0-19.0-2.1-0.3","a71b4k8han","","a71b4k8han","""2024-11-12T18:30:36.444Z""","null","+","null","","","","","","",""
"","","","","","image-keyboard-response","374","2738729","0.0-19.0-2.1-1.3","a71b4k8han","","a71b4k8han","""2024-11-12T18:30:36.444Z""","2179","materials/imgs/D3.png","arrowleft","","[""materials/imgs/D79.png"",""materials/imgs/D48.png""]","false","validation","","",""
"","","","","","html-keyboard-response","375","2739238","0.0-19.0-0.2-0.14","a71b4k8han","","a71b4k8han","""2024-11-12T18:30:36.444Z""","null","+","null","","","","","","",""
"","","","","","image-keyboard-response","376","2743967","0.0-19.0-0.2-1.14","a71b4k8han","","a71b4k8han","""2024-11-12T18:30:36.444Z""","4725","materials/imgs/D11.png","arrowleft","","[""materials/imgs/D57.png"",""materials/imgs/D9.png""]","false","random","","",""
"","","","","","html-keyboard-response","377","2744477","0.0-19.0-0.2-0.15","a71b4k8han","","a71b4k8han","""2024-11-12T18:30:36.444Z""","null","+","null","","","","","","",""
"","","","","","image-keyboard-response","378","2745049","0.0-19.0-0.2-1.15","a71b4k8han","","a71b4k8han","""2024-11-12T18:30:36.444Z""","568","materials/imgs/D56.png","arrowright","","[""materials/imgs/D34.png"",""materials/imgs/D1.png""]","false","random","","",""
"","","","","","html-keyboard-response","379","2745559","0.0-19.0-0.2-0.16","a71b4k8han","","a71b4k8han","""2024-11-12T18:30:36.444Z""","null","+","null","","","","","","",""
"","","","","","image-keyboard-response","380","2746401","0.0-19.0-0.2-1.16","a71b4k8han","","a71b4k8han","""2024-11-12T18:30:36.444Z""","838","materials/imgs/D21.png","arrowright","","[""materials/imgs/D81.png"",""materials/imgs/D84.png""]","false","random","","",""
"","","","","","html-keyboard-response","381","2746908","0.0-19.0-0.2-0.17","a71b4k8han","","a71b4k8han","""2024-11-12T18:30:36.444Z""","null","+","null","","","","","","",""
"","","","","","image-keyboard-response","382","2747643","0.0-19.0-0.2-1.17","a71b4k8han","","a71b4k8han","""2024-11-12T18:30:36.444Z""","733","materials/imgs/D57.png","arrowleft","","[""materials/imgs/D77.png"",""materials/imgs/D9.png""]","false","random","","",""
"","","","","","html-keyboard-response","383","2748152","0.0-19.0-0.2-0.18","a71b4k8han","","a71b4k8han","""2024-11-12T18:30:36.444Z""","null","+","null","","","","","","",""
"","","","","","image-keyboard-response","384","2750325","0.0-19.0-0.2-1.18","a71b4k8han","","a71b4k8han","""2024-11-12T18:30:36.444Z""","2170","materials/imgs/D3.png","arrowright","","[""materials/imgs/D83.png"",""materials/imgs/D81.png""]","false","random","","",""
"","","","","","html-keyboard-response","385","2750834","0.0-19.0-0.2-0.19","a71b4k8han","","a71b4k8han","""2024-11-12T18:30:36.444Z""","null","+","null","","","","","","",""
"","","","","","image-keyboard-response","386","2752609","0.0-19.0-0.2-1.19","a71b4k8han","","a71b4k8han","""2024-11-12T18:30:36.444Z""","1772","materials/imgs/D24.png","arrowleft","","[""materials/imgs/D32.png"",""materials/imgs/D3.png""]","false","random","","",""
"","","","","","html-keyboard-response","387","2753115","0.0-19.0-0.2-0.20","a71b4k8han","","a71b4k8han","""2024-11-12T18:30:36.444Z""","null","+","null","","","","","","",""
"","","","","","image-keyboard-response","388","2755188","0.0-19.0-0.2-1.20","a71b4k8han","","a71b4k8han","""2024-11-12T18:30:36.444Z""","2071","materials/imgs/D80.png","arrowleft","","[""materials/imgs/D22.png"",""materials/imgs/D34.png""]","false","random","","",""
"","","","","","html-keyboard-response","389","2755699","0.0-19.0-1.2-0.2","a71b4k8han","","a71b4k8han","""2024-11-12T18:30:36.444Z""","null","+","null","","","","","","",""
"","","","","","image-keyboard-response","390","2756498","0.0-19.0-1.2-1.2","a71b4k8han","","a71b4k8han","""2024-11-12T18:30:36.444Z""","795","materials/imgs/D106.png","arrowleft","","[""materials/imgs/D106.png"",""materials/imgs/D101.png""]","","check","materials/imgs/D106.png","0","true"
"","","","","","html-keyboard-response","391","2757006","0.0-19.0-2.2-0.4","a71b4k8han","","a71b4k8han","""2024-11-12T18:30:36.444Z""","null","+","null","","","","","","",""
"","","","","","image-keyboard-response","392","2757745","0.0-19.0-2.2-1.4","a71b4k8han","","a71b4k8han","""2024-11-12T18:30:36.444Z""","737","materials/imgs/D57.png","arrowright","","[""materials/imgs/D111.png"",""materials/imgs/D4.png""]","false","validation","","",""
"","","","","","html-keyboard-response","393","2758251","0.0-19.0-2.2-0.5","a71b4k8han","","a71b4k8han","""2024-11-12T18:30:36.444Z""","null","+","null","","","","","","",""
"","","","","","image-keyboard-response","394","2761178","0.0-19.0-2.2-1.5","a71b4k8han","","a71b4k8han","""2024-11-12T18:30:36.444Z""","2926","materials/imgs/D49.png","arrowright","","[""materials/imgs/D8.png"",""materials/imgs/D101.png""]","false","validation","","",""
"","","","","","html-keyboard-response","395","2761687","0.0-19.0-0.3-0.21","a71b4k8han","","a71b4k8han","""2024-11-12T18:30:36.444Z""","null","+","null","","","","","","",""
"","","","","","image-keyboard-response","396","2763452","0.0-19.0-0.3-1.21","a71b4k8han","","a71b4k8han","""2024-11-12T18:30:36.444Z""","1761","materials/imgs/D20.png","arrowright","","[""materials/imgs/D76.png"",""materials/imgs/D11.png""]","false","random","","",""
"","","","","","html-keyboard-response","397","2763964","0.0-19.0-0.3-0.22","a71b4k8han","","a71b4k8han","""2024-11-12T18:30:36.444Z""","null","+","null","","","","","","",""
"","","","","","image-keyboard-response","398","2765476","0.0-19.0-0.3-1.22","a71b4k8han","","a71b4k8han","""2024-11-12T18:30:36.444Z""","1507","materials/imgs/D29.png","arrowleft","","[""materials/imgs/D65.png"",""materials/imgs/D51.png""]","false","random","","",""
"","","","","","html-keyboard-response","399","2765985","0.0-19.0-0.3-0.23","a71b4k8han","","a71b4k8han","""2024-11-12T18:30:36.444Z""","null","+","null","","","","","","",""
"","","","","","image-keyboard-response","400","2767784","0.0-19.0-0.3-1.23","a71b4k8han","","a71b4k8han","""2024-11-12T18:30:36.444Z""","1795","materials/imgs/D96.png","arrowleft","","[""materials/imgs/D49.png"",""materials/imgs/D34.png""]","false","random","","",""
"","","","","","html-keyboard-response","401","2768295","0.0-19.0-0.3-0.24","a71b4k8han","","a71b4k8han","""2024-11-12T18:30:36.444Z""","null","+","null","","","","","","",""
"","","","","","image-keyboard-response","402","2769577","0.0-19.0-0.3-1.24","a71b4k8han","","a71b4k8han","""2024-11-12T18:30:36.444Z""","1279","materials/imgs/D105.png","arrowright","","[""materials/imgs/D75.png"",""materials/imgs/D20.png""]","false","random","","",""
"","","","","","html-keyboard-response","403","2770087","0.0-19.0-0.3-0.25","a71b4k8han","","a71b4k8han","""2024-11-12T18:30:36.444Z""","null","+","null","","","","","","",""
"","","","","","image-keyboard-response","404","2771119","0.0-19.0-0.3-1.25","a71b4k8han","","a71b4k8han","""2024-11-12T18:30:36.444Z""","1028","materials/imgs/D80.png","arrowleft","","[""materials/imgs/D4.png"",""materials/imgs/D36.png""]","false","random","","",""
"","","","","","html-keyboard-response","405","2771628","0.0-19.0-0.3-0.26","a71b4k8han","","a71b4k8han","""2024-11-12T18:30:36.444Z""","null","+","null","","","","","","",""
"","","","","","image-keyboard-response","406","2773148","0.0-19.0-0.3-1.26","a71b4k8han","","a71b4k8han","""2024-11-12T18:30:36.444Z""","1515","materials/imgs/D95.png","arrowright","","[""materials/imgs/D103.png"",""materials/imgs/D84.png""]","false","random","","",""
"","","","","","html-keyboard-response","407","2773664","0.0-19.0-0.3-0.27","a71b4k8han","","a71b4k8han","""2024-11-12T18:30:36.444Z""","null","+","null","","","","","","",""
"","","","","","image-keyboard-response","408","2774997","0.0-19.0-0.3-1.27","a71b4k8han","","a71b4k8han","""2024-11-12T18:30:36.444Z""","1329","materials/imgs/D37.png","arrowleft","","[""materials/imgs/D76.png"",""materials/imgs/D3.png""]","false","random","","",""
"","","","","","html-keyboard-response","409","2775506","0.0-19.0-1.3-0.3","a71b4k8han","","a71b4k8han","""2024-11-12T18:30:36.444Z""","null","+","null","","","","","","",""
"","","","","","image-keyboard-response","410","2776254","0.0-19.0-1.3-1.3","a71b4k8han","","a71b4k8han","""2024-11-12T18:30:36.444Z""","745","materials/imgs/D18.png","arrowright","","[""materials/imgs/D8.png"",""materials/imgs/D18.png""]","","check","materials/imgs/D18.png","1","true"
"","","","","","html-keyboard-response","411","2776754","0.0-19.0-2.3-0.6","a71b4k8han","","a71b4k8han","""2024-11-12T18:30:36.444Z""","null","+","null","","","","","","",""
"","","","","","image-keyboard-response","412","2777657","0.0-19.0-2.3-1.6","a71b4k8han","","a71b4k8han","""2024-11-12T18:30:36.444Z""","895","materials/imgs/D81.png","arrowright","","[""materials/imgs/D105.png"",""materials/imgs/D24.png""]","false","validation","","",""
"","","","","","html-keyboard-response","413","2778167","0.0-19.0-2.3-0.7","a71b4k8han","","a71b4k8han","""2024-11-12T18:30:36.444Z""","null","+","null","","","","","","",""
"","","","","","image-keyboard-response","414","2779087","0.0-19.0-2.3-1.7","a71b4k8han","","a71b4k8han","""2024-11-12T18:30:36.444Z""","917","materials/imgs/D75.png","arrowleft","","[""materials/imgs/D96.png"",""materials/imgs/D4.png""]","false","validation","","",""
"","","","","","html-keyboard-response","415","2779590","0.0-19.0-0.4-0.28","a71b4k8han","","a71b4k8han","""2024-11-12T18:30:36.444Z""","null","+","null","","","","","","",""
"","","","","","image-keyboard-response","416","2780687","0.0-19.0-0.4-1.28","a71b4k8han","","a71b4k8han","""2024-11-12T18:30:36.444Z""","1094","materials/imgs/D34.png","arrowright","","[""materials/imgs/D32.png"",""materials/imgs/D95.png""]","false","random","","",""
"","","","","","html-keyboard-response","417","2781201","0.0-19.0-0.4-0.29","a71b4k8han","","a71b4k8han","""2024-11-12T18:30:36.444Z""","null","+","null","","","","","","",""
"","","","","","image-keyboard-response","418","2782251","0.0-19.0-0.4-1.29","a71b4k8han","","a71b4k8han","""2024-11-12T18:30:36.444Z""","1047","materials/imgs/D84.png","arrowleft","","[""materials/imgs/D9.png"",""materials/imgs/D26.png""]","false","random","","",""
"","","","","","html-keyboard-response","419","2782755","0.0-19.0-0.4-0.30","a71b4k8han","","a71b4k8han","""2024-11-12T18:30:36.444Z""","null","+","null","","","","","","",""
"","","","","","image-keyboard-response","420","2783963","0.0-19.0-0.4-1.30","a71b4k8han","","a71b4k8han","""2024-11-12T18:30:36.444Z""","1206","materials/imgs/D46.png","arrowleft","","[""materials/imgs/D92.png"",""materials/imgs/D16.png""]","false","random","","",""
"","","","","","html-keyboard-response","421","2784471","0.0-19.0-0.4-0.31","a71b4k8han","","a71b4k8han","""2024-11-12T18:30:36.444Z""","null","+","null","","","","","","",""
"","","","","","image-keyboard-response","422","2786211","0.0-19.0-0.4-1.31","a71b4k8han","","a71b4k8han","""2024-11-12T18:30:36.444Z""","1737","materials/imgs/D26.png","arrowleft","","[""materials/imgs/D52.png"",""materials/imgs/D21.png""]","false","random","","",""
"","","","","","html-keyboard-response","423","2786720","0.0-19.0-0.4-0.32","a71b4k8han","","a71b4k8han","""2024-11-12T18:30:36.444Z""","null","+","null","","","","","","",""
"","","","","","image-keyboard-response","424","2788940","0.0-19.0-0.4-1.32","a71b4k8han","","a71b4k8han","""2024-11-12T18:30:36.444Z""","2218","materials/imgs/D11.png","arrowright","","[""materials/imgs/D21.png"",""materials/imgs/D4.png""]","false","random","","",""
"","","","","","html-keyboard-response","425","2789456","0.0-19.0-0.4-0.33","a71b4k8han","","a71b4k8han","""2024-11-12T18:30:36.444Z""","null","+","null","","","","","","",""
"","","","","","image-keyboard-response","426","2790495","0.0-19.0-0.4-1.33","a71b4k8han","","a71b4k8han","""2024-11-12T18:30:36.444Z""","1037","materials/imgs/D6.png","arrowright","","[""materials/imgs/D46.png"",""materials/imgs/D106.png""]","false","random","","",""
"","","","","","html-keyboard-response","427","2791004","0.0-19.0-0.4-0.34","a71b4k8han","","a71b4k8han","""2024-11-12T18:30:36.444Z""","null","+","null","","","","","","",""
"","","","","","image-keyboard-response","428","2792089","0.0-19.0-0.4-1.34","a71b4k8han","","a71b4k8han","""2024-11-12T18:30:36.444Z""","1082","materials/imgs/D36.png","arrowright","","[""materials/imgs/D83.png"",""materials/imgs/D87.png""]","false","random","","",""
"","","","","","html-keyboard-response","429","2792601","0.0-19.0-1.4-0.4","a71b4k8han","","a71b4k8han","""2024-11-12T18:30:36.444Z""","null","+","null","","","","","","",""
"","","","","","image-keyboard-response","430","2793316","0.0-19.0-1.4-1.4","a71b4k8han","","a71b4k8han","""2024-11-12T18:30:36.444Z""","713","materials/imgs/D18.png","arrowright","","[""materials/imgs/D8.png"",""materials/imgs/D18.png""]","","check","materials/imgs/D18.png","1","true"
"","","","","","html-keyboard-response","431","2793825","0.0-19.0-2.4-0.8","a71b4k8han","","a71b4k8han","""2024-11-12T18:30:36.444Z""","null","+","null","","","","","","",""
"","","","","","image-keyboard-response","432","2796949","0.0-19.0-2.4-1.8","a71b4k8han","","a71b4k8han","""2024-11-12T18:30:36.444Z""","3119","materials/imgs/D37.png","arrowleft","","[""materials/imgs/D84.png"",""materials/imgs/D111.png""]","false","validation","","",""
"","","","","","html-keyboard-response","433","2797457","0.0-19.0-2.4-0.9","a71b4k8han","","a71b4k8han","""2024-11-12T18:30:36.444Z""","null","+","null","","","","","","",""
"","","","","","image-keyboard-response","434","2798656","0.0-19.0-2.4-1.9","a71b4k8han","","a71b4k8han","""2024-11-12T18:30:36.444Z""","1198","materials/imgs/D35.png","arrowleft","","[""materials/imgs/D83.png"",""materials/imgs/D24.png""]","false","validation","","",""
