"success","timeout","failed_images","failed_audio","failed_video","trial_type","trial_index","time_elapsed","internal_node_id","subject_id","sona_id","subjectID","dateInfo","rt","stimulus","response","question_order","choices","speedy","sampleAlg","selected_image","selected_index","correct"
"true","false","[]","[]","[]","preload","0","326","0.0-0.0","asjp7tndpd","","asjp7tndpd","""2024-11-13T15:45:28.464Z""","","","","","","","","","",""
"true","","","","","fullscreen","1","3859","0.0-1.0","asjp7tndpd","","asjp7tndpd","""2024-11-13T15:45:28.464Z""","","","","","","","","","",""
"","","","","","html-keyboard-response","2","3872","0.0-2.0","asjp7tndpd","","asjp7tndpd","""2024-11-13T15:45:28.464Z""","null","","null","","","","","","",""
"","","","","","html-button-response","3","10707","0.0-3.0","asjp7tndpd","","asjp7tndpd","""2024-11-13T15:45:28.464Z""","6833","<div style='text-align:center; font-size:20px; line-height:25px; width: 1200px;'>
                Welcome to our experiment! <br>
                <br>At the bottom of this screen, you will see a button that says 'Begin Experiment.
                <br>Please only click that button when you are ready to complete the 25 minute experiment in one sitting. <br>
                <br> Once you click that button, it will not be possible to restart the experiment. <br><br>","0","","","","","","",""
"true","","","","","fullscreen","4","13337","0.0-4.0","asjp7tndpd","","asjp7tndpd","""2024-11-13T15:45:28.464Z""","","","","","","","","","",""
"","","","","","survey-multi-select","5","43656","0.0-5.0","asjp7tndpd","","asjp7tndpd","""2024-11-13T15:45:28.464Z""","30312","","{""Consent"":[""<strong>I consent</strong>""]}","[0]","","","","","",""
"","","","","","html-button-response","6","47316","0.0-6.0","asjp7tndpd","","asjp7tndpd","""2024-11-13T15:45:28.464Z""","3658","Welcome! <p> This experiment involves two parts: demographic information, followed by the experimental task.<p> It will take about 25 minutes to complete both parts.","0","","","","","","",""
"","","","","","survey-text","7","56568","0.0-7.0","asjp7tndpd","","asjp7tndpd","""2024-11-13T15:45:28.464Z""","9248","","{""Age"":""21"",""Gender"":""Female"",""Race/ethnicity"":""White""}","","","","","","",""
"","","","","","html-button-response","8","70930","0.0-8.0","asjp7tndpd","","asjp7tndpd","""2024-11-13T15:45:28.464Z""","14360","<div style='text-align: center;'>
      <p>In each trial of this task, you will see three texture images: one target item on top, and two choices beneath the target item.</p>
      <p><strong>Please select the item that is most like the target item.</strong></p>
      <p>To select the option on the <strong>LEFT</strong>, press the <strong>LEFT ARROW</strong> key. 
      To select the option on the <strong>RIGHT</strong>, press the <strong>RIGHT ARROW</strong> key.</p>
                  <!-- Target Image at the Top -->
      <div style='margin: 20px;'>
        <img src='materials/imgs/instruction_images/InstructionImg1D78.png' alt='Target Image' style='width:200px; height:auto;' />
        <p><em>Target Image</em></p>
      </div>

      <!-- Two Choice Images Below -->
      <div style='display: flex; justify-content: center;'>
        <div style='margin-right: 50px;'>
          <img src='materials/imgs/instruction_images/InstructionImg2D34.png' alt='Choice Image 1' style='width:150px; height:auto;' />
          <p><em><strong>LEFT ARROW</strong></em></p>
        </div>
        <div style='margin-left: 50px;'>
          <img src='materials/imgs/instruction_images/InstructionImg3D80.png' alt='Choice Image 2' style='width:150px; height:auto;' />
          <p><em><strong>RIGHT ARROW</strong></em></p>
        </div>
      </div>
    </div>

      <p>When you are ready to proceed, please click 'Continue' to begin practice.</p>","0","","","","","","",""
"","","","","","html-keyboard-response","9","73434","0.0-9.0","asjp7tndpd","","asjp7tndpd","""2024-11-13T15:45:28.464Z""","null","+","null","","","","","","",""
"","","","","","html-keyboard-response","10","73937","0.0-10.0-0.0-0.0","asjp7tndpd","","asjp7tndpd","""2024-11-13T15:45:28.464Z""","null","+","null","","","","","","",""
"","","","","","image-keyboard-response","11","76336","0.0-10.0-0.0-1.0","asjp7tndpd","","asjp7tndpd","""2024-11-13T15:45:28.464Z""","2392","materials/imgs/D4.png","arrowright","","[""materials/imgs/D6.png"",""materials/imgs/D35.png""]","false","random","","",""
"","","","","","html-keyboard-response","12","76839","0.0-10.0-0.0-0.1","asjp7tndpd","","asjp7tndpd","""2024-11-13T15:45:28.464Z""","null","+","null","","","","","","",""
"","","","","","image-keyboard-response","13","78688","0.0-10.0-0.0-1.1","asjp7tndpd","","asjp7tndpd","""2024-11-13T15:45:28.464Z""","1847","materials/imgs/D83.png","arrowleft","","[""materials/imgs/D35.png"",""materials/imgs/D47.png""]","false","random","","",""
"","","","","","html-keyboard-response","14","79190","0.0-10.0-0.0-0.2","asjp7tndpd","","asjp7tndpd","""2024-11-13T15:45:28.464Z""","null","+","null","","","","","","",""
"","","","","","image-keyboard-response","15","80729","0.0-10.0-0.0-1.2","asjp7tndpd","","asjp7tndpd","""2024-11-13T15:45:28.464Z""","1537","materials/imgs/D66.png","arrowright","","[""materials/imgs/D68.png"",""materials/imgs/D24.png""]","false","random","","",""
"","","","","","html-keyboard-response","16","81230","0.0-10.0-0.0-0.3","asjp7tndpd","","asjp7tndpd","""2024-11-13T15:45:28.464Z""","null","+","null","","","","","","",""
"","","","","","image-keyboard-response","17","82264","0.0-10.0-0.0-1.3","asjp7tndpd","","asjp7tndpd","""2024-11-13T15:45:28.464Z""","1031","materials/imgs/D24.png","arrowright","","[""materials/imgs/D79.png"",""materials/imgs/D4.png""]","false","random","","",""
"","","","","","html-keyboard-response","18","82765","0.0-10.0-0.0-0.4","asjp7tndpd","","asjp7tndpd","""2024-11-13T15:45:28.464Z""","null","+","null","","","","","","",""
"","","","","","image-keyboard-response","19","84852","0.0-10.0-0.0-1.4","asjp7tndpd","","asjp7tndpd","""2024-11-13T15:45:28.464Z""","2084","materials/imgs/D95.png","arrowright","","[""materials/imgs/D46.png"",""materials/imgs/D80.png""]","false","random","","",""
"","","","","","html-keyboard-response","20","85353","0.0-10.0-0.0-0.5","asjp7tndpd","","asjp7tndpd","""2024-11-13T15:45:28.464Z""","null","+","null","","","","","","",""
"","","","","","image-keyboard-response","21","87974","0.0-10.0-0.0-1.5","asjp7tndpd","","asjp7tndpd","""2024-11-13T15:45:28.464Z""","2619","materials/imgs/D65.png","arrowright","","[""materials/imgs/D81.png"",""materials/imgs/D3.png""]","false","random","","",""
"","","","","","html-keyboard-response","22","88476","0.0-10.0-0.0-0.6","asjp7tndpd","","asjp7tndpd","""2024-11-13T15:45:28.464Z""","null","+","null","","","","","","",""
"","","","","","image-keyboard-response","23","90038","0.0-10.0-0.0-1.6","asjp7tndpd","","asjp7tndpd","""2024-11-13T15:45:28.464Z""","1559","materials/imgs/D81.png","arrowleft","","[""materials/imgs/D14.png"",""materials/imgs/D102.png""]","false","random","","",""
"","","","","","html-keyboard-response","24","90539","0.0-10.0-0.0-0.7","asjp7tndpd","","asjp7tndpd","""2024-11-13T15:45:28.464Z""","null","+","null","","","","","","",""
"","","","","","image-keyboard-response","25","91387","0.0-10.0-0.0-1.7","asjp7tndpd","","asjp7tndpd","""2024-11-13T15:45:28.464Z""","846","materials/imgs/D92.png","arrowleft","","[""materials/imgs/D29.png"",""materials/imgs/D8.png""]","false","random","","",""
"","","","","","html-keyboard-response","26","91889","0.0-10.0-0.0-0.8","asjp7tndpd","","asjp7tndpd","""2024-11-13T15:45:28.464Z""","null","+","null","","","","","","",""
"","","","","","image-keyboard-response","27","93115","0.0-10.0-0.0-1.8","asjp7tndpd","","asjp7tndpd","""2024-11-13T15:45:28.464Z""","1222","materials/imgs/D104.png","arrowright","","[""materials/imgs/D46.png"",""materials/imgs/D19.png""]","false","random","","",""
"","","","","","html-keyboard-response","28","93616","0.0-10.0-0.0-0.9","asjp7tndpd","","asjp7tndpd","""2024-11-13T15:45:28.464Z""","null","+","null","","","","","","",""
"","","","","","image-keyboard-response","29","95443","0.0-10.0-0.0-1.9","asjp7tndpd","","asjp7tndpd","""2024-11-13T15:45:28.464Z""","1824","materials/imgs/D17.png","arrowright","","[""materials/imgs/D104.png"",""materials/imgs/D24.png""]","false","random","","",""
"","","","","","html-button-response","30","102473","0.0-11.0","asjp7tndpd","","asjp7tndpd","""2024-11-13T15:45:28.464Z""","7029","<p>Great job!</p>
      <p>You are now ready to begin the experiment.</p>
      <p>There will be around 200 trials. You will have opportunities to take breaks at three stages of the trials.</p>
      <p>When you are ready to begin please click 'Continue'.</p>","0","","","","","","",""
"","","","","","html-keyboard-response","31","104977","0.0-12.0","asjp7tndpd","","asjp7tndpd","""2024-11-13T15:45:28.464Z""","null","+","null","","","","","","",""
"","","","","","html-keyboard-response","32","105479","0.0-13.0-0.0-0.0","asjp7tndpd","","asjp7tndpd","""2024-11-13T15:45:28.464Z""","null","+","null","","","","","","",""
"","","","","","image-keyboard-response","33","106426","0.0-13.0-0.0-1.0","asjp7tndpd","","asjp7tndpd","""2024-11-13T15:45:28.464Z""","935","materials/imgs/D17.png","arrowleft","","[""materials/imgs/D14.png"",""materials/imgs/D56.png""]","false","random","","",""
"","","","","","html-keyboard-response","34","106928","0.0-13.0-0.0-0.1","asjp7tndpd","","asjp7tndpd","""2024-11-13T15:45:28.464Z""","null","+","null","","","","","","",""
"","","","","","image-keyboard-response","35","107683","0.0-13.0-0.0-1.1","asjp7tndpd","","asjp7tndpd","""2024-11-13T15:45:28.464Z""","753","materials/imgs/D53.png","arrowright","","[""materials/imgs/D94.png"",""materials/imgs/D76.png""]","false","random","","",""
"","","","","","html-keyboard-response","36","108185","0.0-13.0-0.0-0.2","asjp7tndpd","","asjp7tndpd","""2024-11-13T15:45:28.464Z""","null","+","null","","","","","","",""
"","","","","","image-keyboard-response","37","109397","0.0-13.0-0.0-1.2","asjp7tndpd","","asjp7tndpd","""2024-11-13T15:45:28.464Z""","1209","materials/imgs/D3.png","arrowleft","","[""materials/imgs/D101.png"",""materials/imgs/D96.png""]","false","random","","",""
"","","","","","html-keyboard-response","38","109899","0.0-13.0-0.0-0.3","asjp7tndpd","","asjp7tndpd","""2024-11-13T15:45:28.464Z""","null","+","null","","","","","","",""
"","","","","","image-keyboard-response","39","111647","0.0-13.0-0.0-1.3","asjp7tndpd","","asjp7tndpd","""2024-11-13T15:45:28.464Z""","1745","materials/imgs/D11.png","arrowright","","[""materials/imgs/D77.png"",""materials/imgs/D29.png""]","false","random","","",""
"","","","","","html-keyboard-response","40","112148","0.0-13.0-0.0-0.4","asjp7tndpd","","asjp7tndpd","""2024-11-13T15:45:28.464Z""","null","+","null","","","","","","",""
"","","","","","image-keyboard-response","41","113671","0.0-13.0-0.0-1.4","asjp7tndpd","","asjp7tndpd","""2024-11-13T15:45:28.464Z""","1520","materials/imgs/D96.png","arrowleft","","[""materials/imgs/D34.png"",""materials/imgs/D85.png""]","false","random","","",""
"","","","","","html-keyboard-response","42","114172","0.0-13.0-0.0-0.5","asjp7tndpd","","asjp7tndpd","""2024-11-13T15:45:28.464Z""","null","+","null","","","","","","",""
"","","","","","image-keyboard-response","43","116903","0.0-13.0-0.0-1.5","asjp7tndpd","","asjp7tndpd","""2024-11-13T15:45:28.464Z""","2730","materials/imgs/D4.png","arrowleft","","[""materials/imgs/D17.png"",""materials/imgs/D49.png""]","false","random","","",""
"","","","","","html-keyboard-response","44","117405","0.0-13.0-0.0-0.6","asjp7tndpd","","asjp7tndpd","""2024-11-13T15:45:28.464Z""","null","+","null","","","","","","",""
"","","","","","image-keyboard-response","45","119938","0.0-13.0-0.0-1.6","asjp7tndpd","","asjp7tndpd","""2024-11-13T15:45:28.464Z""","2530","materials/imgs/D34.png","arrowright","","[""materials/imgs/D47.png"",""materials/imgs/D4.png""]","false","random","","",""
"","","","","","html-keyboard-response","46","120440","0.0-13.0-1.0-0.0","asjp7tndpd","","asjp7tndpd","""2024-11-13T15:45:28.464Z""","null","+","null","","","","","","",""
"","","","","","image-keyboard-response","47","121421","0.0-13.0-1.0-1.0","asjp7tndpd","","asjp7tndpd","""2024-11-13T15:45:28.464Z""","979","materials/imgs/D78.png","arrowright","","[""materials/imgs/D76.png"",""materials/imgs/D78.png""]","","check","materials/imgs/D78.png","1","true"
"","","","","","html-keyboard-response","48","121923","0.0-13.0-2.0-0.0","asjp7tndpd","","asjp7tndpd","""2024-11-13T15:45:28.464Z""","null","+","null","","","","","","",""
"","","","","","image-keyboard-response","49","122720","0.0-13.0-2.0-1.0","asjp7tndpd","","asjp7tndpd","""2024-11-13T15:45:28.464Z""","796","materials/imgs/D32.png","arrowleft","","[""materials/imgs/D68.png"",""materials/imgs/D96.png""]","false","validation","","",""
"","","","","","html-keyboard-response","50","123222","0.0-13.0-2.0-0.1","asjp7tndpd","","asjp7tndpd","""2024-11-13T15:45:28.464Z""","null","+","null","","","","","","",""
"","","","","","image-keyboard-response","51","124166","0.0-13.0-2.0-1.1","asjp7tndpd","","asjp7tndpd","""2024-11-13T15:45:28.464Z""","943","materials/imgs/D32.png","arrowleft","","[""materials/imgs/D68.png"",""materials/imgs/D96.png""]","false","validation","","",""
"","","","","","html-keyboard-response","52","124667","0.0-13.0-0.1-0.7","asjp7tndpd","","asjp7tndpd","""2024-11-13T15:45:28.464Z""","null","+","null","","","","","","",""
"","","","","","image-keyboard-response","53","125879","0.0-13.0-0.1-1.7","asjp7tndpd","","asjp7tndpd","""2024-11-13T15:45:28.464Z""","1209","materials/imgs/D85.png","arrowright","","[""materials/imgs/D74.png"",""materials/imgs/D80.png""]","false","random","","",""
"","","","","","html-keyboard-response","54","126380","0.0-13.0-0.1-0.8","asjp7tndpd","","asjp7tndpd","""2024-11-13T15:45:28.464Z""","null","+","null","","","","","","",""
"","","","","","image-keyboard-response","55","128125","0.0-13.0-0.1-1.8","asjp7tndpd","","asjp7tndpd","""2024-11-13T15:45:28.464Z""","1742","materials/imgs/D76.png","arrowright","","[""materials/imgs/D34.png"",""materials/imgs/D14.png""]","false","random","","",""
"","","","","","html-keyboard-response","56","128627","0.0-13.0-0.1-0.9","asjp7tndpd","","asjp7tndpd","""2024-11-13T15:45:28.464Z""","null","+","null","","","","","","",""
"","","","","","image-keyboard-response","57","129874","0.0-13.0-0.1-1.9","asjp7tndpd","","asjp7tndpd","""2024-11-13T15:45:28.464Z""","1246","materials/imgs/D34.png","arrowright","","[""materials/imgs/D105.png"",""materials/imgs/D87.png""]","false","random","","",""
"","","","","","html-keyboard-response","58","130375","0.0-13.0-0.1-0.10","asjp7tndpd","","asjp7tndpd","""2024-11-13T15:45:28.464Z""","null","+","null","","","","","","",""
"","","","","","image-keyboard-response","59","133811","0.0-13.0-0.1-1.10","asjp7tndpd","","asjp7tndpd","""2024-11-13T15:45:28.464Z""","3434","materials/imgs/D82.png","arrowright","","[""materials/imgs/D8.png"",""materials/imgs/D56.png""]","false","random","","",""
"","","","","","html-keyboard-response","60","134312","0.0-13.0-0.1-0.11","asjp7tndpd","","asjp7tndpd","""2024-11-13T15:45:28.464Z""","null","+","null","","","","","","",""
"","","","","","image-keyboard-response","61","136602","0.0-13.0-0.1-1.11","asjp7tndpd","","asjp7tndpd","""2024-11-13T15:45:28.464Z""","2288","materials/imgs/D29.png","arrowleft","","[""materials/imgs/D6.png"",""materials/imgs/D65.png""]","false","random","","",""
"","","","","","html-keyboard-response","62","137104","0.0-13.0-0.1-0.12","asjp7tndpd","","asjp7tndpd","""2024-11-13T15:45:28.464Z""","null","+","null","","","","","","",""
"","","","","","image-keyboard-response","63","138222","0.0-13.0-0.1-1.12","asjp7tndpd","","asjp7tndpd","""2024-11-13T15:45:28.464Z""","1116","materials/imgs/D84.png","arrowright","","[""materials/imgs/D47.png"",""materials/imgs/D9.png""]","false","random","","",""
"","","","","","html-keyboard-response","64","138724","0.0-13.0-0.1-0.13","asjp7tndpd","","asjp7tndpd","""2024-11-13T15:45:28.464Z""","null","+","null","","","","","","",""
"","","","","","image-keyboard-response","65","139776","0.0-13.0-0.1-1.13","asjp7tndpd","","asjp7tndpd","""2024-11-13T15:45:28.464Z""","1050","materials/imgs/D105.png","arrowleft","","[""materials/imgs/D104.png"",""materials/imgs/D101.png""]","false","random","","",""
"","","","","","html-keyboard-response","66","140278","0.0-13.0-1.1-0.1","asjp7tndpd","","asjp7tndpd","""2024-11-13T15:45:28.464Z""","null","+","null","","","","","","",""
"","","","","","image-keyboard-response","67","141361","0.0-13.0-1.1-1.1","asjp7tndpd","","asjp7tndpd","""2024-11-13T15:45:28.464Z""","1081","materials/imgs/D106.png","arrowleft","","[""materials/imgs/D106.png"",""materials/imgs/D101.png""]","","check","materials/imgs/D106.png","0","true"
"","","","","","html-keyboard-response","68","141864","0.0-13.0-2.1-0.2","asjp7tndpd","","asjp7tndpd","""2024-11-13T15:45:28.464Z""","null","+","null","","","","","","",""
"","","","","","image-keyboard-response","69","146171","0.0-13.0-2.1-1.2","asjp7tndpd","","asjp7tndpd","""2024-11-13T15:45:28.464Z""","4306","materials/imgs/D66.png","arrowleft","","[""materials/imgs/D85.png"",""materials/imgs/D25.png""]","false","validation","","",""
"","","","","","html-keyboard-response","70","146672","0.0-13.0-2.1-0.3","asjp7tndpd","","asjp7tndpd","""2024-11-13T15:45:28.464Z""","null","+","null","","","","","","",""
"","","","","","image-keyboard-response","71","149161","0.0-13.0-2.1-1.3","asjp7tndpd","","asjp7tndpd","""2024-11-13T15:45:28.464Z""","2487","materials/imgs/D65.png","arrowleft","","[""materials/imgs/D4.png"",""materials/imgs/D16.png""]","false","validation","","",""
"","","","","","html-keyboard-response","72","149662","0.0-13.0-0.2-0.14","asjp7tndpd","","asjp7tndpd","""2024-11-13T15:45:28.464Z""","null","+","null","","","","","","",""
"","","","","","image-keyboard-response","73","150683","0.0-13.0-0.2-1.14","asjp7tndpd","","asjp7tndpd","""2024-11-13T15:45:28.464Z""","1019","materials/imgs/D92.png","arrowright","","[""materials/imgs/D79.png"",""materials/imgs/D81.png""]","false","random","","",""
"","","","","","html-keyboard-response","74","151185","0.0-13.0-0.2-0.15","asjp7tndpd","","asjp7tndpd","""2024-11-13T15:45:28.464Z""","null","+","null","","","","","","",""
"","","","","","image-keyboard-response","75","155876","0.0-13.0-0.2-1.15","asjp7tndpd","","asjp7tndpd","""2024-11-13T15:45:28.464Z""","4688","materials/imgs/D24.png","arrowright","","[""materials/imgs/D14.png"",""materials/imgs/D37.png""]","false","random","","",""
"","","","","","html-keyboard-response","76","156377","0.0-13.0-0.2-0.16","asjp7tndpd","","asjp7tndpd","""2024-11-13T15:45:28.464Z""","null","+","null","","","","","","",""
"","","","","","image-keyboard-response","77","157882","0.0-13.0-0.2-1.16","asjp7tndpd","","asjp7tndpd","""2024-11-13T15:45:28.464Z""","1502","materials/imgs/D96.png","arrowright","","[""materials/imgs/D74.png"",""materials/imgs/D81.png""]","false","random","","",""
"","","","","","html-keyboard-response","78","158383","0.0-13.0-0.2-0.17","asjp7tndpd","","asjp7tndpd","""2024-11-13T15:45:28.464Z""","null","+","null","","","","","","",""
"","","","","","image-keyboard-response","79","159425","0.0-13.0-0.2-1.17","asjp7tndpd","","asjp7tndpd","""2024-11-13T15:45:28.464Z""","1039","materials/imgs/D84.png","arrowleft","","[""materials/imgs/D80.png"",""materials/imgs/D51.png""]","false","random","","",""
"","","","","","html-keyboard-response","80","159926","0.0-13.0-0.2-0.18","asjp7tndpd","","asjp7tndpd","""2024-11-13T15:45:28.464Z""","null","+","null","","","","","","",""
"","","","","","image-keyboard-response","81","161866","0.0-13.0-0.2-1.18","asjp7tndpd","","asjp7tndpd","""2024-11-13T15:45:28.464Z""","1937","materials/imgs/D111.png","arrowleft","","[""materials/imgs/D55.png"",""materials/imgs/D37.png""]","false","random","","",""
"","","","","","html-keyboard-response","82","162367","0.0-13.0-0.2-0.19","asjp7tndpd","","asjp7tndpd","""2024-11-13T15:45:28.464Z""","null","+","null","","","","","","",""
"","","","","","image-keyboard-response","83","163874","0.0-13.0-0.2-1.19","asjp7tndpd","","asjp7tndpd","""2024-11-13T15:45:28.464Z""","1504","materials/imgs/D83.png","arrowleft","","[""materials/imgs/D85.png"",""materials/imgs/D68.png""]","false","random","","",""
"","","","","","html-keyboard-response","84","164375","0.0-13.0-0.2-0.20","asjp7tndpd","","asjp7tndpd","""2024-11-13T15:45:28.464Z""","null","+","null","","","","","","",""
"","","","","","image-keyboard-response","85","167231","0.0-13.0-0.2-1.20","asjp7tndpd","","asjp7tndpd","""2024-11-13T15:45:28.464Z""","2854","materials/imgs/D17.png","arrowleft","","[""materials/imgs/D46.png"",""materials/imgs/D48.png""]","false","random","","",""
"","","","","","html-keyboard-response","86","167733","0.0-13.0-1.2-0.2","asjp7tndpd","","asjp7tndpd","""2024-11-13T15:45:28.464Z""","null","+","null","","","","","","",""
"","","","","","image-keyboard-response","87","168405","0.0-13.0-1.2-1.2","asjp7tndpd","","asjp7tndpd","""2024-11-13T15:45:28.464Z""","670","materials/imgs/D76.png","arrowleft","","[""materials/imgs/D76.png"",""materials/imgs/D78.png""]","","check","materials/imgs/D76.png","0","true"
"","","","","","html-keyboard-response","88","168907","0.0-13.0-2.2-0.4","asjp7tndpd","","asjp7tndpd","""2024-11-13T15:45:28.464Z""","null","+","null","","","","","","",""
"","","","","","image-keyboard-response","89","170080","0.0-13.0-2.2-1.4","asjp7tndpd","","asjp7tndpd","""2024-11-13T15:45:28.464Z""","1171","materials/imgs/D25.png","arrowright","","[""materials/imgs/D103.png"",""materials/imgs/D64.png""]","false","validation","","",""
"","","","","","html-keyboard-response","90","170581","0.0-13.0-2.2-0.5","asjp7tndpd","","asjp7tndpd","""2024-11-13T15:45:28.464Z""","null","+","null","","","","","","",""
"","","","","","image-keyboard-response","91","172602","0.0-13.0-2.2-1.5","asjp7tndpd","","asjp7tndpd","""2024-11-13T15:45:28.464Z""","2019","materials/imgs/D68.png","arrowleft","","[""materials/imgs/D96.png"",""materials/imgs/D48.png""]","false","validation","","",""
"","","","","","html-keyboard-response","92","173103","0.0-13.0-0.3-0.21","asjp7tndpd","","asjp7tndpd","""2024-11-13T15:45:28.464Z""","null","+","null","","","","","","",""
"","","","","","image-keyboard-response","93","174468","0.0-13.0-0.3-1.21","asjp7tndpd","","asjp7tndpd","""2024-11-13T15:45:28.464Z""","1363","materials/imgs/D92.png","arrowright","","[""materials/imgs/D96.png"",""materials/imgs/D16.png""]","false","random","","",""
"","","","","","html-keyboard-response","94","174969","0.0-13.0-0.3-0.22","asjp7tndpd","","asjp7tndpd","""2024-11-13T15:45:28.464Z""","null","+","null","","","","","","",""
"","","","","","image-keyboard-response","95","176274","0.0-13.0-0.3-1.22","asjp7tndpd","","asjp7tndpd","""2024-11-13T15:45:28.464Z""","1301","materials/imgs/D80.png","arrowright","","[""materials/imgs/D66.png"",""materials/imgs/D76.png""]","false","random","","",""
"","","","","","html-keyboard-response","96","176776","0.0-13.0-0.3-0.23","asjp7tndpd","","asjp7tndpd","""2024-11-13T15:45:28.464Z""","null","+","null","","","","","","",""
"","","","","","image-keyboard-response","97","179632","0.0-13.0-0.3-1.23","asjp7tndpd","","asjp7tndpd","""2024-11-13T15:45:28.464Z""","2854","materials/imgs/D9.png","arrowleft","","[""materials/imgs/D52.png"",""materials/imgs/D106.png""]","false","random","","",""
"","","","","","html-keyboard-response","98","180133","0.0-13.0-0.3-0.24","asjp7tndpd","","asjp7tndpd","""2024-11-13T15:45:28.464Z""","null","+","null","","","","","","",""
"","","","","","image-keyboard-response","99","180850","0.0-13.0-0.3-1.24","asjp7tndpd","","asjp7tndpd","""2024-11-13T15:45:28.464Z""","714","materials/imgs/D84.png","arrowright","","[""materials/imgs/D35.png"",""materials/imgs/D29.png""]","false","random","","",""
"","","","","","html-keyboard-response","100","181351","0.0-13.0-0.3-0.25","asjp7tndpd","","asjp7tndpd","""2024-11-13T15:45:28.464Z""","null","+","null","","","","","","",""
"","","","","","image-keyboard-response","101","182686","0.0-13.0-0.3-1.25","asjp7tndpd","","asjp7tndpd","""2024-11-13T15:45:28.464Z""","1333","materials/imgs/D101.png","arrowleft","","[""materials/imgs/D95.png"",""materials/imgs/D80.png""]","false","random","","",""
"","","","","","html-keyboard-response","102","183187","0.0-13.0-0.3-0.26","asjp7tndpd","","asjp7tndpd","""2024-11-13T15:45:28.464Z""","null","+","null","","","","","","",""
"","","","","","image-keyboard-response","103","188272","0.0-13.0-0.3-1.26","asjp7tndpd","","asjp7tndpd","""2024-11-13T15:45:28.464Z""","5083","materials/imgs/D21.png","arrowright","","[""materials/imgs/D96.png"",""materials/imgs/D48.png""]","false","random","","",""
"","","","","","html-keyboard-response","104","188774","0.0-13.0-0.3-0.27","asjp7tndpd","","asjp7tndpd","""2024-11-13T15:45:28.464Z""","null","+","null","","","","","","",""
"","","","","","image-keyboard-response","105","192617","0.0-13.0-0.3-1.27","asjp7tndpd","","asjp7tndpd","""2024-11-13T15:45:28.464Z""","3841","materials/imgs/D79.png","arrowright","","[""materials/imgs/D26.png"",""materials/imgs/D66.png""]","false","random","","",""
"","","","","","html-keyboard-response","106","193118","0.0-13.0-1.3-0.3","asjp7tndpd","","asjp7tndpd","""2024-11-13T15:45:28.464Z""","null","+","null","","","","","","",""
"","","","","","image-keyboard-response","107","193873","0.0-13.0-1.3-1.3","asjp7tndpd","","asjp7tndpd","""2024-11-13T15:45:28.464Z""","752","materials/imgs/D101.png","arrowright","","[""materials/imgs/D106.png"",""materials/imgs/D101.png""]","","check","materials/imgs/D101.png","1","true"
"","","","","","html-keyboard-response","108","194374","0.0-13.0-2.3-0.6","asjp7tndpd","","asjp7tndpd","""2024-11-13T15:45:28.464Z""","null","+","null","","","","","","",""
"","","","","","image-keyboard-response","109","195281","0.0-13.0-2.3-1.6","asjp7tndpd","","asjp7tndpd","""2024-11-13T15:45:28.464Z""","905","materials/imgs/D3.png","arrowleft","","[""materials/imgs/D79.png"",""materials/imgs/D48.png""]","false","validation","","",""
"","","","","","html-keyboard-response","110","195783","0.0-13.0-2.3-0.7","asjp7tndpd","","asjp7tndpd","""2024-11-13T15:45:28.464Z""","null","+","null","","","","","","",""
"","","","","","image-keyboard-response","111","196950","0.0-13.0-2.3-1.7","asjp7tndpd","","asjp7tndpd","""2024-11-13T15:45:28.464Z""","1165","materials/imgs/D8.png","arrowleft","","[""materials/imgs/D101.png"",""materials/imgs/D52.png""]","false","validation","","",""
"","","","","","html-keyboard-response","112","197451","0.0-13.0-0.4-0.28","asjp7tndpd","","asjp7tndpd","""2024-11-13T15:45:28.464Z""","null","+","null","","","","","","",""
"","","","","","image-keyboard-response","113","200227","0.0-13.0-0.4-1.28","asjp7tndpd","","asjp7tndpd","""2024-11-13T15:45:28.464Z""","2774","materials/imgs/D26.png","arrowright","","[""materials/imgs/D6.png"",""materials/imgs/D1.png""]","false","random","","",""
"","","","","","html-keyboard-response","114","200729","0.0-13.0-0.4-0.29","asjp7tndpd","","asjp7tndpd","""2024-11-13T15:45:28.464Z""","null","+","null","","","","","","",""
"","","","","","image-keyboard-response","115","201723","0.0-13.0-0.4-1.29","asjp7tndpd","","asjp7tndpd","""2024-11-13T15:45:28.464Z""","992","materials/imgs/D57.png","arrowleft","","[""materials/imgs/D77.png"",""materials/imgs/D34.png""]","false","random","","",""
"","","","","","html-keyboard-response","116","202225","0.0-13.0-0.4-0.30","asjp7tndpd","","asjp7tndpd","""2024-11-13T15:45:28.464Z""","null","+","null","","","","","","",""
"","","","","","image-keyboard-response","117","203278","0.0-13.0-0.4-1.30","asjp7tndpd","","asjp7tndpd","""2024-11-13T15:45:28.464Z""","1051","materials/imgs/D68.png","arrowright","","[""materials/imgs/D56.png"",""materials/imgs/D111.png""]","false","random","","",""
"","","","","","html-keyboard-response","118","203779","0.0-13.0-0.4-0.31","asjp7tndpd","","asjp7tndpd","""2024-11-13T15:45:28.464Z""","null","+","null","","","","","","",""
"","","","","","image-keyboard-response","119","205660","0.0-13.0-0.4-1.31","asjp7tndpd","","asjp7tndpd","""2024-11-13T15:45:28.464Z""","1879","materials/imgs/D25.png","arrowleft","","[""materials/imgs/D11.png"",""materials/imgs/D79.png""]","false","random","","",""
"","","","","","html-keyboard-response","120","206162","0.0-13.0-0.4-0.32","asjp7tndpd","","asjp7tndpd","""2024-11-13T15:45:28.464Z""","null","+","null","","","","","","",""
"","","","","","image-keyboard-response","121","206997","0.0-13.0-0.4-1.32","asjp7tndpd","","asjp7tndpd","""2024-11-13T15:45:28.464Z""","833","materials/imgs/D53.png","arrowright","","[""materials/imgs/D74.png"",""materials/imgs/D17.png""]","false","random","","",""
"","","","","","html-keyboard-response","122","207499","0.0-13.0-0.4-0.33","asjp7tndpd","","asjp7tndpd","""2024-11-13T15:45:28.464Z""","null","+","null","","","","","","",""
"","","","","","image-keyboard-response","123","211723","0.0-13.0-0.4-1.33","asjp7tndpd","","asjp7tndpd","""2024-11-13T15:45:28.464Z""","4223","materials/imgs/D81.png","arrowright","","[""materials/imgs/D104.png"",""materials/imgs/D14.png""]","false","random","","",""
"","","","","","html-keyboard-response","124","212225","0.0-13.0-0.4-0.34","asjp7tndpd","","asjp7tndpd","""2024-11-13T15:45:28.464Z""","null","+","null","","","","","","",""
"","","","","","image-keyboard-response","125","214560","0.0-13.0-0.4-1.34","asjp7tndpd","","asjp7tndpd","""2024-11-13T15:45:28.464Z""","2333","materials/imgs/D78.png","arrowleft","","[""materials/imgs/D82.png"",""materials/imgs/D111.png""]","false","random","","",""
"","","","","","html-keyboard-response","126","215062","0.0-13.0-1.4-0.4","asjp7tndpd","","asjp7tndpd","""2024-11-13T15:45:28.464Z""","null","+","null","","","","","","",""
"","","","","","image-keyboard-response","127","215666","0.0-13.0-1.4-1.4","asjp7tndpd","","asjp7tndpd","""2024-11-13T15:45:28.464Z""","602","materials/imgs/D8.png","arrowright","","[""materials/imgs/D18.png"",""materials/imgs/D8.png""]","","check","materials/imgs/D8.png","1","true"
"","","","","","html-keyboard-response","128","216168","0.0-13.0-2.4-0.8","asjp7tndpd","","asjp7tndpd","""2024-11-13T15:45:28.464Z""","null","+","null","","","","","","",""
"","","","","","image-keyboard-response","129","218127","0.0-13.0-2.4-1.8","asjp7tndpd","","asjp7tndpd","""2024-11-13T15:45:28.464Z""","1958","materials/imgs/D47.png","arrowright","","[""materials/imgs/D1.png"",""materials/imgs/D52.png""]","false","validation","","",""
"","","","","","html-keyboard-response","130","218628","0.0-13.0-2.4-0.9","asjp7tndpd","","asjp7tndpd","""2024-11-13T15:45:28.464Z""","null","+","null","","","","","","",""
"","","","","","image-keyboard-response","131","220443","0.0-13.0-2.4-1.9","asjp7tndpd","","asjp7tndpd","""2024-11-13T15:45:28.464Z""","1813","materials/imgs/D103.png","arrowright","","[""materials/imgs/D76.png"",""materials/imgs/D106.png""]","false","validation","","",""
"","","","","","html-button-response","132","265067","0.0-14.0","asjp7tndpd","","asjp7tndpd","""2024-11-13T15:45:28.464Z""","44621","You have completed 25% of the trials. Please click 'Continue' when you are ready proceed.","0","","","","","","",""
"","","","","","html-keyboard-response","133","265569","0.0-15.0-0.0-0.0","asjp7tndpd","","asjp7tndpd","""2024-11-13T15:45:28.464Z""","null","+","null","","","","","","",""
"","","","","","image-keyboard-response","134","267772","0.0-15.0-0.0-1.0","asjp7tndpd","","asjp7tndpd","""2024-11-13T15:45:28.464Z""","2200","materials/imgs/D79.png","arrowleft","","[""materials/imgs/D32.png"",""materials/imgs/D74.png""]","false","random","","",""
"","","","","","html-keyboard-response","135","268274","0.0-15.0-0.0-0.1","asjp7tndpd","","asjp7tndpd","""2024-11-13T15:45:28.464Z""","null","+","null","","","","","","",""
"","","","","","image-keyboard-response","136","269395","0.0-15.0-0.0-1.1","asjp7tndpd","","asjp7tndpd","""2024-11-13T15:45:28.464Z""","1119","materials/imgs/D8.png","arrowleft","","[""materials/imgs/D3.png"",""materials/imgs/D53.png""]","false","random","","",""
"","","","","","html-keyboard-response","137","269896","0.0-15.0-0.0-0.2","asjp7tndpd","","asjp7tndpd","""2024-11-13T15:45:28.464Z""","null","+","null","","","","","","",""
"","","","","","image-keyboard-response","138","271118","0.0-15.0-0.0-1.2","asjp7tndpd","","asjp7tndpd","""2024-11-13T15:45:28.464Z""","1219","materials/imgs/D22.png","arrowleft","","[""materials/imgs/D34.png"",""materials/imgs/D37.png""]","false","random","","",""
"","","","","","html-keyboard-response","139","271619","0.0-15.0-0.0-0.3","asjp7tndpd","","asjp7tndpd","""2024-11-13T15:45:28.464Z""","null","+","null","","","","","","",""
"","","","","","image-keyboard-response","140","273315","0.0-15.0-0.0-1.3","asjp7tndpd","","asjp7tndpd","""2024-11-13T15:45:28.464Z""","1693","materials/imgs/D22.png","arrowleft","","[""materials/imgs/D55.png"",""materials/imgs/D85.png""]","false","random","","",""
"","","","","","html-keyboard-response","141","273816","0.0-15.0-0.0-0.4","asjp7tndpd","","asjp7tndpd","""2024-11-13T15:45:28.464Z""","null","+","null","","","","","","",""
"","","","","","image-keyboard-response","142","276571","0.0-15.0-0.0-1.4","asjp7tndpd","","asjp7tndpd","""2024-11-13T15:45:28.464Z""","2753","materials/imgs/D80.png","arrowright","","[""materials/imgs/D75.png"",""materials/imgs/D51.png""]","false","random","","",""
"","","","","","html-keyboard-response","143","277073","0.0-15.0-0.0-0.5","asjp7tndpd","","asjp7tndpd","""2024-11-13T15:45:28.464Z""","null","+","null","","","","","","",""
"","","","","","image-keyboard-response","144","278018","0.0-15.0-0.0-1.5","asjp7tndpd","","asjp7tndpd","""2024-11-13T15:45:28.464Z""","942","materials/imgs/D26.png","arrowleft","","[""materials/imgs/D3.png"",""materials/imgs/D19.png""]","false","random","","",""
"","","","","","html-keyboard-response","145","278519","0.0-15.0-0.0-0.6","asjp7tndpd","","asjp7tndpd","""2024-11-13T15:45:28.464Z""","null","+","null","","","","","","",""
"","","","","","image-keyboard-response","146","280173","0.0-15.0-0.0-1.6","asjp7tndpd","","asjp7tndpd","""2024-11-13T15:45:28.464Z""","1652","materials/imgs/D111.png","arrowright","","[""materials/imgs/D46.png"",""materials/imgs/D18.png""]","false","random","","",""
"","","","","","html-keyboard-response","147","280674","0.0-15.0-1.0-0.0","asjp7tndpd","","asjp7tndpd","""2024-11-13T15:45:28.464Z""","null","+","null","","","","","","",""
"","","","","","image-keyboard-response","148","281516","0.0-15.0-1.0-1.0","asjp7tndpd","","asjp7tndpd","""2024-11-13T15:45:28.464Z""","840","materials/imgs/D18.png","arrowright","","[""materials/imgs/D8.png"",""materials/imgs/D18.png""]","","check","materials/imgs/D18.png","1","true"
"","","","","","html-keyboard-response","149","282017","0.0-15.0-2.0-0.0","asjp7tndpd","","asjp7tndpd","""2024-11-13T15:45:28.464Z""","null","+","null","","","","","","",""
"","","","","","image-keyboard-response","150","282884","0.0-15.0-2.0-1.0","asjp7tndpd","","asjp7tndpd","""2024-11-13T15:45:28.464Z""","865","materials/imgs/D92.png","arrowleft","","[""materials/imgs/D56.png"",""materials/imgs/D77.png""]","false","validation","","",""
"","","","","","html-keyboard-response","151","283385","0.0-15.0-2.0-0.1","asjp7tndpd","","asjp7tndpd","""2024-11-13T15:45:28.464Z""","null","+","null","","","","","","",""
"","","","","","image-keyboard-response","152","285329","0.0-15.0-2.0-1.1","asjp7tndpd","","asjp7tndpd","""2024-11-13T15:45:28.464Z""","1942","materials/imgs/D20.png","arrowleft","","[""materials/imgs/D84.png"",""materials/imgs/D85.png""]","false","validation","","",""
"","","","","","html-keyboard-response","153","285831","0.0-15.0-0.1-0.7","asjp7tndpd","","asjp7tndpd","""2024-11-13T15:45:28.464Z""","null","+","null","","","","","","",""
"","","","","","image-keyboard-response","154","287637","0.0-15.0-0.1-1.7","asjp7tndpd","","asjp7tndpd","""2024-11-13T15:45:28.464Z""","1804","materials/imgs/D25.png","arrowright","","[""materials/imgs/D64.png"",""materials/imgs/D95.png""]","false","random","","",""
"","","","","","html-keyboard-response","155","288138","0.0-15.0-0.1-0.8","asjp7tndpd","","asjp7tndpd","""2024-11-13T15:45:28.464Z""","null","+","null","","","","","","",""
"","","","","","image-keyboard-response","156","291228","0.0-15.0-0.1-1.8","asjp7tndpd","","asjp7tndpd","""2024-11-13T15:45:28.464Z""","3088","materials/imgs/D111.png","arrowright","","[""materials/imgs/D11.png"",""materials/imgs/D17.png""]","false","random","","",""
"","","","","","html-keyboard-response","157","291729","0.0-15.0-0.1-0.9","asjp7tndpd","","asjp7tndpd","""2024-11-13T15:45:28.464Z""","null","+","null","","","","","","",""
"","","","","","image-keyboard-response","158","292769","0.0-15.0-0.1-1.9","asjp7tndpd","","asjp7tndpd","""2024-11-13T15:45:28.464Z""","1038","materials/imgs/D34.png","arrowleft","","[""materials/imgs/D47.png"",""materials/imgs/D80.png""]","false","random","","",""
"","","","","","html-keyboard-response","159","293270","0.0-15.0-0.1-0.10","asjp7tndpd","","asjp7tndpd","""2024-11-13T15:45:28.464Z""","null","+","null","","","","","","",""
"","","","","","image-keyboard-response","160","294889","0.0-15.0-0.1-1.10","asjp7tndpd","","asjp7tndpd","""2024-11-13T15:45:28.464Z""","1608","materials/imgs/D8.png","arrowleft","","[""materials/imgs/D22.png"",""materials/imgs/D65.png""]","false","random","","",""
"","","","","","html-keyboard-response","161","295390","0.0-15.0-0.1-0.11","asjp7tndpd","","asjp7tndpd","""2024-11-13T15:45:28.464Z""","null","+","null","","","","","","",""
"","","","","","image-keyboard-response","162","298056","0.0-15.0-0.1-1.11","asjp7tndpd","","asjp7tndpd","""2024-11-13T15:45:28.464Z""","2664","materials/imgs/D14.png","arrowleft","","[""materials/imgs/D105.png"",""materials/imgs/D46.png""]","false","random","","",""
"","","","","","html-keyboard-response","163","298558","0.0-15.0-0.1-0.12","asjp7tndpd","","asjp7tndpd","""2024-11-13T15:45:28.464Z""","null","+","null","","","","","","",""
"","","","","","image-keyboard-response","164","299743","0.0-15.0-0.1-1.12","asjp7tndpd","","asjp7tndpd","""2024-11-13T15:45:28.464Z""","1183","materials/imgs/D49.png","arrowright","","[""materials/imgs/D14.png"",""materials/imgs/D95.png""]","false","random","","",""
"","","","","","html-keyboard-response","165","300245","0.0-15.0-0.1-0.13","asjp7tndpd","","asjp7tndpd","""2024-11-13T15:45:28.464Z""","null","+","null","","","","","","",""
"","","","","","image-keyboard-response","166","303284","0.0-15.0-0.1-1.13","asjp7tndpd","","asjp7tndpd","""2024-11-13T15:45:28.464Z""","3038","materials/imgs/D102.png","arrowright","","[""materials/imgs/D106.png"",""materials/imgs/D37.png""]","false","random","","",""
"","","","","","html-keyboard-response","167","303786","0.0-15.0-1.1-0.1","asjp7tndpd","","asjp7tndpd","""2024-11-13T15:45:28.464Z""","null","+","null","","","","","","",""
"","","","","","image-keyboard-response","168","304500","0.0-15.0-1.1-1.1","asjp7tndpd","","asjp7tndpd","""2024-11-13T15:45:28.464Z""","712","materials/imgs/D106.png","arrowleft","","[""materials/imgs/D106.png"",""materials/imgs/D101.png""]","","check","materials/imgs/D106.png","0","true"
"","","","","","html-keyboard-response","169","305001","0.0-15.0-2.1-0.2","asjp7tndpd","","asjp7tndpd","""2024-11-13T15:45:28.464Z""","null","+","null","","","","","","",""
"","","","","","image-keyboard-response","170","307844","0.0-15.0-2.1-1.2","asjp7tndpd","","asjp7tndpd","""2024-11-13T15:45:28.464Z""","2841","materials/imgs/D85.png","arrowleft","","[""materials/imgs/D6.png"",""materials/imgs/D111.png""]","false","validation","","",""
"","","","","","html-keyboard-response","171","308346","0.0-15.0-2.1-0.3","asjp7tndpd","","asjp7tndpd","""2024-11-13T15:45:28.464Z""","null","+","null","","","","","","",""
"","","","","","image-keyboard-response","172","309308","0.0-15.0-2.1-1.3","asjp7tndpd","","asjp7tndpd","""2024-11-13T15:45:28.464Z""","960","materials/imgs/D81.png","arrowright","","[""materials/imgs/D105.png"",""materials/imgs/D24.png""]","false","validation","","",""
"","","","","","html-keyboard-response","173","309810","0.0-15.0-0.2-0.14","asjp7tndpd","","asjp7tndpd","""2024-11-13T15:45:28.464Z""","null","+","null","","","","","","",""
"","","","","","image-keyboard-response","174","312700","0.0-15.0-0.2-1.14","asjp7tndpd","","asjp7tndpd","""2024-11-13T15:45:28.464Z""","2889","materials/imgs/D37.png","arrowright","","[""materials/imgs/D18.png"",""materials/imgs/D74.png""]","false","random","","",""
"","","","","","html-keyboard-response","175","313202","0.0-15.0-0.2-0.15","asjp7tndpd","","asjp7tndpd","""2024-11-13T15:45:28.464Z""","null","+","null","","","","","","",""
"","","","","","image-keyboard-response","176","315369","0.0-15.0-0.2-1.15","asjp7tndpd","","asjp7tndpd","""2024-11-13T15:45:28.464Z""","2165","materials/imgs/D87.png","arrowleft","","[""materials/imgs/D22.png"",""materials/imgs/D9.png""]","false","random","","",""
"","","","","","html-keyboard-response","177","315870","0.0-15.0-0.2-0.16","asjp7tndpd","","asjp7tndpd","""2024-11-13T15:45:28.464Z""","null","+","null","","","","","","",""
"","","","","","image-keyboard-response","178","317712","0.0-15.0-0.2-1.16","asjp7tndpd","","asjp7tndpd","""2024-11-13T15:45:28.464Z""","1840","materials/imgs/D80.png","arrowleft","","[""materials/imgs/D92.png"",""materials/imgs/D1.png""]","false","random","","",""
"","","","","","html-keyboard-response","179","318213","0.0-15.0-0.2-0.17","asjp7tndpd","","asjp7tndpd","""2024-11-13T15:45:28.464Z""","null","+","null","","","","","","",""
"","","","","","image-keyboard-response","180","319890","0.0-15.0-0.2-1.17","asjp7tndpd","","asjp7tndpd","""2024-11-13T15:45:28.464Z""","1675","materials/imgs/D68.png","arrowright","","[""materials/imgs/D3.png"",""materials/imgs/D11.png""]","false","random","","",""
"","","","","","html-keyboard-response","181","320392","0.0-15.0-0.2-0.18","asjp7tndpd","","asjp7tndpd","""2024-11-13T15:45:28.464Z""","null","+","null","","","","","","",""
"","","","","","image-keyboard-response","182","322223","0.0-15.0-0.2-1.18","asjp7tndpd","","asjp7tndpd","""2024-11-13T15:45:28.464Z""","1830","materials/imgs/D26.png","arrowleft","","[""materials/imgs/D82.png"",""materials/imgs/D104.png""]","false","random","","",""
"","","","","","html-keyboard-response","183","322724","0.0-15.0-0.2-0.19","asjp7tndpd","","asjp7tndpd","""2024-11-13T15:45:28.464Z""","null","+","null","","","","","","",""
"","","","","","image-keyboard-response","184","328119","0.0-15.0-0.2-1.19","asjp7tndpd","","asjp7tndpd","""2024-11-13T15:45:28.464Z""","5394","materials/imgs/D25.png","arrowleft","","[""materials/imgs/D14.png"",""materials/imgs/D52.png""]","false","random","","",""
"","","","","","html-keyboard-response","185","328621","0.0-15.0-0.2-0.20","asjp7tndpd","","asjp7tndpd","""2024-11-13T15:45:28.464Z""","null","+","null","","","","","","",""
"","","","","","image-keyboard-response","186","329968","0.0-15.0-0.2-1.20","asjp7tndpd","","asjp7tndpd","""2024-11-13T15:45:28.464Z""","1346","materials/imgs/D34.png","arrowright","","[""materials/imgs/D20.png"",""materials/imgs/D17.png""]","false","random","","",""
"","","","","","html-keyboard-response","187","330469","0.0-15.0-1.2-0.2","asjp7tndpd","","asjp7tndpd","""2024-11-13T15:45:28.464Z""","null","+","null","","","","","","",""
"","","","","","image-keyboard-response","188","331231","0.0-15.0-1.2-1.2","asjp7tndpd","","asjp7tndpd","""2024-11-13T15:45:28.464Z""","761","materials/imgs/D64.png","arrowleft","","[""materials/imgs/D64.png"",""materials/imgs/D53.png""]","","check","materials/imgs/D64.png","0","true"
"","","","","","html-keyboard-response","189","331733","0.0-15.0-2.2-0.4","asjp7tndpd","","asjp7tndpd","""2024-11-13T15:45:28.464Z""","null","+","null","","","","","","",""
"","","","","","image-keyboard-response","190","334394","0.0-15.0-2.2-1.4","asjp7tndpd","","asjp7tndpd","""2024-11-13T15:45:28.464Z""","2660","materials/imgs/D49.png","arrowright","","[""materials/imgs/D8.png"",""materials/imgs/D101.png""]","false","validation","","",""
"","","","","","html-keyboard-response","191","334895","0.0-15.0-2.2-0.5","asjp7tndpd","","asjp7tndpd","""2024-11-13T15:45:28.464Z""","null","+","null","","","","","","",""
"","","","","","image-keyboard-response","192","336645","0.0-15.0-2.2-1.5","asjp7tndpd","","asjp7tndpd","""2024-11-13T15:45:28.464Z""","1749","materials/imgs/D106.png","arrowright","","[""materials/imgs/D57.png"",""materials/imgs/D18.png""]","false","validation","","",""
"","","","","","html-keyboard-response","193","337146","0.0-15.0-0.3-0.21","asjp7tndpd","","asjp7tndpd","""2024-11-13T15:45:28.464Z""","null","+","null","","","","","","",""
"","","","","","image-keyboard-response","194","338914","0.0-15.0-0.3-1.21","asjp7tndpd","","asjp7tndpd","""2024-11-13T15:45:28.464Z""","1766","materials/imgs/D84.png","arrowleft","","[""materials/imgs/D101.png"",""materials/imgs/D11.png""]","false","random","","",""
"","","","","","html-keyboard-response","195","339416","0.0-15.0-0.3-0.22","asjp7tndpd","","asjp7tndpd","""2024-11-13T15:45:28.464Z""","null","+","null","","","","","","",""
"","","","","","image-keyboard-response","196","341279","0.0-15.0-0.3-1.22","asjp7tndpd","","asjp7tndpd","""2024-11-13T15:45:28.464Z""","1860","materials/imgs/D26.png","arrowright","","[""materials/imgs/D79.png"",""materials/imgs/D102.png""]","false","random","","",""
"","","","","","html-keyboard-response","197","341780","0.0-15.0-0.3-0.23","asjp7tndpd","","asjp7tndpd","""2024-11-13T15:45:28.464Z""","null","+","null","","","","","","",""
"","","","","","image-keyboard-response","198","342720","0.0-15.0-0.3-1.23","asjp7tndpd","","asjp7tndpd","""2024-11-13T15:45:28.464Z""","938","materials/imgs/D4.png","arrowright","","[""materials/imgs/D20.png"",""materials/imgs/D57.png""]","false","random","","",""
"","","","","","html-keyboard-response","199","343222","0.0-15.0-0.3-0.24","asjp7tndpd","","asjp7tndpd","""2024-11-13T15:45:28.464Z""","null","+","null","","","","","","",""
"","","","","","image-keyboard-response","200","347288","0.0-15.0-0.3-1.24","asjp7tndpd","","asjp7tndpd","""2024-11-13T15:45:28.464Z""","4063","materials/imgs/D19.png","arrowleft","","[""materials/imgs/D75.png"",""materials/imgs/D76.png""]","false","random","","",""
"","","","","","html-keyboard-response","201","347790","0.0-15.0-0.3-0.25","asjp7tndpd","","asjp7tndpd","""2024-11-13T15:45:28.464Z""","null","+","null","","","","","","",""
"","","","","","image-keyboard-response","202","350194","0.0-15.0-0.3-1.25","asjp7tndpd","","asjp7tndpd","""2024-11-13T15:45:28.464Z""","2401","materials/imgs/D106.png","arrowright","","[""materials/imgs/D94.png"",""materials/imgs/D34.png""]","false","random","","",""
"","","","","","html-keyboard-response","203","350695","0.0-15.0-0.3-0.26","asjp7tndpd","","asjp7tndpd","""2024-11-13T15:45:28.464Z""","null","+","null","","","","","","",""
"","","","","","image-keyboard-response","204","362198","0.0-15.0-0.3-1.26","asjp7tndpd","","asjp7tndpd","""2024-11-13T15:45:28.464Z""","11501","materials/imgs/D68.png","arrowleft","","[""materials/imgs/D24.png"",""materials/imgs/D92.png""]","false","random","","",""
"","","","","","html-keyboard-response","205","362700","0.0-15.0-0.3-0.27","asjp7tndpd","","asjp7tndpd","""2024-11-13T15:45:28.464Z""","null","+","null","","","","","","",""
"","","","","","image-keyboard-response","206","364108","0.0-15.0-0.3-1.27","asjp7tndpd","","asjp7tndpd","""2024-11-13T15:45:28.464Z""","1406","materials/imgs/D106.png","arrowleft","","[""materials/imgs/D1.png"",""materials/imgs/D34.png""]","false","random","","",""
"","","","","","html-keyboard-response","207","364610","0.0-15.0-1.3-0.3","asjp7tndpd","","asjp7tndpd","""2024-11-13T15:45:28.464Z""","null","+","null","","","","","","",""
"","","","","","image-keyboard-response","208","369027","0.0-15.0-1.3-1.3","asjp7tndpd","","asjp7tndpd","""2024-11-13T15:45:28.464Z""","4415","materials/imgs/D76.png","arrowleft","","[""materials/imgs/D76.png"",""materials/imgs/D78.png""]","","check","materials/imgs/D76.png","0","true"
"","","","","","html-keyboard-response","209","369529","0.0-15.0-2.3-0.6","asjp7tndpd","","asjp7tndpd","""2024-11-13T15:45:28.464Z""","null","+","null","","","","","","",""
"","","","","","image-keyboard-response","210","373007","0.0-15.0-2.3-1.6","asjp7tndpd","","asjp7tndpd","""2024-11-13T15:45:28.464Z""","3476","materials/imgs/D20.png","arrowleft","","[""materials/imgs/D84.png"",""materials/imgs/D85.png""]","false","validation","","",""
"","","","","","html-keyboard-response","211","373509","0.0-15.0-2.3-0.7","asjp7tndpd","","asjp7tndpd","""2024-11-13T15:45:28.464Z""","null","+","null","","","","","","",""
"","","","","","image-keyboard-response","212","375351","0.0-15.0-2.3-1.7","asjp7tndpd","","asjp7tndpd","""2024-11-13T15:45:28.464Z""","1841","materials/imgs/D96.png","arrowright","","[""materials/imgs/D46.png"",""materials/imgs/D18.png""]","false","validation","","",""
"","","","","","html-keyboard-response","213","375853","0.0-15.0-0.4-0.28","asjp7tndpd","","asjp7tndpd","""2024-11-13T15:45:28.464Z""","null","+","null","","","","","","",""
"","","","","","image-keyboard-response","214","377157","0.0-15.0-0.4-1.28","asjp7tndpd","","asjp7tndpd","""2024-11-13T15:45:28.464Z""","1302","materials/imgs/D3.png","arrowright","","[""materials/imgs/D9.png"",""materials/imgs/D22.png""]","false","random","","",""
"","","","","","html-keyboard-response","215","377659","0.0-15.0-0.4-0.29","asjp7tndpd","","asjp7tndpd","""2024-11-13T15:45:28.464Z""","null","+","null","","","","","","",""
"","","","","","image-keyboard-response","216","378763","0.0-15.0-0.4-1.29","asjp7tndpd","","asjp7tndpd","""2024-11-13T15:45:28.464Z""","1101","materials/imgs/D4.png","arrowleft","","[""materials/imgs/D36.png"",""materials/imgs/D26.png""]","false","random","","",""
"","","","","","html-keyboard-response","217","379264","0.0-15.0-0.4-0.30","asjp7tndpd","","asjp7tndpd","""2024-11-13T15:45:28.464Z""","null","+","null","","","","","","",""
"","","","","","image-keyboard-response","218","380981","0.0-15.0-0.4-1.30","asjp7tndpd","","asjp7tndpd","""2024-11-13T15:45:28.464Z""","1715","materials/imgs/D53.png","arrowright","","[""materials/imgs/D111.png"",""materials/imgs/D83.png""]","false","random","","",""
"","","","","","html-keyboard-response","219","381482","0.0-15.0-0.4-0.31","asjp7tndpd","","asjp7tndpd","""2024-11-13T15:45:28.464Z""","null","+","null","","","","","","",""
"","","","","","image-keyboard-response","220","382863","0.0-15.0-0.4-1.31","asjp7tndpd","","asjp7tndpd","""2024-11-13T15:45:28.464Z""","1379","materials/imgs/D95.png","arrowleft","","[""materials/imgs/D26.png"",""materials/imgs/D34.png""]","false","random","","",""
"","","","","","html-keyboard-response","221","383364","0.0-15.0-0.4-0.32","asjp7tndpd","","asjp7tndpd","""2024-11-13T15:45:28.464Z""","null","+","null","","","","","","",""
"","","","","","image-keyboard-response","222","384473","0.0-15.0-0.4-1.32","asjp7tndpd","","asjp7tndpd","""2024-11-13T15:45:28.464Z""","1107","materials/imgs/D106.png","arrowright","","[""materials/imgs/D51.png"",""materials/imgs/D78.png""]","false","random","","",""
"","","","","","html-keyboard-response","223","384974","0.0-15.0-0.4-0.33","asjp7tndpd","","asjp7tndpd","""2024-11-13T15:45:28.464Z""","null","+","null","","","","","","",""
"","","","","","image-keyboard-response","224","386392","0.0-15.0-0.4-1.33","asjp7tndpd","","asjp7tndpd","""2024-11-13T15:45:28.464Z""","1415","materials/imgs/D53.png","arrowright","","[""materials/imgs/D65.png"",""materials/imgs/D84.png""]","false","random","","",""
"","","","","","html-keyboard-response","225","386893","0.0-15.0-0.4-0.34","asjp7tndpd","","asjp7tndpd","""2024-11-13T15:45:28.464Z""","null","+","null","","","","","","",""
"","","","","","image-keyboard-response","226","389926","0.0-15.0-0.4-1.34","asjp7tndpd","","asjp7tndpd","""2024-11-13T15:45:28.464Z""","3032","materials/imgs/D6.png","arrowright","","[""materials/imgs/D94.png"",""materials/imgs/D102.png""]","false","random","","",""
"","","","","","html-keyboard-response","227","390428","0.0-15.0-1.4-0.4","asjp7tndpd","","asjp7tndpd","""2024-11-13T15:45:28.464Z""","null","+","null","","","","","","",""
"","","","","","image-keyboard-response","228","391012","0.0-15.0-1.4-1.4","asjp7tndpd","","asjp7tndpd","""2024-11-13T15:45:28.464Z""","582","materials/imgs/D76.png","arrowleft","","[""materials/imgs/D76.png"",""materials/imgs/D78.png""]","","check","materials/imgs/D76.png","0","true"
"","","","","","html-keyboard-response","229","391514","0.0-15.0-2.4-0.8","asjp7tndpd","","asjp7tndpd","""2024-11-13T15:45:28.464Z""","null","+","null","","","","","","",""
"","","","","","image-keyboard-response","230","393532","0.0-15.0-2.4-1.8","asjp7tndpd","","asjp7tndpd","""2024-11-13T15:45:28.464Z""","2016","materials/imgs/D46.png","arrowleft","","[""materials/imgs/D92.png"",""materials/imgs/D77.png""]","false","validation","","",""
"","","","","","html-keyboard-response","231","394032","0.0-15.0-2.4-0.9","asjp7tndpd","","asjp7tndpd","""2024-11-13T15:45:28.464Z""","null","+","null","","","","","","",""
"","","","","","image-keyboard-response","232","402094","0.0-15.0-2.4-1.9","asjp7tndpd","","asjp7tndpd","""2024-11-13T15:45:28.464Z""","8059","materials/imgs/D1.png","arrowleft","","[""materials/imgs/D57.png"",""materials/imgs/D76.png""]","false","validation","","",""
"","","","","","html-button-response","233","406216","0.0-16.0","asjp7tndpd","","asjp7tndpd","""2024-11-13T15:45:28.464Z""","4121","You have completed 50% of the trials. Please click 'Continue' when you are ready proceed.","0","","","","","","",""
"","","","","","html-keyboard-response","234","406718","0.0-17.0-0.0-0.0","asjp7tndpd","","asjp7tndpd","""2024-11-13T15:45:28.464Z""","null","+","null","","","","","","",""
"","","","","","image-keyboard-response","235","407921","0.0-17.0-0.0-1.0","asjp7tndpd","","asjp7tndpd","""2024-11-13T15:45:28.464Z""","1201","materials/imgs/D20.png","arrowright","","[""materials/imgs/D26.png"",""materials/imgs/D35.png""]","false","random","","",""
"","","","","","html-keyboard-response","236","408422","0.0-17.0-0.0-0.1","asjp7tndpd","","asjp7tndpd","""2024-11-13T15:45:28.464Z""","null","+","null","","","","","","",""
"","","","","","image-keyboard-response","237","410284","0.0-17.0-0.0-1.1","asjp7tndpd","","asjp7tndpd","""2024-11-13T15:45:28.464Z""","1860","materials/imgs/D8.png","arrowright","","[""materials/imgs/D68.png"",""materials/imgs/D85.png""]","false","random","","",""
"","","","","","html-keyboard-response","238","410785","0.0-17.0-0.0-0.2","asjp7tndpd","","asjp7tndpd","""2024-11-13T15:45:28.464Z""","null","+","null","","","","","","",""
"","","","","","image-keyboard-response","239","411841","0.0-17.0-0.0-1.2","asjp7tndpd","","asjp7tndpd","""2024-11-13T15:45:28.464Z""","1054","materials/imgs/D37.png","arrowleft","","[""materials/imgs/D96.png"",""materials/imgs/D66.png""]","false","random","","",""
"","","","","","html-keyboard-response","240","412343","0.0-17.0-0.0-0.3","asjp7tndpd","","asjp7tndpd","""2024-11-13T15:45:28.464Z""","null","+","null","","","","","","",""
"","","","","","image-keyboard-response","241","413769","0.0-17.0-0.0-1.3","asjp7tndpd","","asjp7tndpd","""2024-11-13T15:45:28.464Z""","1424","materials/imgs/D85.png","arrowright","","[""materials/imgs/D34.png"",""materials/imgs/D4.png""]","false","random","","",""
"","","","","","html-keyboard-response","242","414270","0.0-17.0-0.0-0.4","asjp7tndpd","","asjp7tndpd","""2024-11-13T15:45:28.464Z""","null","+","null","","","","","","",""
"","","","","","image-keyboard-response","243","415433","0.0-17.0-0.0-1.4","asjp7tndpd","","asjp7tndpd","""2024-11-13T15:45:28.464Z""","1161","materials/imgs/D36.png","arrowleft","","[""materials/imgs/D66.png"",""materials/imgs/D75.png""]","false","random","","",""
"","","","","","html-keyboard-response","244","415935","0.0-17.0-0.0-0.5","asjp7tndpd","","asjp7tndpd","""2024-11-13T15:45:28.464Z""","null","+","null","","","","","","",""
"","","","","","image-keyboard-response","245","417081","0.0-17.0-0.0-1.5","asjp7tndpd","","asjp7tndpd","""2024-11-13T15:45:28.464Z""","1144","materials/imgs/D95.png","arrowright","","[""materials/imgs/D53.png"",""materials/imgs/D65.png""]","false","random","","",""
"","","","","","html-keyboard-response","246","417582","0.0-17.0-0.0-0.6","asjp7tndpd","","asjp7tndpd","""2024-11-13T15:45:28.464Z""","null","+","null","","","","","","",""
"","","","","","image-keyboard-response","247","421064","0.0-17.0-0.0-1.6","asjp7tndpd","","asjp7tndpd","""2024-11-13T15:45:28.464Z""","3479","materials/imgs/D20.png","arrowleft","","[""materials/imgs/D24.png"",""materials/imgs/D78.png""]","false","random","","",""
"","","","","","html-keyboard-response","248","421565","0.0-17.0-1.0-0.0","asjp7tndpd","","asjp7tndpd","""2024-11-13T15:45:28.464Z""","null","+","null","","","","","","",""
"","","","","","image-keyboard-response","249","422246","0.0-17.0-1.0-1.0","asjp7tndpd","","asjp7tndpd","""2024-11-13T15:45:28.464Z""","679","materials/imgs/D106.png","arrowleft","","[""materials/imgs/D106.png"",""materials/imgs/D101.png""]","","check","materials/imgs/D106.png","0","true"
"","","","","","html-keyboard-response","250","422747","0.0-17.0-2.0-0.0","asjp7tndpd","","asjp7tndpd","""2024-11-13T15:45:28.464Z""","null","+","null","","","","","","",""
"","","","","","image-keyboard-response","251","423884","0.0-17.0-2.0-1.0","asjp7tndpd","","asjp7tndpd","""2024-11-13T15:45:28.464Z""","1135","materials/imgs/D77.png","arrowright","","[""materials/imgs/D102.png"",""materials/imgs/D65.png""]","false","validation","","",""
"","","","","","html-keyboard-response","252","424386","0.0-17.0-2.0-0.1","asjp7tndpd","","asjp7tndpd","""2024-11-13T15:45:28.464Z""","null","+","null","","","","","","",""
"","","","","","image-keyboard-response","253","425710","0.0-17.0-2.0-1.1","asjp7tndpd","","asjp7tndpd","""2024-11-13T15:45:28.464Z""","1322","materials/imgs/D8.png","arrowleft","","[""materials/imgs/D101.png"",""materials/imgs/D52.png""]","false","validation","","",""
"","","","","","html-keyboard-response","254","426212","0.0-17.0-0.1-0.7","asjp7tndpd","","asjp7tndpd","""2024-11-13T15:45:28.464Z""","null","+","null","","","","","","",""
"","","","","","image-keyboard-response","255","427622","0.0-17.0-0.1-1.7","asjp7tndpd","","asjp7tndpd","""2024-11-13T15:45:28.464Z""","1408","materials/imgs/D102.png","arrowright","","[""materials/imgs/D76.png"",""materials/imgs/D75.png""]","false","random","","",""
"","","","","","html-keyboard-response","256","428123","0.0-17.0-0.1-0.8","asjp7tndpd","","asjp7tndpd","""2024-11-13T15:45:28.464Z""","null","+","null","","","","","","",""
"","","","","","image-keyboard-response","257","428760","0.0-17.0-0.1-1.8","asjp7tndpd","","asjp7tndpd","""2024-11-13T15:45:28.464Z""","634","materials/imgs/D26.png","arrowright","","[""materials/imgs/D22.png"",""materials/imgs/D25.png""]","false","random","","",""
"","","","","","html-keyboard-response","258","429262","0.0-17.0-0.1-0.9","asjp7tndpd","","asjp7tndpd","""2024-11-13T15:45:28.464Z""","null","+","null","","","","","","",""
"","","","","","image-keyboard-response","259","431341","0.0-17.0-0.1-1.9","asjp7tndpd","","asjp7tndpd","""2024-11-13T15:45:28.464Z""","2077","materials/imgs/D66.png","arrowleft","","[""materials/imgs/D11.png"",""materials/imgs/D52.png""]","false","random","","",""
"","","","","","html-keyboard-response","260","431842","0.0-17.0-0.1-0.10","asjp7tndpd","","asjp7tndpd","""2024-11-13T15:45:28.464Z""","null","+","null","","","","","","",""
"","","","","","image-keyboard-response","261","433770","0.0-17.0-0.1-1.10","asjp7tndpd","","asjp7tndpd","""2024-11-13T15:45:28.464Z""","1925","materials/imgs/D47.png","arrowleft","","[""materials/imgs/D6.png"",""materials/imgs/D25.png""]","false","random","","",""
"","","","","","html-keyboard-response","262","434271","0.0-17.0-0.1-0.11","asjp7tndpd","","asjp7tndpd","""2024-11-13T15:45:28.464Z""","null","+","null","","","","","","",""
"","","","","","image-keyboard-response","263","435873","0.0-17.0-0.1-1.11","asjp7tndpd","","asjp7tndpd","""2024-11-13T15:45:28.464Z""","1599","materials/imgs/D19.png","arrowright","","[""materials/imgs/D37.png"",""materials/imgs/D87.png""]","false","random","","",""
"","","","","","html-keyboard-response","264","436374","0.0-17.0-0.1-0.12","asjp7tndpd","","asjp7tndpd","""2024-11-13T15:45:28.464Z""","null","+","null","","","","","","",""
"","","","","","image-keyboard-response","265","437915","0.0-17.0-0.1-1.12","asjp7tndpd","","asjp7tndpd","""2024-11-13T15:45:28.464Z""","1539","materials/imgs/D34.png","arrowright","","[""materials/imgs/D24.png"",""materials/imgs/D56.png""]","false","random","","",""
"","","","","","html-keyboard-response","266","438417","0.0-17.0-0.1-0.13","asjp7tndpd","","asjp7tndpd","""2024-11-13T15:45:28.464Z""","null","+","null","","","","","","",""
"","","","","","image-keyboard-response","267","439967","0.0-17.0-0.1-1.13","asjp7tndpd","","asjp7tndpd","""2024-11-13T15:45:28.464Z""","1548","materials/imgs/D53.png","arrowright","","[""materials/imgs/D74.png"",""materials/imgs/D102.png""]","false","random","","",""
"","","","","","html-keyboard-response","268","440469","0.0-17.0-1.1-0.1","asjp7tndpd","","asjp7tndpd","""2024-11-13T15:45:28.464Z""","null","+","null","","","","","","",""
"","","","","","image-keyboard-response","269","441297","0.0-17.0-1.1-1.1","asjp7tndpd","","asjp7tndpd","""2024-11-13T15:45:28.464Z""","826","materials/imgs/D53.png","arrowright","","[""materials/imgs/D64.png"",""materials/imgs/D53.png""]","","check","materials/imgs/D53.png","1","true"
"","","","","","html-keyboard-response","270","441798","0.0-17.0-2.1-0.2","asjp7tndpd","","asjp7tndpd","""2024-11-13T15:45:28.464Z""","null","+","null","","","","","","",""
"","","","","","image-keyboard-response","271","444659","0.0-17.0-2.1-1.2","asjp7tndpd","","asjp7tndpd","""2024-11-13T15:45:28.464Z""","2858","materials/imgs/D37.png","arrowleft","","[""materials/imgs/D84.png"",""materials/imgs/D111.png""]","false","validation","","",""
"","","","","","html-keyboard-response","272","445160","0.0-17.0-2.1-0.3","asjp7tndpd","","asjp7tndpd","""2024-11-13T15:45:28.464Z""","null","+","null","","","","","","",""
"","","","","","image-keyboard-response","273","448387","0.0-17.0-2.1-1.3","asjp7tndpd","","asjp7tndpd","""2024-11-13T15:45:28.464Z""","3225","materials/imgs/D26.png","arrowright","","[""materials/imgs/D36.png"",""materials/imgs/D92.png""]","false","validation","","",""
"","","","","","html-keyboard-response","274","448888","0.0-17.0-0.2-0.14","asjp7tndpd","","asjp7tndpd","""2024-11-13T15:45:28.464Z""","null","+","null","","","","","","",""
"","","","","","image-keyboard-response","275","450404","0.0-17.0-0.2-1.14","asjp7tndpd","","asjp7tndpd","""2024-11-13T15:45:28.464Z""","1515","materials/imgs/D55.png","arrowleft","","[""materials/imgs/D4.png"",""materials/imgs/D47.png""]","false","random","","",""
"","","","","","html-keyboard-response","276","450906","0.0-17.0-0.2-0.15","asjp7tndpd","","asjp7tndpd","""2024-11-13T15:45:28.464Z""","null","+","null","","","","","","",""
"","","","","","image-keyboard-response","277","453457","0.0-17.0-0.2-1.15","asjp7tndpd","","asjp7tndpd","""2024-11-13T15:45:28.464Z""","2549","materials/imgs/D57.png","arrowleft","","[""materials/imgs/D95.png"",""materials/imgs/D51.png""]","false","random","","",""
"","","","","","html-keyboard-response","278","453958","0.0-17.0-0.2-0.16","asjp7tndpd","","asjp7tndpd","""2024-11-13T15:45:28.464Z""","null","+","null","","","","","","",""
"","","","","","image-keyboard-response","279","456054","0.0-17.0-0.2-1.16","asjp7tndpd","","asjp7tndpd","""2024-11-13T15:45:28.464Z""","2085","materials/imgs/D101.png","arrowright","","[""materials/imgs/D25.png"",""materials/imgs/D82.png""]","false","random","","",""
"","","","","","html-keyboard-response","280","456556","0.0-17.0-0.2-0.17","asjp7tndpd","","asjp7tndpd","""2024-11-13T15:45:28.464Z""","null","+","null","","","","","","",""
"","","","","","image-keyboard-response","281","459094","0.0-17.0-0.2-1.17","asjp7tndpd","","asjp7tndpd","""2024-11-13T15:45:28.464Z""","2537","materials/imgs/D51.png","arrowright","","[""materials/imgs/D34.png"",""materials/imgs/D75.png""]","false","random","","",""
"","","","","","html-keyboard-response","282","459596","0.0-17.0-0.2-0.18","asjp7tndpd","","asjp7tndpd","""2024-11-13T15:45:28.464Z""","null","+","null","","","","","","",""
"","","","","","image-keyboard-response","283","461480","0.0-17.0-0.2-1.18","asjp7tndpd","","asjp7tndpd","""2024-11-13T15:45:28.464Z""","1882","materials/imgs/D64.png","arrowleft","","[""materials/imgs/D96.png"",""materials/imgs/D111.png""]","false","random","","",""
"","","","","","html-keyboard-response","284","461981","0.0-17.0-0.2-0.19","asjp7tndpd","","asjp7tndpd","""2024-11-13T15:45:28.464Z""","null","+","null","","","","","","",""
"","","","","","image-keyboard-response","285","466018","0.0-17.0-0.2-1.19","asjp7tndpd","","asjp7tndpd","""2024-11-13T15:45:28.464Z""","4036","materials/imgs/D14.png","arrowleft","","[""materials/imgs/D66.png"",""materials/imgs/D76.png""]","false","random","","",""
"","","","","","html-keyboard-response","286","466519","0.0-17.0-0.2-0.20","asjp7tndpd","","asjp7tndpd","""2024-11-13T15:45:28.464Z""","null","+","null","","","","","","",""
"","","","","","image-keyboard-response","287","467329","0.0-17.0-0.2-1.20","asjp7tndpd","","asjp7tndpd","""2024-11-13T15:45:28.464Z""","807","materials/imgs/D76.png","arrowright","","[""materials/imgs/D17.png"",""materials/imgs/D51.png""]","false","random","","",""
"","","","","","html-keyboard-response","288","467830","0.0-17.0-1.2-0.2","asjp7tndpd","","asjp7tndpd","""2024-11-13T15:45:28.464Z""","null","+","null","","","","","","",""
"","","","","","image-keyboard-response","289","468557","0.0-17.0-1.2-1.2","asjp7tndpd","","asjp7tndpd","""2024-11-13T15:45:28.464Z""","726","materials/imgs/D8.png","arrowright","","[""materials/imgs/D18.png"",""materials/imgs/D8.png""]","","check","materials/imgs/D8.png","1","true"
"","","","","","html-keyboard-response","290","469058","0.0-17.0-2.2-0.4","asjp7tndpd","","asjp7tndpd","""2024-11-13T15:45:28.464Z""","null","+","null","","","","","","",""
"","","","","","image-keyboard-response","291","472166","0.0-17.0-2.2-1.4","asjp7tndpd","","asjp7tndpd","""2024-11-13T15:45:28.464Z""","3107","materials/imgs/D35.png","arrowleft","","[""materials/imgs/D83.png"",""materials/imgs/D24.png""]","false","validation","","",""
"","","","","","html-keyboard-response","292","472668","0.0-17.0-2.2-0.5","asjp7tndpd","","asjp7tndpd","""2024-11-13T15:45:28.464Z""","null","+","null","","","","","","",""
"","","","","","image-keyboard-response","293","478371","0.0-17.0-2.2-1.5","asjp7tndpd","","asjp7tndpd","""2024-11-13T15:45:28.464Z""","5701","materials/imgs/D6.png","arrowleft","","[""materials/imgs/D26.png"",""materials/imgs/D76.png""]","false","validation","","",""
"","","","","","html-keyboard-response","294","478872","0.0-17.0-0.3-0.21","asjp7tndpd","","asjp7tndpd","""2024-11-13T15:45:28.464Z""","null","+","null","","","","","","",""
"","","","","","image-keyboard-response","295","479724","0.0-17.0-0.3-1.21","asjp7tndpd","","asjp7tndpd","""2024-11-13T15:45:28.464Z""","849","materials/imgs/D82.png","arrowright","","[""materials/imgs/D111.png"",""materials/imgs/D80.png""]","false","random","","",""
"","","","","","html-keyboard-response","296","480225","0.0-17.0-0.3-0.22","asjp7tndpd","","asjp7tndpd","""2024-11-13T15:45:28.464Z""","null","+","null","","","","","","",""
"","","","","","image-keyboard-response","297","481266","0.0-17.0-0.3-1.22","asjp7tndpd","","asjp7tndpd","""2024-11-13T15:45:28.464Z""","1039","materials/imgs/D103.png","arrowright","","[""materials/imgs/D25.png"",""materials/imgs/D87.png""]","false","random","","",""
"","","","","","html-keyboard-response","298","481767","0.0-17.0-0.3-0.23","asjp7tndpd","","asjp7tndpd","""2024-11-13T15:45:28.464Z""","null","+","null","","","","","","",""
"","","","","","image-keyboard-response","299","483282","0.0-17.0-0.3-1.23","asjp7tndpd","","asjp7tndpd","""2024-11-13T15:45:28.464Z""","1512","materials/imgs/D14.png","arrowleft","","[""materials/imgs/D17.png"",""materials/imgs/D52.png""]","false","random","","",""
"","","","","","html-keyboard-response","300","483782","0.0-17.0-0.3-0.24","asjp7tndpd","","asjp7tndpd","""2024-11-13T15:45:28.464Z""","null","+","null","","","","","","",""
"","","","","","image-keyboard-response","301","485205","0.0-17.0-0.3-1.24","asjp7tndpd","","asjp7tndpd","""2024-11-13T15:45:28.464Z""","1420","materials/imgs/D66.png","arrowright","","[""materials/imgs/D11.png"",""materials/imgs/D101.png""]","false","random","","",""
"","","","","","html-keyboard-response","302","485707","0.0-17.0-0.3-0.25","asjp7tndpd","","asjp7tndpd","""2024-11-13T15:45:28.464Z""","null","+","null","","","","","","",""
"","","","","","image-keyboard-response","303","487238","0.0-17.0-0.3-1.25","asjp7tndpd","","asjp7tndpd","""2024-11-13T15:45:28.464Z""","1529","materials/imgs/D79.png","arrowright","","[""materials/imgs/D96.png"",""materials/imgs/D84.png""]","false","random","","",""
"","","","","","html-keyboard-response","304","487739","0.0-17.0-0.3-0.26","asjp7tndpd","","asjp7tndpd","""2024-11-13T15:45:28.464Z""","null","+","null","","","","","","",""
"","","","","","image-keyboard-response","305","488450","0.0-17.0-0.3-1.26","asjp7tndpd","","asjp7tndpd","""2024-11-13T15:45:28.464Z""","709","materials/imgs/D24.png","arrowright","","[""materials/imgs/D20.png"",""materials/imgs/D17.png""]","false","random","","",""
"","","","","","html-keyboard-response","306","488952","0.0-17.0-0.3-0.27","asjp7tndpd","","asjp7tndpd","""2024-11-13T15:45:28.464Z""","null","+","null","","","","","","",""
"","","","","","image-keyboard-response","307","491035","0.0-17.0-0.3-1.27","asjp7tndpd","","asjp7tndpd","""2024-11-13T15:45:28.464Z""","2081","materials/imgs/D49.png","arrowleft","","[""materials/imgs/D84.png"",""materials/imgs/D68.png""]","false","random","","",""
"","","","","","html-keyboard-response","308","491537","0.0-17.0-1.3-0.3","asjp7tndpd","","asjp7tndpd","""2024-11-13T15:45:28.464Z""","null","+","null","","","","","","",""
"","","","","","image-keyboard-response","309","492285","0.0-17.0-1.3-1.3","asjp7tndpd","","asjp7tndpd","""2024-11-13T15:45:28.464Z""","746","materials/imgs/D64.png","arrowleft","","[""materials/imgs/D64.png"",""materials/imgs/D53.png""]","","check","materials/imgs/D64.png","0","true"
"","","","","","html-keyboard-response","310","492786","0.0-17.0-2.3-0.6","asjp7tndpd","","asjp7tndpd","""2024-11-13T15:45:28.464Z""","null","+","null","","","","","","",""
"","","","","","image-keyboard-response","311","494202","0.0-17.0-2.3-1.6","asjp7tndpd","","asjp7tndpd","""2024-11-13T15:45:28.464Z""","1414","materials/imgs/D51.png","arrowright","","[""materials/imgs/D92.png"",""materials/imgs/D20.png""]","false","validation","","",""
"","","","","","html-keyboard-response","312","494703","0.0-17.0-2.3-0.7","asjp7tndpd","","asjp7tndpd","""2024-11-13T15:45:28.464Z""","null","+","null","","","","","","",""
"","","","","","image-keyboard-response","313","497879","0.0-17.0-2.3-1.7","asjp7tndpd","","asjp7tndpd","""2024-11-13T15:45:28.464Z""","3175","materials/imgs/D36.png","arrowright","","[""materials/imgs/D47.png"",""materials/imgs/D49.png""]","false","validation","","",""
"","","","","","html-keyboard-response","314","498381","0.0-17.0-0.4-0.28","asjp7tndpd","","asjp7tndpd","""2024-11-13T15:45:28.464Z""","null","+","null","","","","","","",""
"","","","","","image-keyboard-response","315","501445","0.0-17.0-0.4-1.28","asjp7tndpd","","asjp7tndpd","""2024-11-13T15:45:28.464Z""","3062","materials/imgs/D55.png","arrowleft","","[""materials/imgs/D65.png"",""materials/imgs/D68.png""]","false","random","","",""
"","","","","","html-keyboard-response","316","501947","0.0-17.0-0.4-0.29","asjp7tndpd","","asjp7tndpd","""2024-11-13T15:45:28.464Z""","null","+","null","","","","","","",""
"","","","","","image-keyboard-response","317","503039","0.0-17.0-0.4-1.29","asjp7tndpd","","asjp7tndpd","""2024-11-13T15:45:28.464Z""","1091","materials/imgs/D104.png","arrowleft","","[""materials/imgs/D19.png"",""materials/imgs/D46.png""]","false","random","","",""
"","","","","","html-keyboard-response","318","503540","0.0-17.0-0.4-0.30","asjp7tndpd","","asjp7tndpd","""2024-11-13T15:45:28.464Z""","null","+","null","","","","","","",""
"","","","","","image-keyboard-response","319","504342","0.0-17.0-0.4-1.30","asjp7tndpd","","asjp7tndpd","""2024-11-13T15:45:28.464Z""","799","materials/imgs/D82.png","arrowright","","[""materials/imgs/D51.png"",""materials/imgs/D52.png""]","false","random","","",""
"","","","","","html-keyboard-response","320","504843","0.0-17.0-0.4-0.31","asjp7tndpd","","asjp7tndpd","""2024-11-13T15:45:28.464Z""","null","+","null","","","","","","",""
"","","","","","image-keyboard-response","321","505725","0.0-17.0-0.4-1.31","asjp7tndpd","","asjp7tndpd","""2024-11-13T15:45:28.464Z""","881","materials/imgs/D32.png","arrowleft","","[""materials/imgs/D57.png"",""materials/imgs/D66.png""]","false","random","","",""
"","","","","","html-keyboard-response","322","506227","0.0-17.0-0.4-0.32","asjp7tndpd","","asjp7tndpd","""2024-11-13T15:45:28.464Z""","null","+","null","","","","","","",""
"","","","","","image-keyboard-response","323","507749","0.0-17.0-0.4-1.32","asjp7tndpd","","asjp7tndpd","""2024-11-13T15:45:28.464Z""","1519","materials/imgs/D26.png","arrowleft","","[""materials/imgs/D82.png"",""materials/imgs/D24.png""]","false","random","","",""
"","","","","","html-keyboard-response","324","508250","0.0-17.0-0.4-0.33","asjp7tndpd","","asjp7tndpd","""2024-11-13T15:45:28.464Z""","null","+","null","","","","","","",""
"","","","","","image-keyboard-response","325","514723","0.0-17.0-0.4-1.33","asjp7tndpd","","asjp7tndpd","""2024-11-13T15:45:28.464Z""","6471","materials/imgs/D22.png","arrowleft","","[""materials/imgs/D79.png"",""materials/imgs/D78.png""]","false","random","","",""
"","","","","","html-keyboard-response","326","515225","0.0-17.0-0.4-0.34","asjp7tndpd","","asjp7tndpd","""2024-11-13T15:45:28.464Z""","null","+","null","","","","","","",""
"","","","","","image-keyboard-response","327","517628","0.0-17.0-0.4-1.34","asjp7tndpd","","asjp7tndpd","""2024-11-13T15:45:28.464Z""","2400","materials/imgs/D104.png","arrowleft","","[""materials/imgs/D16.png"",""materials/imgs/D87.png""]","false","random","","",""
"","","","","","html-keyboard-response","328","518129","0.0-17.0-1.4-0.4","asjp7tndpd","","asjp7tndpd","""2024-11-13T15:45:28.464Z""","null","+","null","","","","","","",""
"","","","","","image-keyboard-response","329","519005","0.0-17.0-1.4-1.4","asjp7tndpd","","asjp7tndpd","""2024-11-13T15:45:28.464Z""","874","materials/imgs/D64.png","arrowleft","","[""materials/imgs/D64.png"",""materials/imgs/D53.png""]","","check","materials/imgs/D64.png","0","true"
"","","","","","html-keyboard-response","330","519507","0.0-17.0-2.4-0.8","asjp7tndpd","","asjp7tndpd","""2024-11-13T15:45:28.464Z""","null","+","null","","","","","","",""
"","","","","","image-keyboard-response","331","521101","0.0-17.0-2.4-1.8","asjp7tndpd","","asjp7tndpd","""2024-11-13T15:45:28.464Z""","1592","materials/imgs/D75.png","arrowleft","","[""materials/imgs/D96.png"",""materials/imgs/D4.png""]","false","validation","","",""
"","","","","","html-keyboard-response","332","521603","0.0-17.0-2.4-0.9","asjp7tndpd","","asjp7tndpd","""2024-11-13T15:45:28.464Z""","null","+","null","","","","","","",""
"","","","","","image-keyboard-response","333","523716","0.0-17.0-2.4-1.9","asjp7tndpd","","asjp7tndpd","""2024-11-13T15:45:28.464Z""","2111","materials/imgs/D18.png","arrowright","","[""materials/imgs/D32.png"",""materials/imgs/D57.png""]","false","validation","","",""
"","","","","","html-button-response","334","527950","0.0-18.0","asjp7tndpd","","asjp7tndpd","""2024-11-13T15:45:28.464Z""","4232","You have completed 75% of the trials. Please click 'Continue' when you are ready proceed.","0","","","","","","",""
"","","","","","html-keyboard-response","335","528452","0.0-19.0-0.0-0.0","asjp7tndpd","","asjp7tndpd","""2024-11-13T15:45:28.464Z""","null","+","null","","","","","","",""
"","","","","","image-keyboard-response","336","530625","0.0-19.0-0.0-1.0","asjp7tndpd","","asjp7tndpd","""2024-11-13T15:45:28.464Z""","2171","materials/imgs/D4.png","arrowright","","[""materials/imgs/D96.png"",""materials/imgs/D35.png""]","false","random","","",""
"","","","","","html-keyboard-response","337","531126","0.0-19.0-0.0-0.1","asjp7tndpd","","asjp7tndpd","""2024-11-13T15:45:28.464Z""","null","+","null","","","","","","",""
"","","","","","image-keyboard-response","338","532163","0.0-19.0-0.0-1.1","asjp7tndpd","","asjp7tndpd","""2024-11-13T15:45:28.464Z""","1035","materials/imgs/D4.png","arrowright","","[""materials/imgs/D37.png"",""materials/imgs/D55.png""]","false","random","","",""
"","","","","","html-keyboard-response","339","532665","0.0-19.0-0.0-0.2","asjp7tndpd","","asjp7tndpd","""2024-11-13T15:45:28.464Z""","null","+","null","","","","","","",""
"","","","","","image-keyboard-response","340","534711","0.0-19.0-0.0-1.2","asjp7tndpd","","asjp7tndpd","""2024-11-13T15:45:28.464Z""","2044","materials/imgs/D24.png","arrowleft","","[""materials/imgs/D34.png"",""materials/imgs/D83.png""]","false","random","","",""
"","","","","","html-keyboard-response","341","535212","0.0-19.0-0.0-0.3","asjp7tndpd","","asjp7tndpd","""2024-11-13T15:45:28.464Z""","null","+","null","","","","","","",""
"","","","","","image-keyboard-response","342","536377","0.0-19.0-0.0-1.3","asjp7tndpd","","asjp7tndpd","""2024-11-13T15:45:28.464Z""","1163","materials/imgs/D85.png","arrowright","","[""materials/imgs/D64.png"",""materials/imgs/D87.png""]","false","random","","",""
"","","","","","html-keyboard-response","343","536879","0.0-19.0-0.0-0.4","asjp7tndpd","","asjp7tndpd","""2024-11-13T15:45:28.464Z""","null","+","null","","","","","","",""
"","","","","","image-keyboard-response","344","538625","0.0-19.0-0.0-1.4","asjp7tndpd","","asjp7tndpd","""2024-11-13T15:45:28.464Z""","1744","materials/imgs/D80.png","arrowleft","","[""materials/imgs/D55.png"",""materials/imgs/D47.png""]","false","random","","",""
"","","","","","html-keyboard-response","345","539126","0.0-19.0-0.0-0.5","asjp7tndpd","","asjp7tndpd","""2024-11-13T15:45:28.464Z""","null","+","null","","","","","","",""
"","","","","","image-keyboard-response","346","541132","0.0-19.0-0.0-1.5","asjp7tndpd","","asjp7tndpd","""2024-11-13T15:45:28.464Z""","2005","materials/imgs/D29.png","arrowright","","[""materials/imgs/D76.png"",""materials/imgs/D6.png""]","false","random","","",""
"","","","","","html-keyboard-response","347","541633","0.0-19.0-0.0-0.6","asjp7tndpd","","asjp7tndpd","""2024-11-13T15:45:28.464Z""","null","+","null","","","","","","",""
"","","","","","image-keyboard-response","348","544008","0.0-19.0-0.0-1.6","asjp7tndpd","","asjp7tndpd","""2024-11-13T15:45:28.464Z""","2373","materials/imgs/D64.png","arrowright","","[""materials/imgs/D96.png"",""materials/imgs/D52.png""]","false","random","","",""
"","","","","","html-keyboard-response","349","544510","0.0-19.0-1.0-0.0","asjp7tndpd","","asjp7tndpd","""2024-11-13T15:45:28.464Z""","null","+","null","","","","","","",""
"","","","","","image-keyboard-response","350","545322","0.0-19.0-1.0-1.0","asjp7tndpd","","asjp7tndpd","""2024-11-13T15:45:28.464Z""","810","materials/imgs/D64.png","arrowleft","","[""materials/imgs/D64.png"",""materials/imgs/D53.png""]","","check","materials/imgs/D64.png","0","true"
"","","","","","html-keyboard-response","351","545824","0.0-19.0-2.0-0.0","asjp7tndpd","","asjp7tndpd","""2024-11-13T15:45:28.464Z""","null","+","null","","","","","","",""
"","","","","","image-keyboard-response","352","546940","0.0-19.0-2.0-1.0","asjp7tndpd","","asjp7tndpd","""2024-11-13T15:45:28.464Z""","1114","materials/imgs/D101.png","arrowright","","[""materials/imgs/D76.png"",""materials/imgs/D47.png""]","false","validation","","",""
"","","","","","html-keyboard-response","353","547441","0.0-19.0-2.0-0.1","asjp7tndpd","","asjp7tndpd","""2024-11-13T15:45:28.464Z""","null","+","null","","","","","","",""
"","","","","","image-keyboard-response","354","548086","0.0-19.0-2.0-1.1","asjp7tndpd","","asjp7tndpd","""2024-11-13T15:45:28.464Z""","643","materials/imgs/D57.png","arrowright","","[""materials/imgs/D111.png"",""materials/imgs/D4.png""]","false","validation","","",""
"","","","","","html-keyboard-response","355","548587","0.0-19.0-0.1-0.7","asjp7tndpd","","asjp7tndpd","""2024-11-13T15:45:28.464Z""","null","+","null","","","","","","",""
"","","","","","image-keyboard-response","356","551965","0.0-19.0-0.1-1.7","asjp7tndpd","","asjp7tndpd","""2024-11-13T15:45:28.464Z""","3377","materials/imgs/D74.png","arrowright","","[""materials/imgs/D104.png"",""materials/imgs/D26.png""]","false","random","","",""
"","","","","","html-keyboard-response","357","552467","0.0-19.0-0.1-0.8","asjp7tndpd","","asjp7tndpd","""2024-11-13T15:45:28.464Z""","null","+","null","","","","","","",""
"","","","","","image-keyboard-response","358","558654","0.0-19.0-0.1-1.8","asjp7tndpd","","asjp7tndpd","""2024-11-13T15:45:28.464Z""","6186","materials/imgs/D47.png","arrowleft","","[""materials/imgs/D1.png"",""materials/imgs/D95.png""]","false","random","","",""
"","","","","","html-keyboard-response","359","559156","0.0-19.0-0.1-0.9","asjp7tndpd","","asjp7tndpd","""2024-11-13T15:45:28.464Z""","null","+","null","","","","","","",""
"","","","","","image-keyboard-response","360","561021","0.0-19.0-0.1-1.9","asjp7tndpd","","asjp7tndpd","""2024-11-13T15:45:28.464Z""","1863","materials/imgs/D56.png","arrowright","","[""materials/imgs/D9.png"",""materials/imgs/D84.png""]","false","random","","",""
"","","","","","html-keyboard-response","361","561522","0.0-19.0-0.1-0.10","asjp7tndpd","","asjp7tndpd","""2024-11-13T15:45:28.464Z""","null","+","null","","","","","","",""
"","","","","","image-keyboard-response","362","562814","0.0-19.0-0.1-1.10","asjp7tndpd","","asjp7tndpd","""2024-11-13T15:45:28.464Z""","1289","materials/imgs/D26.png","arrowright","","[""materials/imgs/D48.png"",""materials/imgs/D20.png""]","false","random","","",""
"","","","","","html-keyboard-response","363","563316","0.0-19.0-0.1-0.11","asjp7tndpd","","asjp7tndpd","""2024-11-13T15:45:28.464Z""","null","+","null","","","","","","",""
"","","","","","image-keyboard-response","364","567815","0.0-19.0-0.1-1.11","asjp7tndpd","","asjp7tndpd","""2024-11-13T15:45:28.464Z""","4496","materials/imgs/D18.png","arrowright","","[""materials/imgs/D29.png"",""materials/imgs/D20.png""]","false","random","","",""
"","","","","","html-keyboard-response","365","568316","0.0-19.0-0.1-0.12","asjp7tndpd","","asjp7tndpd","""2024-11-13T15:45:28.464Z""","null","+","null","","","","","","",""
"","","","","","image-keyboard-response","366","570652","0.0-19.0-0.1-1.12","asjp7tndpd","","asjp7tndpd","""2024-11-13T15:45:28.464Z""","2334","materials/imgs/D32.png","arrowright","","[""materials/imgs/D26.png"",""materials/imgs/D78.png""]","false","random","","",""
"","","","","","html-keyboard-response","367","571153","0.0-19.0-0.1-0.13","asjp7tndpd","","asjp7tndpd","""2024-11-13T15:45:28.464Z""","null","+","null","","","","","","",""
"","","","","","image-keyboard-response","368","572632","0.0-19.0-0.1-1.13","asjp7tndpd","","asjp7tndpd","""2024-11-13T15:45:28.464Z""","1477","materials/imgs/D49.png","arrowleft","","[""materials/imgs/D55.png"",""materials/imgs/D104.png""]","false","random","","",""
"","","","","","html-keyboard-response","369","573133","0.0-19.0-1.1-0.1","asjp7tndpd","","asjp7tndpd","""2024-11-13T15:45:28.464Z""","null","+","null","","","","","","",""
"","","","","","image-keyboard-response","370","574002","0.0-19.0-1.1-1.1","asjp7tndpd","","asjp7tndpd","""2024-11-13T15:45:28.464Z""","866","materials/imgs/D76.png","arrowleft","","[""materials/imgs/D76.png"",""materials/imgs/D78.png""]","","check","materials/imgs/D76.png","0","true"
"","","","","","html-keyboard-response","371","574504","0.0-19.0-2.1-0.2","asjp7tndpd","","asjp7tndpd","""2024-11-13T15:45:28.464Z""","null","+","null","","","","","","",""
"","","","","","image-keyboard-response","372","576098","0.0-19.0-2.1-1.2","asjp7tndpd","","asjp7tndpd","""2024-11-13T15:45:28.464Z""","1592","materials/imgs/D102.png","arrowright","","[""materials/imgs/D32.png"",""materials/imgs/D111.png""]","false","validation","","",""
"","","","","","html-keyboard-response","373","576599","0.0-19.0-2.1-0.3","asjp7tndpd","","asjp7tndpd","""2024-11-13T15:45:28.464Z""","null","+","null","","","","","","",""
"","","","","","image-keyboard-response","374","579142","0.0-19.0-2.1-1.3","asjp7tndpd","","asjp7tndpd","""2024-11-13T15:45:28.464Z""","2541","materials/imgs/D36.png","arrowleft","","[""materials/imgs/D47.png"",""materials/imgs/D49.png""]","false","validation","","",""
"","","","","","html-keyboard-response","375","579644","0.0-19.0-0.2-0.14","asjp7tndpd","","asjp7tndpd","""2024-11-13T15:45:28.464Z""","null","+","null","","","","","","",""
"","","","","","image-keyboard-response","376","580926","0.0-19.0-0.2-1.14","asjp7tndpd","","asjp7tndpd","""2024-11-13T15:45:28.464Z""","1279","materials/imgs/D34.png","arrowleft","","[""materials/imgs/D111.png"",""materials/imgs/D83.png""]","false","random","","",""
"","","","","","html-keyboard-response","377","581427","0.0-19.0-0.2-0.15","asjp7tndpd","","asjp7tndpd","""2024-11-13T15:45:28.464Z""","null","+","null","","","","","","",""
"","","","","","image-keyboard-response","378","582894","0.0-19.0-0.2-1.15","asjp7tndpd","","asjp7tndpd","""2024-11-13T15:45:28.464Z""","1465","materials/imgs/D56.png","arrowright","","[""materials/imgs/D105.png"",""materials/imgs/D83.png""]","false","random","","",""
"","","","","","html-keyboard-response","379","583395","0.0-19.0-0.2-0.16","asjp7tndpd","","asjp7tndpd","""2024-11-13T15:45:28.464Z""","null","+","null","","","","","","",""
"","","","","","image-keyboard-response","380","586396","0.0-19.0-0.2-1.16","asjp7tndpd","","asjp7tndpd","""2024-11-13T15:45:28.464Z""","2998","materials/imgs/D32.png","arrowright","","[""materials/imgs/D47.png"",""materials/imgs/D103.png""]","false","random","","",""
"","","","","","html-keyboard-response","381","586897","0.0-19.0-0.2-0.17","asjp7tndpd","","asjp7tndpd","""2024-11-13T15:45:28.464Z""","null","+","null","","","","","","",""
"","","","","","image-keyboard-response","382","588499","0.0-19.0-0.2-1.17","asjp7tndpd","","asjp7tndpd","""2024-11-13T15:45:28.464Z""","1599","materials/imgs/D46.png","arrowright","","[""materials/imgs/D94.png"",""materials/imgs/D48.png""]","false","random","","",""
"","","","","","html-keyboard-response","383","588999","0.0-19.0-0.2-0.18","asjp7tndpd","","asjp7tndpd","""2024-11-13T15:45:28.464Z""","null","+","null","","","","","","",""
"","","","","","image-keyboard-response","384","590873","0.0-19.0-0.2-1.18","asjp7tndpd","","asjp7tndpd","""2024-11-13T15:45:28.464Z""","1871","materials/imgs/D9.png","arrowleft","","[""materials/imgs/D95.png"",""materials/imgs/D26.png""]","false","random","","",""
"","","","","","html-keyboard-response","385","591374","0.0-19.0-0.2-0.19","asjp7tndpd","","asjp7tndpd","""2024-11-13T15:45:28.464Z""","null","+","null","","","","","","",""
"","","","","","image-keyboard-response","386","593006","0.0-19.0-0.2-1.19","asjp7tndpd","","asjp7tndpd","""2024-11-13T15:45:28.464Z""","1630","materials/imgs/D80.png","arrowleft","","[""materials/imgs/D102.png"",""materials/imgs/D55.png""]","false","random","","",""
"","","","","","html-keyboard-response","387","593508","0.0-19.0-0.2-0.20","asjp7tndpd","","asjp7tndpd","""2024-11-13T15:45:28.464Z""","null","+","null","","","","","","",""
"","","","","","image-keyboard-response","388","595096","0.0-19.0-0.2-1.20","asjp7tndpd","","asjp7tndpd","""2024-11-13T15:45:28.464Z""","1587","materials/imgs/D81.png","arrowright","","[""materials/imgs/D77.png"",""materials/imgs/D84.png""]","false","random","","",""
"","","","","","html-keyboard-response","389","595597","0.0-19.0-1.2-0.2","asjp7tndpd","","asjp7tndpd","""2024-11-13T15:45:28.464Z""","null","+","null","","","","","","",""
"","","","","","image-keyboard-response","390","596156","0.0-19.0-1.2-1.2","asjp7tndpd","","asjp7tndpd","""2024-11-13T15:45:28.464Z""","557","materials/imgs/D53.png","arrowright","","[""materials/imgs/D64.png"",""materials/imgs/D53.png""]","","check","materials/imgs/D53.png","1","true"
"","","","","","html-keyboard-response","391","596657","0.0-19.0-2.2-0.4","asjp7tndpd","","asjp7tndpd","""2024-11-13T15:45:28.464Z""","null","+","null","","","","","","",""
"","","","","","image-keyboard-response","392","597867","0.0-19.0-2.2-1.4","asjp7tndpd","","asjp7tndpd","""2024-11-13T15:45:28.464Z""","1208","materials/imgs/D83.png","arrowleft","","[""materials/imgs/D24.png"",""materials/imgs/D8.png""]","false","validation","","",""
"","","","","","html-keyboard-response","393","598368","0.0-19.0-2.2-0.5","asjp7tndpd","","asjp7tndpd","""2024-11-13T15:45:28.464Z""","null","+","null","","","","","","",""
"","","","","","image-keyboard-response","394","602657","0.0-19.0-2.2-1.5","asjp7tndpd","","asjp7tndpd","""2024-11-13T15:45:28.464Z""","4286","materials/imgs/D26.png","arrowright","","[""materials/imgs/D36.png"",""materials/imgs/D92.png""]","false","validation","","",""
"","","","","","html-keyboard-response","395","603158","0.0-19.0-0.3-0.21","asjp7tndpd","","asjp7tndpd","""2024-11-13T15:45:28.464Z""","null","+","null","","","","","","",""
"","","","","","image-keyboard-response","396","604887","0.0-19.0-0.3-1.21","asjp7tndpd","","asjp7tndpd","""2024-11-13T15:45:28.464Z""","1726","materials/imgs/D80.png","arrowleft","","[""materials/imgs/D79.png"",""materials/imgs/D37.png""]","false","random","","",""
"","","","","","html-keyboard-response","397","605388","0.0-19.0-0.3-0.22","asjp7tndpd","","asjp7tndpd","""2024-11-13T15:45:28.464Z""","null","+","null","","","","","","",""
"","","","","","image-keyboard-response","398","606661","0.0-19.0-0.3-1.22","asjp7tndpd","","asjp7tndpd","""2024-11-13T15:45:28.464Z""","1261","materials/imgs/D51.png","arrowleft","","[""materials/imgs/D82.png"",""materials/imgs/D74.png""]","false","random","","",""
"","","","","","html-keyboard-response","399","607162","0.0-19.0-0.3-0.23","asjp7tndpd","","asjp7tndpd","""2024-11-13T15:45:28.464Z""","null","+","null","","","","","","",""
"","","","","","image-keyboard-response","400","610261","0.0-19.0-0.3-1.23","asjp7tndpd","","asjp7tndpd","""2024-11-13T15:45:28.464Z""","3098","materials/imgs/D11.png","arrowright","","[""materials/imgs/D95.png"",""materials/imgs/D18.png""]","false","random","","",""
"","","","","","html-keyboard-response","401","610763","0.0-19.0-0.3-0.24","asjp7tndpd","","asjp7tndpd","""2024-11-13T15:45:28.464Z""","null","+","null","","","","","","",""
"","","","","","image-keyboard-response","402","614531","0.0-19.0-0.3-1.24","asjp7tndpd","","asjp7tndpd","""2024-11-13T15:45:28.464Z""","3767","materials/imgs/D87.png","arrowright","","[""materials/imgs/D37.png"",""materials/imgs/D105.png""]","false","random","","",""
"","","","","","html-keyboard-response","403","615032","0.0-19.0-0.3-0.25","asjp7tndpd","","asjp7tndpd","""2024-11-13T15:45:28.464Z""","null","+","null","","","","","","",""
"","","","","","image-keyboard-response","404","617937","0.0-19.0-0.3-1.25","asjp7tndpd","","asjp7tndpd","""2024-11-13T15:45:28.464Z""","2903","materials/imgs/D56.png","arrowright","","[""materials/imgs/D51.png"",""materials/imgs/D53.png""]","false","random","","",""
"","","","","","html-keyboard-response","405","618438","0.0-19.0-0.3-0.26","asjp7tndpd","","asjp7tndpd","""2024-11-13T15:45:28.464Z""","null","+","null","","","","","","",""
"","","","","","image-keyboard-response","406","619770","0.0-19.0-0.3-1.26","asjp7tndpd","","asjp7tndpd","""2024-11-13T15:45:28.464Z""","1330","materials/imgs/D6.png","arrowright","","[""materials/imgs/D94.png"",""materials/imgs/D3.png""]","false","random","","",""
"","","","","","html-keyboard-response","407","620271","0.0-19.0-0.3-0.27","asjp7tndpd","","asjp7tndpd","""2024-11-13T15:45:28.464Z""","null","+","null","","","","","","",""
"","","","","","image-keyboard-response","408","621794","0.0-19.0-0.3-1.27","asjp7tndpd","","asjp7tndpd","""2024-11-13T15:45:28.464Z""","1522","materials/imgs/D104.png","arrowright","","[""materials/imgs/D101.png"",""materials/imgs/D52.png""]","false","random","","",""
"","","","","","html-keyboard-response","409","622296","0.0-19.0-1.3-0.3","asjp7tndpd","","asjp7tndpd","""2024-11-13T15:45:28.464Z""","null","+","null","","","","","","",""
"","","","","","image-keyboard-response","410","622971","0.0-19.0-1.3-1.3","asjp7tndpd","","asjp7tndpd","""2024-11-13T15:45:28.464Z""","673","materials/imgs/D64.png","arrowleft","","[""materials/imgs/D64.png"",""materials/imgs/D53.png""]","","check","materials/imgs/D64.png","0","true"
"","","","","","html-keyboard-response","411","623472","0.0-19.0-2.3-0.6","asjp7tndpd","","asjp7tndpd","""2024-11-13T15:45:28.464Z""","null","+","null","","","","","","",""
"","","","","","image-keyboard-response","412","627337","0.0-19.0-2.3-1.6","asjp7tndpd","","asjp7tndpd","""2024-11-13T15:45:28.464Z""","3863","materials/imgs/D84.png","arrowright","","[""materials/imgs/D106.png"",""materials/imgs/D37.png""]","false","validation","","",""
"","","","","","html-keyboard-response","413","627838","0.0-19.0-2.3-0.7","asjp7tndpd","","asjp7tndpd","""2024-11-13T15:45:28.464Z""","null","+","null","","","","","","",""
"","","","","","image-keyboard-response","414","629604","0.0-19.0-2.3-1.7","asjp7tndpd","","asjp7tndpd","""2024-11-13T15:45:28.464Z""","1764","materials/imgs/D82.png","arrowleft","","[""materials/imgs/D83.png"",""materials/imgs/D22.png""]","false","validation","","",""
"","","","","","html-keyboard-response","415","630106","0.0-19.0-0.4-0.28","asjp7tndpd","","asjp7tndpd","""2024-11-13T15:45:28.464Z""","null","+","null","","","","","","",""
"","","","","","image-keyboard-response","416","631290","0.0-19.0-0.4-1.28","asjp7tndpd","","asjp7tndpd","""2024-11-13T15:45:28.464Z""","1183","materials/imgs/D20.png","arrowleft","","[""materials/imgs/D55.png"",""materials/imgs/D4.png""]","false","random","","",""
"","","","","","html-keyboard-response","417","631791","0.0-19.0-0.4-0.29","asjp7tndpd","","asjp7tndpd","""2024-11-13T15:45:28.464Z""","null","+","null","","","","","","",""
"","","","","","image-keyboard-response","418","635327","0.0-19.0-0.4-1.29","asjp7tndpd","","asjp7tndpd","""2024-11-13T15:45:28.464Z""","3534","materials/imgs/D48.png","arrowright","","[""materials/imgs/D49.png"",""materials/imgs/D6.png""]","false","random","","",""
"","","","","","html-keyboard-response","419","635829","0.0-19.0-0.4-0.30","asjp7tndpd","","asjp7tndpd","""2024-11-13T15:45:28.464Z""","null","+","null","","","","","","",""
"","","","","","image-keyboard-response","420","638139","0.0-19.0-0.4-1.30","asjp7tndpd","","asjp7tndpd","""2024-11-13T15:45:28.464Z""","2308","materials/imgs/D52.png","arrowleft","","[""materials/imgs/D84.png"",""materials/imgs/D81.png""]","false","random","","",""
"","","","","","html-keyboard-response","421","638640","0.0-19.0-0.4-0.31","asjp7tndpd","","asjp7tndpd","""2024-11-13T15:45:28.464Z""","null","+","null","","","","","","",""
"","","","","","image-keyboard-response","422","639721","0.0-19.0-0.4-1.31","asjp7tndpd","","asjp7tndpd","""2024-11-13T15:45:28.464Z""","1080","materials/imgs/D53.png","arrowright","","[""materials/imgs/D102.png"",""materials/imgs/D78.png""]","false","random","","",""
"","","","","","html-keyboard-response","423","640221","0.0-19.0-0.4-0.32","asjp7tndpd","","asjp7tndpd","""2024-11-13T15:45:28.464Z""","null","+","null","","","","","","",""
"","","","","","image-keyboard-response","424","641054","0.0-19.0-0.4-1.32","asjp7tndpd","","asjp7tndpd","""2024-11-13T15:45:28.464Z""","832","materials/imgs/D57.png","arrowright","","[""materials/imgs/D47.png"",""materials/imgs/D17.png""]","false","random","","",""
"","","","","","html-keyboard-response","425","641555","0.0-19.0-0.4-0.33","asjp7tndpd","","asjp7tndpd","""2024-11-13T15:45:28.464Z""","null","+","null","","","","","","",""
"","","","","","image-keyboard-response","426","642888","0.0-19.0-0.4-1.33","asjp7tndpd","","asjp7tndpd","""2024-11-13T15:45:28.464Z""","1333","materials/imgs/D34.png","arrowright","","[""materials/imgs/D53.png"",""materials/imgs/D32.png""]","false","random","","",""
"","","","","","html-keyboard-response","427","643389","0.0-19.0-0.4-0.34","asjp7tndpd","","asjp7tndpd","""2024-11-13T15:45:28.464Z""","null","+","null","","","","","","",""
"","","","","","image-keyboard-response","428","644940","0.0-19.0-0.4-1.34","asjp7tndpd","","asjp7tndpd","""2024-11-13T15:45:28.464Z""","1550","materials/imgs/D84.png","arrowright","","[""materials/imgs/D16.png"",""materials/imgs/D55.png""]","false","random","","",""
"","","","","","html-keyboard-response","429","645441","0.0-19.0-1.4-0.4","asjp7tndpd","","asjp7tndpd","""2024-11-13T15:45:28.464Z""","null","+","null","","","","","","",""
"","","","","","image-keyboard-response","430","646104","0.0-19.0-1.4-1.4","asjp7tndpd","","asjp7tndpd","""2024-11-13T15:45:28.464Z""","662","materials/imgs/D106.png","arrowleft","","[""materials/imgs/D106.png"",""materials/imgs/D101.png""]","","check","materials/imgs/D106.png","0","true"
"","","","","","html-keyboard-response","431","646605","0.0-19.0-2.4-0.8","asjp7tndpd","","asjp7tndpd","""2024-11-13T15:45:28.464Z""","null","+","null","","","","","","",""
"","","","","","image-keyboard-response","432","648813","0.0-19.0-2.4-1.8","asjp7tndpd","","asjp7tndpd","""2024-11-13T15:45:28.464Z""","2209","materials/imgs/D64.png","arrowleft","","[""materials/imgs/D6.png"",""materials/imgs/D81.png""]","false","validation","","",""
"","","","","","html-keyboard-response","433","649314","0.0-19.0-2.4-0.9","asjp7tndpd","","asjp7tndpd","""2024-11-13T15:45:28.464Z""","null","+","null","","","","","","",""
"","","","","","image-keyboard-response","434","652286","0.0-19.0-2.4-1.9","asjp7tndpd","","asjp7tndpd","""2024-11-13T15:45:28.464Z""","2972","materials/imgs/D76.png","arrowleft","","[""materials/imgs/D83.png"",""materials/imgs/D6.png""]","false","validation","","",""
