"success","timeout","failed_images","failed_audio","failed_video","trial_type","trial_index","time_elapsed","internal_node_id","subject_id","sona_id","subjectID","dateInfo","rt","stimulus","response","question_order","choices","speedy","sampleAlg","selected_image","selected_index","correct"
"true","false","[]","[]","[]","preload","0","872","0.0-0.0","aztmcf2wlb","","aztmcf2wlb","""2024-11-12T18:59:33.823Z""","","","","","","","","","",""
"true","","","","","fullscreen","1","4162","0.0-1.0","aztmcf2wlb","","aztmcf2wlb","""2024-11-12T18:59:33.823Z""","","","","","","","","","",""
"","","","","","html-keyboard-response","2","4175","0.0-2.0","aztmcf2wlb","","aztmcf2wlb","""2024-11-12T18:59:33.823Z""","null","","null","","","","","","",""
"","","","","","html-button-response","3","11888","0.0-3.0","aztmcf2wlb","","aztmcf2wlb","""2024-11-12T18:59:33.823Z""","7712","<div style='text-align:center; font-size:20px; line-height:25px; width: 1200px;'>
                Welcome to our experiment! <br>
                <br>At the bottom of this screen, you will see a button that says 'Begin Experiment.
                <br>Please only click that button when you are ready to complete the 25 minute experiment in one sitting. <br>
                <br> Once you click that button, it will not be possible to restart the experiment. <br><br>","0","","","","","","",""
"true","","","","","fullscreen","4","14422","0.0-4.0","aztmcf2wlb","","aztmcf2wlb","""2024-11-12T18:59:33.823Z""","","","","","","","","","",""
"","","","","","survey-multi-select","5","40597","0.0-5.0","aztmcf2wlb","","aztmcf2wlb","""2024-11-12T18:59:33.823Z""","26170","","{""Consent"":[""<strong>I consent</strong>""]}","[0]","","","","","",""
"","","","","","html-button-response","6","41954","0.0-6.0","aztmcf2wlb","","aztmcf2wlb","""2024-11-12T18:59:33.823Z""","1356","Welcome! <p> This experiment involves two parts: demographic information, followed by the experimental task.<p> It will take about 25 minutes to complete both parts.","0","","","","","","",""
"","","","","","survey-text","7","50585","0.0-7.0","aztmcf2wlb","","aztmcf2wlb","""2024-11-12T18:59:33.823Z""","8626","","{""Age"":""21"",""Gender"":""Female"",""Race/ethnicity"":""White""}","","","","","","",""
"","","","","","html-button-response","8","61793","0.0-8.0","aztmcf2wlb","","aztmcf2wlb","""2024-11-12T18:59:33.823Z""","11207","<div style='text-align: center;'>
      <p>In each trial of this task, you will see three texture images: one target item on top, and two choices beneath the target item.</p>
      <p><strong>Please select the item that is most like the target item.</strong></p>
      <p>To select the option on the <strong>LEFT</strong>, press the <strong>LEFT ARROW</strong> key. 
      To select the option on the <strong>RIGHT</strong>, press the <strong>RIGHT ARROW</strong> key.</p>
                  <!-- Target Image at the Top -->
      <div style='margin: 20px;'>
        <img src='materials/imgs/instruction_images/InstructionImg1D78.png' alt='Target Image' style='width:200px; height:auto;' />
        <p><em>Target Image</em></p>
      </div>

      <!-- Two Choice Images Below -->
      <div style='display: flex; justify-content: center;'>
        <div style='margin-right: 50px;'>
          <img src='materials/imgs/instruction_images/InstructionImg2D34.png' alt='Choice Image 1' style='width:150px; height:auto;' />
          <p><em><strong>LEFT ARROW</strong></em></p>
        </div>
        <div style='margin-left: 50px;'>
          <img src='materials/imgs/instruction_images/InstructionImg3D80.png' alt='Choice Image 2' style='width:150px; height:auto;' />
          <p><em><strong>RIGHT ARROW</strong></em></p>
        </div>
      </div>
    </div>

      <p>When you are ready to proceed, please click 'Continue' to begin practice.</p>","0","","","","","","",""
"","","","","","html-keyboard-response","9","64297","0.0-9.0","aztmcf2wlb","","aztmcf2wlb","""2024-11-12T18:59:33.823Z""","null","+","null","","","","","","",""
"","","","","","html-keyboard-response","10","64799","0.0-10.0-0.0-0.0","aztmcf2wlb","","aztmcf2wlb","""2024-11-12T18:59:33.823Z""","null","+","null","","","","","","",""
"","","","","","image-keyboard-response","11","67724","0.0-10.0-0.0-1.0","aztmcf2wlb","","aztmcf2wlb","""2024-11-12T18:59:33.823Z""","2919","materials/imgs/D76.png","arrowright","","[""materials/imgs/D1.png"",""materials/imgs/D104.png""]","false","random","","",""
"","","","","","html-keyboard-response","12","68225","0.0-10.0-0.0-0.1","aztmcf2wlb","","aztmcf2wlb","""2024-11-12T18:59:33.823Z""","null","+","null","","","","","","",""
"","","","","","image-keyboard-response","13","69238","0.0-10.0-0.0-1.1","aztmcf2wlb","","aztmcf2wlb","""2024-11-12T18:59:33.823Z""","1010","materials/imgs/D17.png","arrowright","","[""materials/imgs/D102.png"",""materials/imgs/D85.png""]","false","random","","",""
"","","","","","html-keyboard-response","14","69740","0.0-10.0-0.0-0.2","aztmcf2wlb","","aztmcf2wlb","""2024-11-12T18:59:33.823Z""","null","+","null","","","","","","",""
"","","","","","image-keyboard-response","15","70897","0.0-10.0-0.0-1.2","aztmcf2wlb","","aztmcf2wlb","""2024-11-12T18:59:33.823Z""","1155","materials/imgs/D79.png","arrowright","","[""materials/imgs/D87.png"",""materials/imgs/D92.png""]","false","random","","",""
"","","","","","html-keyboard-response","16","71398","0.0-10.0-0.0-0.3","aztmcf2wlb","","aztmcf2wlb","""2024-11-12T18:59:33.823Z""","null","+","null","","","","","","",""
"","","","","","image-keyboard-response","17","72585","0.0-10.0-0.0-1.3","aztmcf2wlb","","aztmcf2wlb","""2024-11-12T18:59:33.823Z""","1185","materials/imgs/D78.png","arrowright","","[""materials/imgs/D3.png"",""materials/imgs/D85.png""]","false","random","","",""
"","","","","","html-keyboard-response","18","73087","0.0-10.0-0.0-0.4","aztmcf2wlb","","aztmcf2wlb","""2024-11-12T18:59:33.823Z""","null","+","null","","","","","","",""
"","","","","","image-keyboard-response","19","74945","0.0-10.0-0.0-1.4","aztmcf2wlb","","aztmcf2wlb","""2024-11-12T18:59:33.823Z""","1855","materials/imgs/D53.png","arrowleft","","[""materials/imgs/D65.png"",""materials/imgs/D64.png""]","false","random","","",""
"","","","","","html-keyboard-response","20","75447","0.0-10.0-0.0-0.5","aztmcf2wlb","","aztmcf2wlb","""2024-11-12T18:59:33.823Z""","null","+","null","","","","","","",""
"","","","","","image-keyboard-response","21","77040","0.0-10.0-0.0-1.5","aztmcf2wlb","","aztmcf2wlb","""2024-11-12T18:59:33.823Z""","1591","materials/imgs/D8.png","arrowleft","","[""materials/imgs/D101.png"",""materials/imgs/D1.png""]","false","random","","",""
"","","","","","html-keyboard-response","22","77541","0.0-10.0-0.0-0.6","aztmcf2wlb","","aztmcf2wlb","""2024-11-12T18:59:33.823Z""","null","+","null","","","","","","",""
"","","","","","image-keyboard-response","23","78359","0.0-10.0-0.0-1.6","aztmcf2wlb","","aztmcf2wlb","""2024-11-12T18:59:33.823Z""","815","materials/imgs/D68.png","arrowright","","[""materials/imgs/D56.png"",""materials/imgs/D22.png""]","false","random","","",""
"","","","","","html-keyboard-response","24","78861","0.0-10.0-0.0-0.7","aztmcf2wlb","","aztmcf2wlb","""2024-11-12T18:59:33.823Z""","null","+","null","","","","","","",""
"","","","","","image-keyboard-response","25","79860","0.0-10.0-0.0-1.7","aztmcf2wlb","","aztmcf2wlb","""2024-11-12T18:59:33.823Z""","997","materials/imgs/D48.png","arrowright","","[""materials/imgs/D65.png"",""materials/imgs/D102.png""]","false","random","","",""
"","","","","","html-keyboard-response","26","80361","0.0-10.0-0.0-0.8","aztmcf2wlb","","aztmcf2wlb","""2024-11-12T18:59:33.823Z""","null","+","null","","","","","","",""
"","","","","","image-keyboard-response","27","82225","0.0-10.0-0.0-1.8","aztmcf2wlb","","aztmcf2wlb","""2024-11-12T18:59:33.823Z""","1860","materials/imgs/D77.png","arrowright","","[""materials/imgs/D48.png"",""materials/imgs/D20.png""]","false","random","","",""
"","","","","","html-keyboard-response","28","82726","0.0-10.0-0.0-0.9","aztmcf2wlb","","aztmcf2wlb","""2024-11-12T18:59:33.823Z""","null","+","null","","","","","","",""
"","","","","","image-keyboard-response","29","84890","0.0-10.0-0.0-1.9","aztmcf2wlb","","aztmcf2wlb","""2024-11-12T18:59:33.823Z""","2162","materials/imgs/D48.png","arrowright","","[""materials/imgs/D83.png"",""materials/imgs/D25.png""]","false","random","","",""
"","","","","","html-button-response","30","86732","0.0-11.0","aztmcf2wlb","","aztmcf2wlb","""2024-11-12T18:59:33.823Z""","1841","<p>Great job!</p>
      <p>You are now ready to begin the experiment.</p>
      <p>There will be around 200 trials. You will have opportunities to take breaks at three stages of the trials.</p>
      <p>When you are ready to begin please click 'Continue'.</p>","0","","","","","","",""
"","","","","","html-keyboard-response","31","89236","0.0-12.0","aztmcf2wlb","","aztmcf2wlb","""2024-11-12T18:59:33.823Z""","null","+","null","","","","","","",""
"","","","","","html-keyboard-response","32","89737","0.0-13.0-0.0-0.0","aztmcf2wlb","","aztmcf2wlb","""2024-11-12T18:59:33.823Z""","null","+","null","","","","","","",""
"","","","","","image-keyboard-response","33","91870","0.0-13.0-0.0-1.0","aztmcf2wlb","","aztmcf2wlb","""2024-11-12T18:59:33.823Z""","2131","materials/imgs/D36.png","arrowleft","","[""materials/imgs/D34.png"",""materials/imgs/D81.png""]","false","random","","",""
"","","","","","html-keyboard-response","34","92372","0.0-13.0-0.0-0.1","aztmcf2wlb","","aztmcf2wlb","""2024-11-12T18:59:33.823Z""","null","+","null","","","","","","",""
"","","","","","image-keyboard-response","35","93177","0.0-13.0-0.0-1.1","aztmcf2wlb","","aztmcf2wlb","""2024-11-12T18:59:33.823Z""","803","materials/imgs/D18.png","arrowright","","[""materials/imgs/D105.png"",""materials/imgs/D111.png""]","false","random","","",""
"","","","","","html-keyboard-response","36","93678","0.0-13.0-0.0-0.2","aztmcf2wlb","","aztmcf2wlb","""2024-11-12T18:59:33.823Z""","null","+","null","","","","","","",""
"","","","","","image-keyboard-response","37","94415","0.0-13.0-0.0-1.2","aztmcf2wlb","","aztmcf2wlb","""2024-11-12T18:59:33.823Z""","736","materials/imgs/D111.png","arrowright","","[""materials/imgs/D106.png"",""materials/imgs/D1.png""]","false","random","","",""
"","","","","","html-keyboard-response","38","94917","0.0-13.0-0.0-0.3","aztmcf2wlb","","aztmcf2wlb","""2024-11-12T18:59:33.823Z""","null","+","null","","","","","","",""
"","","","","","image-keyboard-response","39","96405","0.0-13.0-0.0-1.3","aztmcf2wlb","","aztmcf2wlb","""2024-11-12T18:59:33.823Z""","1486","materials/imgs/D94.png","arrowleft","","[""materials/imgs/D83.png"",""materials/imgs/D105.png""]","false","random","","",""
"","","","","","html-keyboard-response","40","96906","0.0-13.0-0.0-0.4","aztmcf2wlb","","aztmcf2wlb","""2024-11-12T18:59:33.823Z""","null","+","null","","","","","","",""
"","","","","","image-keyboard-response","41","98521","0.0-13.0-0.0-1.4","aztmcf2wlb","","aztmcf2wlb","""2024-11-12T18:59:33.823Z""","1612","materials/imgs/D79.png","arrowright","","[""materials/imgs/D82.png"",""materials/imgs/D21.png""]","false","random","","",""
"","","","","","html-keyboard-response","42","99023","0.0-13.0-0.0-0.5","aztmcf2wlb","","aztmcf2wlb","""2024-11-12T18:59:33.823Z""","null","+","null","","","","","","",""
"","","","","","image-keyboard-response","43","99897","0.0-13.0-0.0-1.5","aztmcf2wlb","","aztmcf2wlb","""2024-11-12T18:59:33.823Z""","872","materials/imgs/D3.png","arrowright","","[""materials/imgs/D52.png"",""materials/imgs/D65.png""]","false","random","","",""
"","","","","","html-keyboard-response","44","100398","0.0-13.0-0.0-0.6","aztmcf2wlb","","aztmcf2wlb","""2024-11-12T18:59:33.823Z""","null","+","null","","","","","","",""
"","","","","","image-keyboard-response","45","101420","0.0-13.0-0.0-1.6","aztmcf2wlb","","aztmcf2wlb","""2024-11-12T18:59:33.823Z""","1020","materials/imgs/D77.png","arrowright","","[""materials/imgs/D46.png"",""materials/imgs/D102.png""]","false","random","","",""
"","","","","","html-keyboard-response","46","101921","0.0-13.0-1.0-0.0","aztmcf2wlb","","aztmcf2wlb","""2024-11-12T18:59:33.823Z""","null","+","null","","","","","","",""
"","","","","","image-keyboard-response","47","102748","0.0-13.0-1.0-1.0","aztmcf2wlb","","aztmcf2wlb","""2024-11-12T18:59:33.823Z""","824","materials/imgs/D46.png","arrowright","","[""materials/imgs/D46.png"",""materials/imgs/D26.png""]","","check","materials/imgs/D26.png","1","false"
"","","","","","html-keyboard-response","48","107790","0.0-13.0-1.0-2.0-0.0","aztmcf2wlb","","aztmcf2wlb","""2024-11-12T18:59:33.823Z""","5041","<p><strong>Incorrect!</strong></p>That was an attention check. Please pay attention while completing this task.<p>Press 'y' to continue.</p>","y","","","","","","",""
"","","","","","html-keyboard-response","49","108292","0.0-13.0-2.0-0.0","aztmcf2wlb","","aztmcf2wlb","""2024-11-12T18:59:33.823Z""","null","+","null","","","","","","",""
"","","","","","image-keyboard-response","50","110079","0.0-13.0-2.0-1.0","aztmcf2wlb","","aztmcf2wlb","""2024-11-12T18:59:33.823Z""","1785","materials/imgs/D46.png","arrowleft","","[""materials/imgs/D92.png"",""materials/imgs/D77.png""]","false","validation","","",""
"","","","","","html-keyboard-response","51","110581","0.0-13.0-2.0-0.1","aztmcf2wlb","","aztmcf2wlb","""2024-11-12T18:59:33.823Z""","null","+","null","","","","","","",""
"","","","","","image-keyboard-response","52","112012","0.0-13.0-2.0-1.1","aztmcf2wlb","","aztmcf2wlb","""2024-11-12T18:59:33.823Z""","1428","materials/imgs/D57.png","arrowright","","[""materials/imgs/D111.png"",""materials/imgs/D4.png""]","false","validation","","",""
"","","","","","html-keyboard-response","53","112513","0.0-13.0-0.1-0.7","aztmcf2wlb","","aztmcf2wlb","""2024-11-12T18:59:33.823Z""","null","+","null","","","","","","",""
"","","","","","image-keyboard-response","54","114826","0.0-13.0-0.1-1.7","aztmcf2wlb","","aztmcf2wlb","""2024-11-12T18:59:33.823Z""","2311","materials/imgs/D25.png","arrowright","","[""materials/imgs/D66.png"",""materials/imgs/D18.png""]","false","random","","",""
"","","","","","html-keyboard-response","55","115327","0.0-13.0-0.1-0.8","aztmcf2wlb","","aztmcf2wlb","""2024-11-12T18:59:33.823Z""","null","+","null","","","","","","",""
"","","","","","image-keyboard-response","56","117965","0.0-13.0-0.1-1.8","aztmcf2wlb","","aztmcf2wlb","""2024-11-12T18:59:33.823Z""","2635","materials/imgs/D49.png","arrowright","","[""materials/imgs/D56.png"",""materials/imgs/D21.png""]","false","random","","",""
"","","","","","html-keyboard-response","57","118467","0.0-13.0-0.1-0.9","aztmcf2wlb","","aztmcf2wlb","""2024-11-12T18:59:33.823Z""","null","+","null","","","","","","",""
"","","","","","image-keyboard-response","58","122088","0.0-13.0-0.1-1.9","aztmcf2wlb","","aztmcf2wlb","""2024-11-12T18:59:33.823Z""","3619","materials/imgs/D111.png","arrowleft","","[""materials/imgs/D29.png"",""materials/imgs/D55.png""]","false","random","","",""
"","","","","","html-keyboard-response","59","122589","0.0-13.0-0.1-0.10","aztmcf2wlb","","aztmcf2wlb","""2024-11-12T18:59:33.823Z""","null","+","null","","","","","","",""
"","","","","","image-keyboard-response","60","124516","0.0-13.0-0.1-1.10","aztmcf2wlb","","aztmcf2wlb","""2024-11-12T18:59:33.823Z""","1925","materials/imgs/D3.png","arrowleft","","[""materials/imgs/D66.png"",""materials/imgs/D53.png""]","false","random","","",""
"","","","","","html-keyboard-response","61","125017","0.0-13.0-0.1-0.11","aztmcf2wlb","","aztmcf2wlb","""2024-11-12T18:59:33.823Z""","null","+","null","","","","","","",""
"","","","","","image-keyboard-response","62","126144","0.0-13.0-0.1-1.11","aztmcf2wlb","","aztmcf2wlb","""2024-11-12T18:59:33.823Z""","1124","materials/imgs/D46.png","arrowright","","[""materials/imgs/D6.png"",""materials/imgs/D1.png""]","false","random","","",""
"","","","","","html-keyboard-response","63","126646","0.0-13.0-0.1-0.12","aztmcf2wlb","","aztmcf2wlb","""2024-11-12T18:59:33.823Z""","null","+","null","","","","","","",""
"","","","","","image-keyboard-response","64","128232","0.0-13.0-0.1-1.12","aztmcf2wlb","","aztmcf2wlb","""2024-11-12T18:59:33.823Z""","1585","materials/imgs/D56.png","arrowleft","","[""materials/imgs/D101.png"",""materials/imgs/D11.png""]","false","random","","",""
"","","","","","html-keyboard-response","65","128733","0.0-13.0-0.1-0.13","aztmcf2wlb","","aztmcf2wlb","""2024-11-12T18:59:33.823Z""","null","+","null","","","","","","",""
"","","","","","image-keyboard-response","66","137341","0.0-13.0-0.1-1.13","aztmcf2wlb","","aztmcf2wlb","""2024-11-12T18:59:33.823Z""","8607","materials/imgs/D102.png","arrowleft","","[""materials/imgs/D64.png"",""materials/imgs/D26.png""]","false","random","","",""
"","","","","","html-keyboard-response","67","137842","0.0-13.0-1.1-0.1","aztmcf2wlb","","aztmcf2wlb","""2024-11-12T18:59:33.823Z""","null","+","null","","","","","","",""
"","","","","","image-keyboard-response","68","138711","0.0-13.0-1.1-1.1","aztmcf2wlb","","aztmcf2wlb","""2024-11-12T18:59:33.823Z""","867","materials/imgs/D76.png","arrowleft","","[""materials/imgs/D76.png"",""materials/imgs/D78.png""]","","check","materials/imgs/D76.png","0","true"
"","","","","","html-keyboard-response","69","139212","0.0-13.0-2.1-0.2","aztmcf2wlb","","aztmcf2wlb","""2024-11-12T18:59:33.823Z""","null","+","null","","","","","","",""
"","","","","","image-keyboard-response","70","141094","0.0-13.0-2.1-1.2","aztmcf2wlb","","aztmcf2wlb","""2024-11-12T18:59:33.823Z""","1880","materials/imgs/D25.png","arrowright","","[""materials/imgs/D103.png"",""materials/imgs/D64.png""]","false","validation","","",""
"","","","","","html-keyboard-response","71","141595","0.0-13.0-2.1-0.3","aztmcf2wlb","","aztmcf2wlb","""2024-11-12T18:59:33.823Z""","null","+","null","","","","","","",""
"","","","","","image-keyboard-response","72","144141","0.0-13.0-2.1-1.3","aztmcf2wlb","","aztmcf2wlb","""2024-11-12T18:59:33.823Z""","2544","materials/imgs/D37.png","arrowleft","","[""materials/imgs/D84.png"",""materials/imgs/D111.png""]","false","validation","","",""
"","","","","","html-keyboard-response","73","144643","0.0-13.0-0.2-0.14","aztmcf2wlb","","aztmcf2wlb","""2024-11-12T18:59:33.823Z""","null","+","null","","","","","","",""
"","","","","","image-keyboard-response","74","155316","0.0-13.0-0.2-1.14","aztmcf2wlb","","aztmcf2wlb","""2024-11-12T18:59:33.823Z""","10672","materials/imgs/D51.png","arrowright","","[""materials/imgs/D81.png"",""materials/imgs/D21.png""]","false","random","","",""
"","","","","","html-keyboard-response","75","155817","0.0-13.0-0.2-0.15","aztmcf2wlb","","aztmcf2wlb","""2024-11-12T18:59:33.823Z""","null","+","null","","","","","","",""
"","","","","","image-keyboard-response","76","157915","0.0-13.0-0.2-1.15","aztmcf2wlb","","aztmcf2wlb","""2024-11-12T18:59:33.823Z""","2095","materials/imgs/D29.png","arrowright","","[""materials/imgs/D14.png"",""materials/imgs/D92.png""]","false","random","","",""
"","","","","","html-keyboard-response","77","158417","0.0-13.0-0.2-0.16","aztmcf2wlb","","aztmcf2wlb","""2024-11-12T18:59:33.823Z""","null","+","null","","","","","","",""
"","","","","","image-keyboard-response","78","161476","0.0-13.0-0.2-1.16","aztmcf2wlb","","aztmcf2wlb","""2024-11-12T18:59:33.823Z""","3057","materials/imgs/D95.png","arrowright","","[""materials/imgs/D3.png"",""materials/imgs/D47.png""]","false","random","","",""
"","","","","","html-keyboard-response","79","161978","0.0-13.0-0.2-0.17","aztmcf2wlb","","aztmcf2wlb","""2024-11-12T18:59:33.823Z""","null","+","null","","","","","","",""
"","","","","","image-keyboard-response","80","166854","0.0-13.0-0.2-1.17","aztmcf2wlb","","aztmcf2wlb","""2024-11-12T18:59:33.823Z""","4874","materials/imgs/D4.png","arrowleft","","[""materials/imgs/D66.png"",""materials/imgs/D102.png""]","false","random","","",""
"","","","","","html-keyboard-response","81","167356","0.0-13.0-0.2-0.18","aztmcf2wlb","","aztmcf2wlb","""2024-11-12T18:59:33.823Z""","null","+","null","","","","","","",""
"","","","","","image-keyboard-response","82","171360","0.0-13.0-0.2-1.18","aztmcf2wlb","","aztmcf2wlb","""2024-11-12T18:59:33.823Z""","4001","materials/imgs/D11.png","arrowright","","[""materials/imgs/D1.png"",""materials/imgs/D68.png""]","false","random","","",""
"","","","","","html-keyboard-response","83","171862","0.0-13.0-0.2-0.19","aztmcf2wlb","","aztmcf2wlb","""2024-11-12T18:59:33.823Z""","null","+","null","","","","","","",""
"","","","","","image-keyboard-response","84","175218","0.0-13.0-0.2-1.19","aztmcf2wlb","","aztmcf2wlb","""2024-11-12T18:59:33.823Z""","3353","materials/imgs/D47.png","arrowright","","[""materials/imgs/D102.png"",""materials/imgs/D56.png""]","false","random","","",""
"","","","","","html-keyboard-response","85","175719","0.0-13.0-0.2-0.20","aztmcf2wlb","","aztmcf2wlb","""2024-11-12T18:59:33.823Z""","null","+","null","","","","","","",""
"","","","","","image-keyboard-response","86","179154","0.0-13.0-0.2-1.20","aztmcf2wlb","","aztmcf2wlb","""2024-11-12T18:59:33.823Z""","3434","materials/imgs/D16.png","arrowleft","","[""materials/imgs/D26.png"",""materials/imgs/D87.png""]","false","random","","",""
"","","","","","html-keyboard-response","87","179655","0.0-13.0-1.2-0.2","aztmcf2wlb","","aztmcf2wlb","""2024-11-12T18:59:33.823Z""","null","+","null","","","","","","",""
"","","","","","image-keyboard-response","88","180471","0.0-13.0-1.2-1.2","aztmcf2wlb","","aztmcf2wlb","""2024-11-12T18:59:33.823Z""","814","materials/imgs/D106.png","arrowleft","","[""materials/imgs/D106.png"",""materials/imgs/D101.png""]","","check","materials/imgs/D106.png","0","true"
"","","","","","html-keyboard-response","89","180973","0.0-13.0-2.2-0.4","aztmcf2wlb","","aztmcf2wlb","""2024-11-12T18:59:33.823Z""","null","+","null","","","","","","",""
"","","","","","image-keyboard-response","90","182573","0.0-13.0-2.2-1.4","aztmcf2wlb","","aztmcf2wlb","""2024-11-12T18:59:33.823Z""","1598","materials/imgs/D65.png","arrowright","","[""materials/imgs/D4.png"",""materials/imgs/D16.png""]","false","validation","","",""
"","","","","","html-keyboard-response","91","183074","0.0-13.0-2.2-0.5","aztmcf2wlb","","aztmcf2wlb","""2024-11-12T18:59:33.823Z""","null","+","null","","","","","","",""
"","","","","","image-keyboard-response","92","183928","0.0-13.0-2.2-1.5","aztmcf2wlb","","aztmcf2wlb","""2024-11-12T18:59:33.823Z""","852","materials/imgs/D8.png","arrowleft","","[""materials/imgs/D101.png"",""materials/imgs/D52.png""]","false","validation","","",""
"","","","","","html-keyboard-response","93","184430","0.0-13.0-0.3-0.21","aztmcf2wlb","","aztmcf2wlb","""2024-11-12T18:59:33.823Z""","null","+","null","","","","","","",""
"","","","","","image-keyboard-response","94","186809","0.0-13.0-0.3-1.21","aztmcf2wlb","","aztmcf2wlb","""2024-11-12T18:59:33.823Z""","2377","materials/imgs/D111.png","arrowleft","","[""materials/imgs/D37.png"",""materials/imgs/D64.png""]","false","random","","",""
"","","","","","html-keyboard-response","95","187310","0.0-13.0-0.3-0.22","aztmcf2wlb","","aztmcf2wlb","""2024-11-12T18:59:33.823Z""","null","+","null","","","","","","",""
"","","","","","image-keyboard-response","96","189885","0.0-13.0-0.3-1.22","aztmcf2wlb","","aztmcf2wlb","""2024-11-12T18:59:33.823Z""","2572","materials/imgs/D26.png","arrowright","","[""materials/imgs/D8.png"",""materials/imgs/D55.png""]","false","random","","",""
"","","","","","html-keyboard-response","97","190386","0.0-13.0-0.3-0.23","aztmcf2wlb","","aztmcf2wlb","""2024-11-12T18:59:33.823Z""","null","+","null","","","","","","",""
"","","","","","image-keyboard-response","98","193077","0.0-13.0-0.3-1.23","aztmcf2wlb","","aztmcf2wlb","""2024-11-12T18:59:33.823Z""","2688","materials/imgs/D101.png","arrowleft","","[""materials/imgs/D80.png"",""materials/imgs/D57.png""]","false","random","","",""
"","","","","","html-keyboard-response","99","193578","0.0-13.0-0.3-0.24","aztmcf2wlb","","aztmcf2wlb","""2024-11-12T18:59:33.823Z""","null","+","null","","","","","","",""
"","","","","","image-keyboard-response","100","195936","0.0-13.0-0.3-1.24","aztmcf2wlb","","aztmcf2wlb","""2024-11-12T18:59:33.823Z""","2356","materials/imgs/D1.png","arrowleft","","[""materials/imgs/D94.png"",""materials/imgs/D52.png""]","false","random","","",""
"","","","","","html-keyboard-response","101","196437","0.0-13.0-0.3-0.25","aztmcf2wlb","","aztmcf2wlb","""2024-11-12T18:59:33.823Z""","null","+","null","","","","","","",""
"","","","","","image-keyboard-response","102","198249","0.0-13.0-0.3-1.25","aztmcf2wlb","","aztmcf2wlb","""2024-11-12T18:59:33.823Z""","1809","materials/imgs/D68.png","arrowleft","","[""materials/imgs/D49.png"",""materials/imgs/D56.png""]","false","random","","",""
"","","","","","html-keyboard-response","103","198750","0.0-13.0-0.3-0.26","aztmcf2wlb","","aztmcf2wlb","""2024-11-12T18:59:33.823Z""","null","+","null","","","","","","",""
"","","","","","image-keyboard-response","104","200684","0.0-13.0-0.3-1.26","aztmcf2wlb","","aztmcf2wlb","""2024-11-12T18:59:33.823Z""","1933","materials/imgs/D83.png","arrowright","","[""materials/imgs/D26.png"",""materials/imgs/D17.png""]","false","random","","",""
"","","","","","html-keyboard-response","105","201186","0.0-13.0-0.3-0.27","aztmcf2wlb","","aztmcf2wlb","""2024-11-12T18:59:33.823Z""","null","+","null","","","","","","",""
"","","","","","image-keyboard-response","106","202665","0.0-13.0-0.3-1.27","aztmcf2wlb","","aztmcf2wlb","""2024-11-12T18:59:33.823Z""","1477","materials/imgs/D56.png","arrowright","","[""materials/imgs/D6.png"",""materials/imgs/D83.png""]","false","random","","",""
"","","","","","html-keyboard-response","107","203166","0.0-13.0-1.3-0.3","aztmcf2wlb","","aztmcf2wlb","""2024-11-12T18:59:33.823Z""","null","+","null","","","","","","",""
"","","","","","image-keyboard-response","108","204065","0.0-13.0-1.3-1.3","aztmcf2wlb","","aztmcf2wlb","""2024-11-12T18:59:33.823Z""","896","materials/imgs/D101.png","arrowright","","[""materials/imgs/D106.png"",""materials/imgs/D101.png""]","","check","materials/imgs/D101.png","1","true"
"","","","","","html-keyboard-response","109","204567","0.0-13.0-2.3-0.6","aztmcf2wlb","","aztmcf2wlb","""2024-11-12T18:59:33.823Z""","null","+","null","","","","","","",""
"","","","","","image-keyboard-response","110","207017","0.0-13.0-2.3-1.6","aztmcf2wlb","","aztmcf2wlb","""2024-11-12T18:59:33.823Z""","2448","materials/imgs/D85.png","arrowleft","","[""materials/imgs/D6.png"",""materials/imgs/D111.png""]","false","validation","","",""
"","","","","","html-keyboard-response","111","207519","0.0-13.0-2.3-0.7","aztmcf2wlb","","aztmcf2wlb","""2024-11-12T18:59:33.823Z""","null","+","null","","","","","","",""
"","","","","","image-keyboard-response","112","209547","0.0-13.0-2.3-1.7","aztmcf2wlb","","aztmcf2wlb","""2024-11-12T18:59:33.823Z""","2027","materials/imgs/D56.png","arrowright","","[""materials/imgs/D25.png"",""materials/imgs/D105.png""]","false","validation","","",""
"","","","","","html-keyboard-response","113","210049","0.0-13.0-0.4-0.28","aztmcf2wlb","","aztmcf2wlb","""2024-11-12T18:59:33.823Z""","null","+","null","","","","","","",""
"","","","","","image-keyboard-response","114","211065","0.0-13.0-0.4-1.28","aztmcf2wlb","","aztmcf2wlb","""2024-11-12T18:59:33.823Z""","1013","materials/imgs/D34.png","arrowleft","","[""materials/imgs/D66.png"",""materials/imgs/D14.png""]","false","random","","",""
"","","","","","html-keyboard-response","115","211566","0.0-13.0-0.4-0.29","aztmcf2wlb","","aztmcf2wlb","""2024-11-12T18:59:33.823Z""","null","+","null","","","","","","",""
"","","","","","image-keyboard-response","116","212801","0.0-13.0-0.4-1.29","aztmcf2wlb","","aztmcf2wlb","""2024-11-12T18:59:33.823Z""","1233","materials/imgs/D32.png","arrowright","","[""materials/imgs/D64.png"",""materials/imgs/D6.png""]","false","random","","",""
"","","","","","html-keyboard-response","117","213303","0.0-13.0-0.4-0.30","aztmcf2wlb","","aztmcf2wlb","""2024-11-12T18:59:33.823Z""","null","+","null","","","","","","",""
"","","","","","image-keyboard-response","118","216469","0.0-13.0-0.4-1.30","aztmcf2wlb","","aztmcf2wlb","""2024-11-12T18:59:33.823Z""","3164","materials/imgs/D26.png","arrowright","","[""materials/imgs/D92.png"",""materials/imgs/D106.png""]","false","random","","",""
"","","","","","html-keyboard-response","119","216970","0.0-13.0-0.4-0.31","aztmcf2wlb","","aztmcf2wlb","""2024-11-12T18:59:33.823Z""","null","+","null","","","","","","",""
"","","","","","image-keyboard-response","120","218681","0.0-13.0-0.4-1.31","aztmcf2wlb","","aztmcf2wlb","""2024-11-12T18:59:33.823Z""","1708","materials/imgs/D9.png","arrowright","","[""materials/imgs/D74.png"",""materials/imgs/D34.png""]","false","random","","",""
"","","","","","html-keyboard-response","121","219182","0.0-13.0-0.4-0.32","aztmcf2wlb","","aztmcf2wlb","""2024-11-12T18:59:33.823Z""","null","+","null","","","","","","",""
"","","","","","image-keyboard-response","122","220107","0.0-13.0-0.4-1.32","aztmcf2wlb","","aztmcf2wlb","""2024-11-12T18:59:33.823Z""","923","materials/imgs/D85.png","arrowleft","","[""materials/imgs/D53.png"",""materials/imgs/D18.png""]","false","random","","",""
"","","","","","html-keyboard-response","123","220609","0.0-13.0-0.4-0.33","aztmcf2wlb","","aztmcf2wlb","""2024-11-12T18:59:33.823Z""","null","+","null","","","","","","",""
"","","","","","image-keyboard-response","124","221806","0.0-13.0-0.4-1.33","aztmcf2wlb","","aztmcf2wlb","""2024-11-12T18:59:33.823Z""","1194","materials/imgs/D66.png","arrowright","","[""materials/imgs/D34.png"",""materials/imgs/D111.png""]","false","random","","",""
"","","","","","html-keyboard-response","125","222307","0.0-13.0-0.4-0.34","aztmcf2wlb","","aztmcf2wlb","""2024-11-12T18:59:33.823Z""","null","+","null","","","","","","",""
"","","","","","image-keyboard-response","126","224599","0.0-13.0-0.4-1.34","aztmcf2wlb","","aztmcf2wlb","""2024-11-12T18:59:33.823Z""","2290","materials/imgs/D75.png","arrowright","","[""materials/imgs/D14.png"",""materials/imgs/D37.png""]","false","random","","",""
"","","","","","html-keyboard-response","127","225100","0.0-13.0-1.4-0.4","aztmcf2wlb","","aztmcf2wlb","""2024-11-12T18:59:33.823Z""","null","+","null","","","","","","",""
"","","","","","image-keyboard-response","128","226720","0.0-13.0-1.4-1.4","aztmcf2wlb","","aztmcf2wlb","""2024-11-12T18:59:33.823Z""","1618","materials/imgs/D106.png","arrowleft","","[""materials/imgs/D106.png"",""materials/imgs/D101.png""]","","check","materials/imgs/D106.png","0","true"
"","","","","","html-keyboard-response","129","227222","0.0-13.0-2.4-0.8","aztmcf2wlb","","aztmcf2wlb","""2024-11-12T18:59:33.823Z""","null","+","null","","","","","","",""
"","","","","","image-keyboard-response","130","228806","0.0-13.0-2.4-1.8","aztmcf2wlb","","aztmcf2wlb","""2024-11-12T18:59:33.823Z""","1582","materials/imgs/D52.png","arrowright","","[""materials/imgs/D9.png"",""materials/imgs/D19.png""]","false","validation","","",""
"","","","","","html-keyboard-response","131","229308","0.0-13.0-2.4-0.9","aztmcf2wlb","","aztmcf2wlb","""2024-11-12T18:59:33.823Z""","null","+","null","","","","","","",""
"","","","","","image-keyboard-response","132","231462","0.0-13.0-2.4-1.9","aztmcf2wlb","","aztmcf2wlb","""2024-11-12T18:59:33.823Z""","2152","materials/imgs/D106.png","arrowleft","","[""materials/imgs/D57.png"",""materials/imgs/D18.png""]","false","validation","","",""
"","","","","","html-button-response","133","235475","0.0-14.0","aztmcf2wlb","","aztmcf2wlb","""2024-11-12T18:59:33.823Z""","4011","You have completed 25% of the trials. Please click 'Continue' when you are ready proceed.","0","","","","","","",""
"","","","","","html-keyboard-response","134","235977","0.0-15.0-0.0-0.0","aztmcf2wlb","","aztmcf2wlb","""2024-11-12T18:59:33.823Z""","null","+","null","","","","","","",""
"","","","","","image-keyboard-response","135","237183","0.0-15.0-0.0-1.0","aztmcf2wlb","","aztmcf2wlb","""2024-11-12T18:59:33.823Z""","1203","materials/imgs/D16.png","arrowright","","[""materials/imgs/D4.png"",""materials/imgs/D79.png""]","false","random","","",""
"","","","","","html-keyboard-response","136","237685","0.0-15.0-0.0-0.1","aztmcf2wlb","","aztmcf2wlb","""2024-11-12T18:59:33.823Z""","null","+","null","","","","","","",""
"","","","","","image-keyboard-response","137","240394","0.0-15.0-0.0-1.1","aztmcf2wlb","","aztmcf2wlb","""2024-11-12T18:59:33.823Z""","2709","materials/imgs/D11.png","arrowright","","[""materials/imgs/D96.png"",""materials/imgs/D4.png""]","false","random","","",""
"","","","","","html-keyboard-response","138","240895","0.0-15.0-0.0-0.2","aztmcf2wlb","","aztmcf2wlb","""2024-11-12T18:59:33.823Z""","null","+","null","","","","","","",""
"","","","","","image-keyboard-response","139","241750","0.0-15.0-0.0-1.2","aztmcf2wlb","","aztmcf2wlb","""2024-11-12T18:59:33.823Z""","853","materials/imgs/D53.png","arrowright","","[""materials/imgs/D51.png"",""materials/imgs/D34.png""]","false","random","","",""
"","","","","","html-keyboard-response","140","242251","0.0-15.0-0.0-0.3","aztmcf2wlb","","aztmcf2wlb","""2024-11-12T18:59:33.823Z""","null","+","null","","","","","","",""
"","","","","","image-keyboard-response","141","243161","0.0-15.0-0.0-1.3","aztmcf2wlb","","aztmcf2wlb","""2024-11-12T18:59:33.823Z""","908","materials/imgs/D74.png","arrowleft","","[""materials/imgs/D81.png"",""materials/imgs/D55.png""]","false","random","","",""
"","","","","","html-keyboard-response","142","243662","0.0-15.0-0.0-0.4","aztmcf2wlb","","aztmcf2wlb","""2024-11-12T18:59:33.823Z""","null","+","null","","","","","","",""
"","","","","","image-keyboard-response","143","245306","0.0-15.0-0.0-1.4","aztmcf2wlb","","aztmcf2wlb","""2024-11-12T18:59:33.823Z""","1642","materials/imgs/D6.png","arrowleft","","[""materials/imgs/D53.png"",""materials/imgs/D49.png""]","false","random","","",""
"","","","","","html-keyboard-response","144","245807","0.0-15.0-0.0-0.5","aztmcf2wlb","","aztmcf2wlb","""2024-11-12T18:59:33.823Z""","null","+","null","","","","","","",""
"","","","","","image-keyboard-response","145","248767","0.0-15.0-0.0-1.5","aztmcf2wlb","","aztmcf2wlb","""2024-11-12T18:59:33.823Z""","2958","materials/imgs/D22.png","arrowright","","[""materials/imgs/D16.png"",""materials/imgs/D102.png""]","false","random","","",""
"","","","","","html-keyboard-response","146","249269","0.0-15.0-0.0-0.6","aztmcf2wlb","","aztmcf2wlb","""2024-11-12T18:59:33.823Z""","null","+","null","","","","","","",""
"","","","","","image-keyboard-response","147","252217","0.0-15.0-0.0-1.6","aztmcf2wlb","","aztmcf2wlb","""2024-11-12T18:59:33.823Z""","2946","materials/imgs/D80.png","arrowleft","","[""materials/imgs/D18.png"",""materials/imgs/D95.png""]","false","random","","",""
"","","","","","html-keyboard-response","148","252718","0.0-15.0-1.0-0.0","aztmcf2wlb","","aztmcf2wlb","""2024-11-12T18:59:33.823Z""","null","+","null","","","","","","",""
"","","","","","image-keyboard-response","149","253525","0.0-15.0-1.0-1.0","aztmcf2wlb","","aztmcf2wlb","""2024-11-12T18:59:33.823Z""","806","materials/imgs/D76.png","arrowleft","","[""materials/imgs/D76.png"",""materials/imgs/D78.png""]","","check","materials/imgs/D76.png","0","true"
"","","","","","html-keyboard-response","150","254028","0.0-15.0-2.0-0.0","aztmcf2wlb","","aztmcf2wlb","""2024-11-12T18:59:33.823Z""","null","+","null","","","","","","",""
"","","","","","image-keyboard-response","151","257686","0.0-15.0-2.0-1.0","aztmcf2wlb","","aztmcf2wlb","""2024-11-12T18:59:33.823Z""","3656","materials/imgs/D95.png","arrowleft","","[""materials/imgs/D36.png"",""materials/imgs/D4.png""]","false","validation","","",""
"","","","","","html-keyboard-response","152","258187","0.0-15.0-2.0-0.1","aztmcf2wlb","","aztmcf2wlb","""2024-11-12T18:59:33.823Z""","null","+","null","","","","","","",""
"","","","","","image-keyboard-response","153","259374","0.0-15.0-2.0-1.1","aztmcf2wlb","","aztmcf2wlb","""2024-11-12T18:59:33.823Z""","1185","materials/imgs/D65.png","arrowright","","[""materials/imgs/D4.png"",""materials/imgs/D16.png""]","false","validation","","",""
"","","","","","html-keyboard-response","154","259875","0.0-15.0-0.1-0.7","aztmcf2wlb","","aztmcf2wlb","""2024-11-12T18:59:33.823Z""","null","+","null","","","","","","",""
"","","","","","image-keyboard-response","155","263052","0.0-15.0-0.1-1.7","aztmcf2wlb","","aztmcf2wlb","""2024-11-12T18:59:33.823Z""","3174","materials/imgs/D83.png","arrowleft","","[""materials/imgs/D22.png"",""materials/imgs/D34.png""]","false","random","","",""
"","","","","","html-keyboard-response","156","263553","0.0-15.0-0.1-0.8","aztmcf2wlb","","aztmcf2wlb","""2024-11-12T18:59:33.823Z""","null","+","null","","","","","","",""
"","","","","","image-keyboard-response","157","264860","0.0-15.0-0.1-1.8","aztmcf2wlb","","aztmcf2wlb","""2024-11-12T18:59:33.823Z""","1305","materials/imgs/D35.png","arrowright","","[""materials/imgs/D52.png"",""materials/imgs/D83.png""]","false","random","","",""
"","","","","","html-keyboard-response","158","265362","0.0-15.0-0.1-0.9","aztmcf2wlb","","aztmcf2wlb","""2024-11-12T18:59:33.823Z""","null","+","null","","","","","","",""
"","","","","","image-keyboard-response","159","268102","0.0-15.0-0.1-1.9","aztmcf2wlb","","aztmcf2wlb","""2024-11-12T18:59:33.823Z""","2738","materials/imgs/D87.png","arrowleft","","[""materials/imgs/D17.png"",""materials/imgs/D102.png""]","false","random","","",""
"","","","","","html-keyboard-response","160","268604","0.0-15.0-0.1-0.10","aztmcf2wlb","","aztmcf2wlb","""2024-11-12T18:59:33.823Z""","null","+","null","","","","","","",""
"","","","","","image-keyboard-response","161","269586","0.0-15.0-0.1-1.10","aztmcf2wlb","","aztmcf2wlb","""2024-11-12T18:59:33.823Z""","980","materials/imgs/D65.png","arrowleft","","[""materials/imgs/D8.png"",""materials/imgs/D78.png""]","false","random","","",""
"","","","","","html-keyboard-response","162","270087","0.0-15.0-0.1-0.11","aztmcf2wlb","","aztmcf2wlb","""2024-11-12T18:59:33.823Z""","null","+","null","","","","","","",""
"","","","","","image-keyboard-response","163","271374","0.0-15.0-0.1-1.11","aztmcf2wlb","","aztmcf2wlb","""2024-11-12T18:59:33.823Z""","1285","materials/imgs/D20.png","arrowleft","","[""materials/imgs/D80.png"",""materials/imgs/D78.png""]","false","random","","",""
"","","","","","html-keyboard-response","164","271876","0.0-15.0-0.1-0.12","aztmcf2wlb","","aztmcf2wlb","""2024-11-12T18:59:33.823Z""","null","+","null","","","","","","",""
"","","","","","image-keyboard-response","165","273638","0.0-15.0-0.1-1.12","aztmcf2wlb","","aztmcf2wlb","""2024-11-12T18:59:33.823Z""","1760","materials/imgs/D106.png","arrowleft","","[""materials/imgs/D84.png"",""materials/imgs/D35.png""]","false","random","","",""
"","","","","","html-keyboard-response","166","274140","0.0-15.0-0.1-0.13","aztmcf2wlb","","aztmcf2wlb","""2024-11-12T18:59:33.823Z""","null","+","null","","","","","","",""
"","","","","","image-keyboard-response","167","275357","0.0-15.0-0.1-1.13","aztmcf2wlb","","aztmcf2wlb","""2024-11-12T18:59:33.823Z""","1215","materials/imgs/D103.png","arrowright","","[""materials/imgs/D57.png"",""materials/imgs/D111.png""]","false","random","","",""
"","","","","","html-keyboard-response","168","275858","0.0-15.0-1.1-0.1","aztmcf2wlb","","aztmcf2wlb","""2024-11-12T18:59:33.823Z""","null","+","null","","","","","","",""
"","","","","","image-keyboard-response","169","276531","0.0-15.0-1.1-1.1","aztmcf2wlb","","aztmcf2wlb","""2024-11-12T18:59:33.823Z""","670","materials/imgs/D26.png","arrowleft","","[""materials/imgs/D26.png"",""materials/imgs/D46.png""]","","check","materials/imgs/D26.png","0","true"
"","","","","","html-keyboard-response","170","277032","0.0-15.0-2.1-0.2","aztmcf2wlb","","aztmcf2wlb","""2024-11-12T18:59:33.823Z""","null","+","null","","","","","","",""
"","","","","","image-keyboard-response","171","279221","0.0-15.0-2.1-1.2","aztmcf2wlb","","aztmcf2wlb","""2024-11-12T18:59:33.823Z""","2187","materials/imgs/D18.png","arrowleft","","[""materials/imgs/D32.png"",""materials/imgs/D57.png""]","false","validation","","",""
"","","","","","html-keyboard-response","172","279722","0.0-15.0-2.1-0.3","aztmcf2wlb","","aztmcf2wlb","""2024-11-12T18:59:33.823Z""","null","+","null","","","","","","",""
"","","","","","image-keyboard-response","173","281266","0.0-15.0-2.1-1.3","aztmcf2wlb","","aztmcf2wlb","""2024-11-12T18:59:33.823Z""","1542","materials/imgs/D84.png","arrowleft","","[""materials/imgs/D106.png"",""materials/imgs/D37.png""]","false","validation","","",""
"","","","","","html-keyboard-response","174","281767","0.0-15.0-0.2-0.14","aztmcf2wlb","","aztmcf2wlb","""2024-11-12T18:59:33.823Z""","null","+","null","","","","","","",""
"","","","","","image-keyboard-response","175","282844","0.0-15.0-0.2-1.14","aztmcf2wlb","","aztmcf2wlb","""2024-11-12T18:59:33.823Z""","1076","materials/imgs/D95.png","arrowright","","[""materials/imgs/D66.png"",""materials/imgs/D3.png""]","false","random","","",""
"","","","","","html-keyboard-response","176","283346","0.0-15.0-0.2-0.15","aztmcf2wlb","","aztmcf2wlb","""2024-11-12T18:59:33.823Z""","null","+","null","","","","","","",""
"","","","","","image-keyboard-response","177","284499","0.0-15.0-0.2-1.15","aztmcf2wlb","","aztmcf2wlb","""2024-11-12T18:59:33.823Z""","1150","materials/imgs/D1.png","arrowleft","","[""materials/imgs/D25.png"",""materials/imgs/D80.png""]","false","random","","",""
"","","","","","html-keyboard-response","178","285001","0.0-15.0-0.2-0.16","aztmcf2wlb","","aztmcf2wlb","""2024-11-12T18:59:33.823Z""","null","+","null","","","","","","",""
"","","","","","image-keyboard-response","179","286043","0.0-15.0-0.2-1.16","aztmcf2wlb","","aztmcf2wlb","""2024-11-12T18:59:33.823Z""","1040","materials/imgs/D77.png","arrowright","","[""materials/imgs/D102.png"",""materials/imgs/D105.png""]","false","random","","",""
"","","","","","html-keyboard-response","180","286544","0.0-15.0-0.2-0.17","aztmcf2wlb","","aztmcf2wlb","""2024-11-12T18:59:33.823Z""","null","+","null","","","","","","",""
"","","","","","image-keyboard-response","181","287203","0.0-15.0-0.2-1.17","aztmcf2wlb","","aztmcf2wlb","""2024-11-12T18:59:33.823Z""","656","materials/imgs/D35.png","arrowleft","","[""materials/imgs/D22.png"",""materials/imgs/D75.png""]","false","random","","",""
"","","","","","html-keyboard-response","182","287704","0.0-15.0-0.2-0.18","aztmcf2wlb","","aztmcf2wlb","""2024-11-12T18:59:33.823Z""","null","+","null","","","","","","",""
"","","","","","image-keyboard-response","183","289270","0.0-15.0-0.2-1.18","aztmcf2wlb","","aztmcf2wlb","""2024-11-12T18:59:33.823Z""","1566","materials/imgs/D82.png","arrowleft","","[""materials/imgs/D25.png"",""materials/imgs/D104.png""]","false","random","","",""
"","","","","","html-keyboard-response","184","289772","0.0-15.0-0.2-0.19","aztmcf2wlb","","aztmcf2wlb","""2024-11-12T18:59:33.823Z""","null","+","null","","","","","","",""
"","","","","","image-keyboard-response","185","290733","0.0-15.0-0.2-1.19","aztmcf2wlb","","aztmcf2wlb","""2024-11-12T18:59:33.823Z""","959","materials/imgs/D79.png","arrowright","","[""materials/imgs/D52.png"",""materials/imgs/D36.png""]","false","random","","",""
"","","","","","html-keyboard-response","186","291234","0.0-15.0-0.2-0.20","aztmcf2wlb","","aztmcf2wlb","""2024-11-12T18:59:33.823Z""","null","+","null","","","","","","",""
"","","","","","image-keyboard-response","187","292127","0.0-15.0-0.2-1.20","aztmcf2wlb","","aztmcf2wlb","""2024-11-12T18:59:33.823Z""","891","materials/imgs/D81.png","arrowleft","","[""materials/imgs/D55.png"",""materials/imgs/D111.png""]","false","random","","",""
"","","","","","html-keyboard-response","188","292629","0.0-15.0-1.2-0.2","aztmcf2wlb","","aztmcf2wlb","""2024-11-12T18:59:33.823Z""","null","+","null","","","","","","",""
"","","","","","image-keyboard-response","189","293330","0.0-15.0-1.2-1.2","aztmcf2wlb","","aztmcf2wlb","""2024-11-12T18:59:33.823Z""","699","materials/imgs/D64.png","arrowleft","","[""materials/imgs/D64.png"",""materials/imgs/D53.png""]","","check","materials/imgs/D64.png","0","true"
"","","","","","html-keyboard-response","190","293831","0.0-15.0-2.2-0.4","aztmcf2wlb","","aztmcf2wlb","""2024-11-12T18:59:33.823Z""","null","+","null","","","","","","",""
"","","","","","image-keyboard-response","191","294967","0.0-15.0-2.2-1.4","aztmcf2wlb","","aztmcf2wlb","""2024-11-12T18:59:33.823Z""","1135","materials/imgs/D75.png","arrowright","","[""materials/imgs/D96.png"",""materials/imgs/D4.png""]","false","validation","","",""
"","","","","","html-keyboard-response","192","295469","0.0-15.0-2.2-0.5","aztmcf2wlb","","aztmcf2wlb","""2024-11-12T18:59:33.823Z""","null","+","null","","","","","","",""
"","","","","","image-keyboard-response","193","297884","0.0-15.0-2.2-1.5","aztmcf2wlb","","aztmcf2wlb","""2024-11-12T18:59:33.823Z""","2413","materials/imgs/D79.png","arrowleft","","[""materials/imgs/D51.png"",""materials/imgs/D64.png""]","false","validation","","",""
"","","","","","html-keyboard-response","194","298385","0.0-15.0-0.3-0.21","aztmcf2wlb","","aztmcf2wlb","""2024-11-12T18:59:33.823Z""","null","+","null","","","","","","",""
"","","","","","image-keyboard-response","195","299106","0.0-15.0-0.3-1.21","aztmcf2wlb","","aztmcf2wlb","""2024-11-12T18:59:33.823Z""","719","materials/imgs/D1.png","arrowleft","","[""materials/imgs/D8.png"",""materials/imgs/D76.png""]","false","random","","",""
"","","","","","html-keyboard-response","196","299608","0.0-15.0-0.3-0.22","aztmcf2wlb","","aztmcf2wlb","""2024-11-12T18:59:33.823Z""","null","+","null","","","","","","",""
"","","","","","image-keyboard-response","197","301272","0.0-15.0-0.3-1.22","aztmcf2wlb","","aztmcf2wlb","""2024-11-12T18:59:33.823Z""","1663","materials/imgs/D8.png","arrowleft","","[""materials/imgs/D81.png"",""materials/imgs/D4.png""]","false","random","","",""
"","","","","","html-keyboard-response","198","301774","0.0-15.0-0.3-0.23","aztmcf2wlb","","aztmcf2wlb","""2024-11-12T18:59:33.823Z""","null","+","null","","","","","","",""
"","","","","","image-keyboard-response","199","302390","0.0-15.0-0.3-1.23","aztmcf2wlb","","aztmcf2wlb","""2024-11-12T18:59:33.823Z""","614","materials/imgs/D95.png","arrowright","","[""materials/imgs/D104.png"",""materials/imgs/D83.png""]","false","random","","",""
"","","","","","html-keyboard-response","200","302892","0.0-15.0-0.3-0.24","aztmcf2wlb","","aztmcf2wlb","""2024-11-12T18:59:33.823Z""","null","+","null","","","","","","",""
"","","","","","image-keyboard-response","201","304948","0.0-15.0-0.3-1.24","aztmcf2wlb","","aztmcf2wlb","""2024-11-12T18:59:33.823Z""","2054","materials/imgs/D57.png","arrowright","","[""materials/imgs/D105.png"",""materials/imgs/D65.png""]","false","random","","",""
"","","","","","html-keyboard-response","202","305450","0.0-15.0-0.3-0.25","aztmcf2wlb","","aztmcf2wlb","""2024-11-12T18:59:33.823Z""","null","+","null","","","","","","",""
"","","","","","image-keyboard-response","203","307123","0.0-15.0-0.3-1.25","aztmcf2wlb","","aztmcf2wlb","""2024-11-12T18:59:33.823Z""","1670","materials/imgs/D68.png","arrowright","","[""materials/imgs/D14.png"",""materials/imgs/D1.png""]","false","random","","",""
"","","","","","html-keyboard-response","204","307624","0.0-15.0-0.3-0.26","aztmcf2wlb","","aztmcf2wlb","""2024-11-12T18:59:33.823Z""","null","+","null","","","","","","",""
"","","","","","image-keyboard-response","205","308803","0.0-15.0-0.3-1.26","aztmcf2wlb","","aztmcf2wlb","""2024-11-12T18:59:33.823Z""","1176","materials/imgs/D55.png","arrowright","","[""materials/imgs/D101.png"",""materials/imgs/D37.png""]","false","random","","",""
"","","","","","html-keyboard-response","206","309304","0.0-15.0-0.3-0.27","aztmcf2wlb","","aztmcf2wlb","""2024-11-12T18:59:33.823Z""","null","+","null","","","","","","",""
"","","","","","image-keyboard-response","207","310357","0.0-15.0-0.3-1.27","aztmcf2wlb","","aztmcf2wlb","""2024-11-12T18:59:33.823Z""","1051","materials/imgs/D6.png","arrowright","","[""materials/imgs/D26.png"",""materials/imgs/D76.png""]","false","random","","",""
"","","","","","html-keyboard-response","208","310858","0.0-15.0-1.3-0.3","aztmcf2wlb","","aztmcf2wlb","""2024-11-12T18:59:33.823Z""","null","+","null","","","","","","",""
"","","","","","image-keyboard-response","209","311478","0.0-15.0-1.3-1.3","aztmcf2wlb","","aztmcf2wlb","""2024-11-12T18:59:33.823Z""","618","materials/imgs/D76.png","arrowleft","","[""materials/imgs/D76.png"",""materials/imgs/D78.png""]","","check","materials/imgs/D76.png","0","true"
"","","","","","html-keyboard-response","210","311981","0.0-15.0-2.3-0.6","aztmcf2wlb","","aztmcf2wlb","""2024-11-12T18:59:33.823Z""","null","+","null","","","","","","",""
"","","","","","image-keyboard-response","211","314909","0.0-15.0-2.3-1.6","aztmcf2wlb","","aztmcf2wlb","""2024-11-12T18:59:33.823Z""","2926","materials/imgs/D95.png","arrowleft","","[""materials/imgs/D36.png"",""materials/imgs/D4.png""]","false","validation","","",""
"","","","","","html-keyboard-response","212","315410","0.0-15.0-2.3-0.7","aztmcf2wlb","","aztmcf2wlb","""2024-11-12T18:59:33.823Z""","null","+","null","","","","","","",""
"","","","","","image-keyboard-response","213","317103","0.0-15.0-2.3-1.7","aztmcf2wlb","","aztmcf2wlb","""2024-11-12T18:59:33.823Z""","1691","materials/imgs/D56.png","arrowleft","","[""materials/imgs/D25.png"",""materials/imgs/D105.png""]","false","validation","","",""
"","","","","","html-keyboard-response","214","317604","0.0-15.0-0.4-0.28","aztmcf2wlb","","aztmcf2wlb","""2024-11-12T18:59:33.823Z""","null","+","null","","","","","","",""
"","","","","","image-keyboard-response","215","318829","0.0-15.0-0.4-1.28","aztmcf2wlb","","aztmcf2wlb","""2024-11-12T18:59:33.823Z""","1222","materials/imgs/D35.png","arrowright","","[""materials/imgs/D49.png"",""materials/imgs/D22.png""]","false","random","","",""
"","","","","","html-keyboard-response","216","319330","0.0-15.0-0.4-0.29","aztmcf2wlb","","aztmcf2wlb","""2024-11-12T18:59:33.823Z""","null","+","null","","","","","","",""
"","","","","","image-keyboard-response","217","321675","0.0-15.0-0.4-1.29","aztmcf2wlb","","aztmcf2wlb","""2024-11-12T18:59:33.823Z""","2343","materials/imgs/D11.png","arrowleft","","[""materials/imgs/D16.png"",""materials/imgs/D4.png""]","false","random","","",""
"","","","","","html-keyboard-response","218","322177","0.0-15.0-0.4-0.30","aztmcf2wlb","","aztmcf2wlb","""2024-11-12T18:59:33.823Z""","null","+","null","","","","","","",""
"","","","","","image-keyboard-response","219","323518","0.0-15.0-0.4-1.30","aztmcf2wlb","","aztmcf2wlb","""2024-11-12T18:59:33.823Z""","1339","materials/imgs/D102.png","arrowright","","[""materials/imgs/D1.png"",""materials/imgs/D81.png""]","false","random","","",""
"","","","","","html-keyboard-response","220","324020","0.0-15.0-0.4-0.31","aztmcf2wlb","","aztmcf2wlb","""2024-11-12T18:59:33.823Z""","null","+","null","","","","","","",""
"","","","","","image-keyboard-response","221","325730","0.0-15.0-0.4-1.31","aztmcf2wlb","","aztmcf2wlb","""2024-11-12T18:59:33.823Z""","1707","materials/imgs/D94.png","arrowright","","[""materials/imgs/D24.png"",""materials/imgs/D3.png""]","false","random","","",""
"","","","","","html-keyboard-response","222","326232","0.0-15.0-0.4-0.32","aztmcf2wlb","","aztmcf2wlb","""2024-11-12T18:59:33.823Z""","null","+","null","","","","","","",""
"","","","","","image-keyboard-response","223","328538","0.0-15.0-0.4-1.32","aztmcf2wlb","","aztmcf2wlb","""2024-11-12T18:59:33.823Z""","2304","materials/imgs/D95.png","arrowright","","[""materials/imgs/D51.png"",""materials/imgs/D37.png""]","false","random","","",""
"","","","","","html-keyboard-response","224","329040","0.0-15.0-0.4-0.33","aztmcf2wlb","","aztmcf2wlb","""2024-11-12T18:59:33.823Z""","null","+","null","","","","","","",""
"","","","","","image-keyboard-response","225","330478","0.0-15.0-0.4-1.33","aztmcf2wlb","","aztmcf2wlb","""2024-11-12T18:59:33.823Z""","1435","materials/imgs/D57.png","arrowright","","[""materials/imgs/D95.png"",""materials/imgs/D53.png""]","false","random","","",""
"","","","","","html-keyboard-response","226","330980","0.0-15.0-0.4-0.34","aztmcf2wlb","","aztmcf2wlb","""2024-11-12T18:59:33.823Z""","null","+","null","","","","","","",""
"","","","","","image-keyboard-response","227","332398","0.0-15.0-0.4-1.34","aztmcf2wlb","","aztmcf2wlb","""2024-11-12T18:59:33.823Z""","1415","materials/imgs/D95.png","arrowleft","","[""materials/imgs/D55.png"",""materials/imgs/D46.png""]","false","random","","",""
"","","","","","html-keyboard-response","228","332899","0.0-15.0-1.4-0.4","aztmcf2wlb","","aztmcf2wlb","""2024-11-12T18:59:33.823Z""","null","+","null","","","","","","",""
"","","","","","image-keyboard-response","229","333559","0.0-15.0-1.4-1.4","aztmcf2wlb","","aztmcf2wlb","""2024-11-12T18:59:33.823Z""","658","materials/imgs/D8.png","arrowright","","[""materials/imgs/D18.png"",""materials/imgs/D8.png""]","","check","materials/imgs/D8.png","1","true"
"","","","","","html-keyboard-response","230","334061","0.0-15.0-2.4-0.8","aztmcf2wlb","","aztmcf2wlb","""2024-11-12T18:59:33.823Z""","null","+","null","","","","","","",""
"","","","","","image-keyboard-response","231","336109","0.0-15.0-2.4-1.8","aztmcf2wlb","","aztmcf2wlb","""2024-11-12T18:59:33.823Z""","2046","materials/imgs/D101.png","arrowleft","","[""materials/imgs/D76.png"",""materials/imgs/D47.png""]","false","validation","","",""
"","","","","","html-keyboard-response","232","336610","0.0-15.0-2.4-0.9","aztmcf2wlb","","aztmcf2wlb","""2024-11-12T18:59:33.823Z""","null","+","null","","","","","","",""
"","","","","","image-keyboard-response","233","337928","0.0-15.0-2.4-1.9","aztmcf2wlb","","aztmcf2wlb","""2024-11-12T18:59:33.823Z""","1315","materials/imgs/D1.png","arrowright","","[""materials/imgs/D57.png"",""materials/imgs/D76.png""]","false","validation","","",""
"","","","","","html-button-response","234","342730","0.0-16.0","aztmcf2wlb","","aztmcf2wlb","""2024-11-12T18:59:33.823Z""","4801","You have completed 50% of the trials. Please click 'Continue' when you are ready proceed.","0","","","","","","",""
"","","","","","html-keyboard-response","235","343231","0.0-17.0-0.0-0.0","aztmcf2wlb","","aztmcf2wlb","""2024-11-12T18:59:33.823Z""","null","+","null","","","","","","",""
"","","","","","image-keyboard-response","236","349885","0.0-17.0-0.0-1.0","aztmcf2wlb","","aztmcf2wlb","""2024-11-12T18:59:33.823Z""","6651","materials/imgs/D36.png","arrowleft","","[""materials/imgs/D83.png"",""materials/imgs/D18.png""]","false","random","","",""
"","","","","","html-keyboard-response","237","350387","0.0-17.0-0.0-0.1","aztmcf2wlb","","aztmcf2wlb","""2024-11-12T18:59:33.823Z""","null","+","null","","","","","","",""
"","","","","","image-keyboard-response","238","355239","0.0-17.0-0.0-1.1","aztmcf2wlb","","aztmcf2wlb","""2024-11-12T18:59:33.823Z""","4850","materials/imgs/D48.png","arrowright","","[""materials/imgs/D49.png"",""materials/imgs/D37.png""]","false","random","","",""
"","","","","","html-keyboard-response","239","355740","0.0-17.0-0.0-0.2","aztmcf2wlb","","aztmcf2wlb","""2024-11-12T18:59:33.823Z""","null","+","null","","","","","","",""
"","","","","","image-keyboard-response","240","356860","0.0-17.0-0.0-1.2","aztmcf2wlb","","aztmcf2wlb","""2024-11-12T18:59:33.823Z""","1118","materials/imgs/D25.png","arrowright","","[""materials/imgs/D76.png"",""materials/imgs/D101.png""]","false","random","","",""
"","","","","","html-keyboard-response","241","357361","0.0-17.0-0.0-0.3","aztmcf2wlb","","aztmcf2wlb","""2024-11-12T18:59:33.823Z""","null","+","null","","","","","","",""
"","","","","","image-keyboard-response","242","359859","0.0-17.0-0.0-1.3","aztmcf2wlb","","aztmcf2wlb","""2024-11-12T18:59:33.823Z""","2496","materials/imgs/D83.png","arrowright","","[""materials/imgs/D34.png"",""materials/imgs/D20.png""]","false","random","","",""
"","","","","","html-keyboard-response","243","360361","0.0-17.0-0.0-0.4","aztmcf2wlb","","aztmcf2wlb","""2024-11-12T18:59:33.823Z""","null","+","null","","","","","","",""
"","","","","","image-keyboard-response","244","364333","0.0-17.0-0.0-1.4","aztmcf2wlb","","aztmcf2wlb","""2024-11-12T18:59:33.823Z""","3970","materials/imgs/D95.png","arrowleft","","[""materials/imgs/D46.png"",""materials/imgs/D37.png""]","false","random","","",""
"","","","","","html-keyboard-response","245","364835","0.0-17.0-0.0-0.5","aztmcf2wlb","","aztmcf2wlb","""2024-11-12T18:59:33.823Z""","null","+","null","","","","","","",""
"","","","","","image-keyboard-response","246","385265","0.0-17.0-0.0-1.5","aztmcf2wlb","","aztmcf2wlb","""2024-11-12T18:59:33.823Z""","20428","materials/imgs/D46.png","arrowright","","[""materials/imgs/D77.png"",""materials/imgs/D8.png""]","false","random","","",""
"","","","","","html-keyboard-response","247","385767","0.0-17.0-0.0-0.6","aztmcf2wlb","","aztmcf2wlb","""2024-11-12T18:59:33.823Z""","null","+","null","","","","","","",""
"","","","","","image-keyboard-response","248","391791","0.0-17.0-0.0-1.6","aztmcf2wlb","","aztmcf2wlb","""2024-11-12T18:59:33.823Z""","6022","materials/imgs/D34.png","arrowleft","","[""materials/imgs/D56.png"",""materials/imgs/D1.png""]","false","random","","",""
"","","","","","html-keyboard-response","249","392292","0.0-17.0-1.0-0.0","aztmcf2wlb","","aztmcf2wlb","""2024-11-12T18:59:33.823Z""","null","+","null","","","","","","",""
"","","","","","image-keyboard-response","250","393788","0.0-17.0-1.0-1.0","aztmcf2wlb","","aztmcf2wlb","""2024-11-12T18:59:33.823Z""","1493","materials/imgs/D64.png","arrowleft","","[""materials/imgs/D64.png"",""materials/imgs/D53.png""]","","check","materials/imgs/D64.png","0","true"
"","","","","","html-keyboard-response","251","394289","0.0-17.0-2.0-0.0","aztmcf2wlb","","aztmcf2wlb","""2024-11-12T18:59:33.823Z""","null","+","null","","","","","","",""
"","","","","","image-keyboard-response","252","395817","0.0-17.0-2.0-1.0","aztmcf2wlb","","aztmcf2wlb","""2024-11-12T18:59:33.823Z""","1526","materials/imgs/D3.png","arrowleft","","[""materials/imgs/D79.png"",""materials/imgs/D48.png""]","false","validation","","",""
"","","","","","html-keyboard-response","253","396319","0.0-17.0-2.0-0.1","aztmcf2wlb","","aztmcf2wlb","""2024-11-12T18:59:33.823Z""","null","+","null","","","","","","",""
"","","","","","image-keyboard-response","254","422360","0.0-17.0-2.0-1.1","aztmcf2wlb","","aztmcf2wlb","""2024-11-12T18:59:33.823Z""","26042","materials/imgs/D26.png","arrowleft","","[""materials/imgs/D36.png"",""materials/imgs/D92.png""]","false","validation","","",""
"","","","","","html-keyboard-response","255","422862","0.0-17.0-0.1-0.7","aztmcf2wlb","","aztmcf2wlb","""2024-11-12T18:59:33.823Z""","null","+","null","","","","","","",""
"","","","","","image-keyboard-response","256","424727","0.0-17.0-0.1-1.7","aztmcf2wlb","","aztmcf2wlb","""2024-11-12T18:59:33.823Z""","1862","materials/imgs/D101.png","arrowleft","","[""materials/imgs/D83.png"",""materials/imgs/D87.png""]","false","random","","",""
"","","","","","html-keyboard-response","257","425228","0.0-17.0-0.1-0.8","aztmcf2wlb","","aztmcf2wlb","""2024-11-12T18:59:33.823Z""","null","+","null","","","","","","",""
"","","","","","image-keyboard-response","258","428476","0.0-17.0-0.1-1.8","aztmcf2wlb","","aztmcf2wlb","""2024-11-12T18:59:33.823Z""","3246","materials/imgs/D65.png","arrowright","","[""materials/imgs/D3.png"",""materials/imgs/D77.png""]","false","random","","",""
"","","","","","html-keyboard-response","259","428977","0.0-17.0-0.1-0.9","aztmcf2wlb","","aztmcf2wlb","""2024-11-12T18:59:33.823Z""","null","+","null","","","","","","",""
"","","","","","image-keyboard-response","260","435089","0.0-17.0-0.1-1.9","aztmcf2wlb","","aztmcf2wlb","""2024-11-12T18:59:33.823Z""","6111","materials/imgs/D21.png","arrowleft","","[""materials/imgs/D78.png"",""materials/imgs/D81.png""]","false","random","","",""
"","","","","","html-keyboard-response","261","435590","0.0-17.0-0.1-0.10","aztmcf2wlb","","aztmcf2wlb","""2024-11-12T18:59:33.823Z""","null","+","null","","","","","","",""
"","","","","","image-keyboard-response","262","437667","0.0-17.0-0.1-1.10","aztmcf2wlb","","aztmcf2wlb","""2024-11-12T18:59:33.823Z""","2075","materials/imgs/D19.png","arrowright","","[""materials/imgs/D75.png"",""materials/imgs/D79.png""]","false","random","","",""
"","","","","","html-keyboard-response","263","438168","0.0-17.0-0.1-0.11","aztmcf2wlb","","aztmcf2wlb","""2024-11-12T18:59:33.823Z""","null","+","null","","","","","","",""
"","","","","","image-keyboard-response","264","440065","0.0-17.0-0.1-1.11","aztmcf2wlb","","aztmcf2wlb","""2024-11-12T18:59:33.823Z""","1895","materials/imgs/D74.png","arrowleft","","[""materials/imgs/D22.png"",""materials/imgs/D78.png""]","false","random","","",""
"","","","","","html-keyboard-response","265","440567","0.0-17.0-0.1-0.12","aztmcf2wlb","","aztmcf2wlb","""2024-11-12T18:59:33.823Z""","null","+","null","","","","","","",""
"","","","","","image-keyboard-response","266","441676","0.0-17.0-0.1-1.12","aztmcf2wlb","","aztmcf2wlb","""2024-11-12T18:59:33.823Z""","1107","materials/imgs/D52.png","arrowright","","[""materials/imgs/D111.png"",""materials/imgs/D20.png""]","false","random","","",""
"","","","","","html-keyboard-response","267","442177","0.0-17.0-0.1-0.13","aztmcf2wlb","","aztmcf2wlb","""2024-11-12T18:59:33.823Z""","null","+","null","","","","","","",""
"","","","","","image-keyboard-response","268","443666","0.0-17.0-0.1-1.13","aztmcf2wlb","","aztmcf2wlb","""2024-11-12T18:59:33.823Z""","1487","materials/imgs/D102.png","arrowleft","","[""materials/imgs/D29.png"",""materials/imgs/D105.png""]","false","random","","",""
"","","","","","html-keyboard-response","269","444168","0.0-17.0-1.1-0.1","aztmcf2wlb","","aztmcf2wlb","""2024-11-12T18:59:33.823Z""","null","+","null","","","","","","",""
"","","","","","image-keyboard-response","270","447796","0.0-17.0-1.1-1.1","aztmcf2wlb","","aztmcf2wlb","""2024-11-12T18:59:33.823Z""","3627","materials/imgs/D101.png","arrowright","","[""materials/imgs/D106.png"",""materials/imgs/D101.png""]","","check","materials/imgs/D101.png","1","true"
"","","","","","html-keyboard-response","271","448298","0.0-17.0-2.1-0.2","aztmcf2wlb","","aztmcf2wlb","""2024-11-12T18:59:33.823Z""","null","+","null","","","","","","",""
"","","","","","image-keyboard-response","272","454723","0.0-17.0-2.1-1.2","aztmcf2wlb","","aztmcf2wlb","""2024-11-12T18:59:33.823Z""","6424","materials/imgs/D1.png","arrowleft","","[""materials/imgs/D57.png"",""materials/imgs/D76.png""]","false","validation","","",""
"","","","","","html-keyboard-response","273","455225","0.0-17.0-2.1-0.3","aztmcf2wlb","","aztmcf2wlb","""2024-11-12T18:59:33.823Z""","null","+","null","","","","","","",""
"","","","","","image-keyboard-response","274","457975","0.0-17.0-2.1-1.3","aztmcf2wlb","","aztmcf2wlb","""2024-11-12T18:59:33.823Z""","2748","materials/imgs/D37.png","arrowright","","[""materials/imgs/D84.png"",""materials/imgs/D111.png""]","false","validation","","",""
"","","","","","html-keyboard-response","275","458477","0.0-17.0-0.2-0.14","aztmcf2wlb","","aztmcf2wlb","""2024-11-12T18:59:33.823Z""","null","+","null","","","","","","",""
"","","","","","image-keyboard-response","276","464423","0.0-17.0-0.2-1.14","aztmcf2wlb","","aztmcf2wlb","""2024-11-12T18:59:33.823Z""","5944","materials/imgs/D11.png","arrowright","","[""materials/imgs/D22.png"",""materials/imgs/D79.png""]","false","random","","",""
"","","","","","html-keyboard-response","277","464926","0.0-17.0-0.2-0.15","aztmcf2wlb","","aztmcf2wlb","""2024-11-12T18:59:33.823Z""","null","+","null","","","","","","",""
"","","","","","image-keyboard-response","278","467477","0.0-17.0-0.2-1.15","aztmcf2wlb","","aztmcf2wlb","""2024-11-12T18:59:33.823Z""","2549","materials/imgs/D21.png","arrowright","","[""materials/imgs/D57.png"",""materials/imgs/D11.png""]","false","random","","",""
"","","","","","html-keyboard-response","279","467978","0.0-17.0-0.2-0.16","aztmcf2wlb","","aztmcf2wlb","""2024-11-12T18:59:33.823Z""","null","+","null","","","","","","",""
"","","","","","image-keyboard-response","280","471503","0.0-17.0-0.2-1.16","aztmcf2wlb","","aztmcf2wlb","""2024-11-12T18:59:33.823Z""","3523","materials/imgs/D82.png","arrowleft","","[""materials/imgs/D105.png"",""materials/imgs/D29.png""]","false","random","","",""
"","","","","","html-keyboard-response","281","472004","0.0-17.0-0.2-0.17","aztmcf2wlb","","aztmcf2wlb","""2024-11-12T18:59:33.823Z""","null","+","null","","","","","","",""
"","","","","","image-keyboard-response","282","495563","0.0-17.0-0.2-1.17","aztmcf2wlb","","aztmcf2wlb","""2024-11-12T18:59:33.823Z""","23555","materials/imgs/D103.png","arrowleft","","[""materials/imgs/D104.png"",""materials/imgs/D17.png""]","false","random","","",""
"","","","","","html-keyboard-response","283","496064","0.0-17.0-0.2-0.18","aztmcf2wlb","","aztmcf2wlb","""2024-11-12T18:59:33.823Z""","null","+","null","","","","","","",""
"","","","","","image-keyboard-response","284","498546","0.0-17.0-0.2-1.18","aztmcf2wlb","","aztmcf2wlb","""2024-11-12T18:59:33.823Z""","2479","materials/imgs/D9.png","arrowright","","[""materials/imgs/D101.png"",""materials/imgs/D65.png""]","false","random","","",""
"","","","","","html-keyboard-response","285","499047","0.0-17.0-0.2-0.19","aztmcf2wlb","","aztmcf2wlb","""2024-11-12T18:59:33.823Z""","null","+","null","","","","","","",""
"","","","","","image-keyboard-response","286","507867","0.0-17.0-0.2-1.19","aztmcf2wlb","","aztmcf2wlb","""2024-11-12T18:59:33.823Z""","8818","materials/imgs/D105.png","arrowleft","","[""materials/imgs/D21.png"",""materials/imgs/D49.png""]","false","random","","",""
"","","","","","html-keyboard-response","287","508369","0.0-17.0-0.2-0.20","aztmcf2wlb","","aztmcf2wlb","""2024-11-12T18:59:33.823Z""","null","+","null","","","","","","",""
"","","","","","image-keyboard-response","288","510953","0.0-17.0-0.2-1.20","aztmcf2wlb","","aztmcf2wlb","""2024-11-12T18:59:33.823Z""","2581","materials/imgs/D64.png","arrowleft","","[""materials/imgs/D111.png"",""materials/imgs/D22.png""]","false","random","","",""
"","","","","","html-keyboard-response","289","511454","0.0-17.0-1.2-0.2","aztmcf2wlb","","aztmcf2wlb","""2024-11-12T18:59:33.823Z""","null","+","null","","","","","","",""
"","","","","","image-keyboard-response","290","512137","0.0-17.0-1.2-1.2","aztmcf2wlb","","aztmcf2wlb","""2024-11-12T18:59:33.823Z""","681","materials/imgs/D101.png","arrowright","","[""materials/imgs/D106.png"",""materials/imgs/D101.png""]","","check","materials/imgs/D101.png","1","true"
"","","","","","html-keyboard-response","291","512639","0.0-17.0-2.2-0.4","aztmcf2wlb","","aztmcf2wlb","""2024-11-12T18:59:33.823Z""","null","+","null","","","","","","",""
"","","","","","image-keyboard-response","292","514491","0.0-17.0-2.2-1.4","aztmcf2wlb","","aztmcf2wlb","""2024-11-12T18:59:33.823Z""","1851","materials/imgs/D68.png","arrowright","","[""materials/imgs/D96.png"",""materials/imgs/D48.png""]","false","validation","","",""
"","","","","","html-keyboard-response","293","514992","0.0-17.0-2.2-0.5","aztmcf2wlb","","aztmcf2wlb","""2024-11-12T18:59:33.823Z""","null","+","null","","","","","","",""
"","","","","","image-keyboard-response","294","517695","0.0-17.0-2.2-1.5","aztmcf2wlb","","aztmcf2wlb","""2024-11-12T18:59:33.823Z""","2701","materials/imgs/D66.png","arrowleft","","[""materials/imgs/D85.png"",""materials/imgs/D25.png""]","false","validation","","",""
"","","","","","html-keyboard-response","295","518197","0.0-17.0-0.3-0.21","aztmcf2wlb","","aztmcf2wlb","""2024-11-12T18:59:33.823Z""","null","+","null","","","","","","",""
"","","","","","image-keyboard-response","296","519196","0.0-17.0-0.3-1.21","aztmcf2wlb","","aztmcf2wlb","""2024-11-12T18:59:33.823Z""","997","materials/imgs/D24.png","arrowright","","[""materials/imgs/D18.png"",""materials/imgs/D79.png""]","false","random","","",""
"","","","","","html-keyboard-response","297","519697","0.0-17.0-0.3-0.22","aztmcf2wlb","","aztmcf2wlb","""2024-11-12T18:59:33.823Z""","null","+","null","","","","","","",""
"","","","","","image-keyboard-response","298","521028","0.0-17.0-0.3-1.22","aztmcf2wlb","","aztmcf2wlb","""2024-11-12T18:59:33.823Z""","1329","materials/imgs/D32.png","arrowleft","","[""materials/imgs/D85.png"",""materials/imgs/D36.png""]","false","random","","",""
"","","","","","html-keyboard-response","299","521530","0.0-17.0-0.3-0.23","aztmcf2wlb","","aztmcf2wlb","""2024-11-12T18:59:33.823Z""","null","+","null","","","","","","",""
"","","","","","image-keyboard-response","300","522472","0.0-17.0-0.3-1.23","aztmcf2wlb","","aztmcf2wlb","""2024-11-12T18:59:33.823Z""","940","materials/imgs/D51.png","arrowleft","","[""materials/imgs/D78.png"",""materials/imgs/D56.png""]","false","random","","",""
"","","","","","html-keyboard-response","301","522973","0.0-17.0-0.3-0.24","aztmcf2wlb","","aztmcf2wlb","""2024-11-12T18:59:33.823Z""","null","+","null","","","","","","",""
"","","","","","image-keyboard-response","302","530336","0.0-17.0-0.3-1.24","aztmcf2wlb","","aztmcf2wlb","""2024-11-12T18:59:33.823Z""","7361","materials/imgs/D51.png","arrowleft","","[""materials/imgs/D8.png"",""materials/imgs/D48.png""]","false","random","","",""
"","","","","","html-keyboard-response","303","530837","0.0-17.0-0.3-0.25","aztmcf2wlb","","aztmcf2wlb","""2024-11-12T18:59:33.823Z""","null","+","null","","","","","","",""
"","","","","","image-keyboard-response","304","546621","0.0-17.0-0.3-1.25","aztmcf2wlb","","aztmcf2wlb","""2024-11-12T18:59:33.823Z""","15781","materials/imgs/D37.png","arrowleft","","[""materials/imgs/D74.png"",""materials/imgs/D101.png""]","false","random","","",""
"","","","","","html-keyboard-response","305","547122","0.0-17.0-0.3-0.26","aztmcf2wlb","","aztmcf2wlb","""2024-11-12T18:59:33.823Z""","null","+","null","","","","","","",""
"","","","","","image-keyboard-response","306","548605","0.0-17.0-0.3-1.26","aztmcf2wlb","","aztmcf2wlb","""2024-11-12T18:59:33.823Z""","1480","materials/imgs/D94.png","arrowleft","","[""materials/imgs/D1.png"",""materials/imgs/D77.png""]","false","random","","",""
"","","","","","html-keyboard-response","307","549106","0.0-17.0-0.3-0.27","aztmcf2wlb","","aztmcf2wlb","""2024-11-12T18:59:33.823Z""","null","+","null","","","","","","",""
"","","","","","image-keyboard-response","308","551678","0.0-17.0-0.3-1.27","aztmcf2wlb","","aztmcf2wlb","""2024-11-12T18:59:33.823Z""","2570","materials/imgs/D18.png","arrowleft","","[""materials/imgs/D53.png"",""materials/imgs/D106.png""]","false","random","","",""
"","","","","","html-keyboard-response","309","552180","0.0-17.0-1.3-0.3","aztmcf2wlb","","aztmcf2wlb","""2024-11-12T18:59:33.823Z""","null","+","null","","","","","","",""
"","","","","","image-keyboard-response","310","553515","0.0-17.0-1.3-1.3","aztmcf2wlb","","aztmcf2wlb","""2024-11-12T18:59:33.823Z""","1333","materials/imgs/D46.png","arrowleft","","[""materials/imgs/D46.png"",""materials/imgs/D26.png""]","","check","materials/imgs/D46.png","0","true"
"","","","","","html-keyboard-response","311","554017","0.0-17.0-2.3-0.6","aztmcf2wlb","","aztmcf2wlb","""2024-11-12T18:59:33.823Z""","null","+","null","","","","","","",""
"","","","","","image-keyboard-response","312","556016","0.0-17.0-2.3-1.6","aztmcf2wlb","","aztmcf2wlb","""2024-11-12T18:59:33.823Z""","1997","materials/imgs/D103.png","arrowleft","","[""materials/imgs/D76.png"",""materials/imgs/D106.png""]","false","validation","","",""
"","","","","","html-keyboard-response","313","556518","0.0-17.0-2.3-0.7","aztmcf2wlb","","aztmcf2wlb","""2024-11-12T18:59:33.823Z""","null","+","null","","","","","","",""
"","","","","","image-keyboard-response","314","558130","0.0-17.0-2.3-1.7","aztmcf2wlb","","aztmcf2wlb","""2024-11-12T18:59:33.823Z""","1610","materials/imgs/D92.png","arrowright","","[""materials/imgs/D56.png"",""materials/imgs/D77.png""]","false","validation","","",""
"","","","","","html-keyboard-response","315","558631","0.0-17.0-0.4-0.28","aztmcf2wlb","","aztmcf2wlb","""2024-11-12T18:59:33.823Z""","null","+","null","","","","","","",""
"","","","","","image-keyboard-response","316","559520","0.0-17.0-0.4-1.28","aztmcf2wlb","","aztmcf2wlb","""2024-11-12T18:59:33.823Z""","887","materials/imgs/D3.png","arrowleft","","[""materials/imgs/D35.png"",""materials/imgs/D77.png""]","false","random","","",""
"","","","","","html-keyboard-response","317","560022","0.0-17.0-0.4-0.29","aztmcf2wlb","","aztmcf2wlb","""2024-11-12T18:59:33.823Z""","null","+","null","","","","","","",""
"","","","","","image-keyboard-response","318","566559","0.0-17.0-0.4-1.29","aztmcf2wlb","","aztmcf2wlb","""2024-11-12T18:59:33.823Z""","6535","materials/imgs/D52.png","arrowleft","","[""materials/imgs/D6.png"",""materials/imgs/D32.png""]","false","random","","",""
"","","","","","html-keyboard-response","319","567061","0.0-17.0-0.4-0.30","aztmcf2wlb","","aztmcf2wlb","""2024-11-12T18:59:33.823Z""","null","+","null","","","","","","",""
"","","","","","image-keyboard-response","320","567877","0.0-17.0-0.4-1.30","aztmcf2wlb","","aztmcf2wlb","""2024-11-12T18:59:33.823Z""","814","materials/imgs/D25.png","arrowright","","[""materials/imgs/D87.png"",""materials/imgs/D1.png""]","false","random","","",""
"","","","","","html-keyboard-response","321","568379","0.0-17.0-0.4-0.31","aztmcf2wlb","","aztmcf2wlb","""2024-11-12T18:59:33.823Z""","null","+","null","","","","","","",""
"","","","","","image-keyboard-response","322","571165","0.0-17.0-0.4-1.31","aztmcf2wlb","","aztmcf2wlb","""2024-11-12T18:59:33.823Z""","2784","materials/imgs/D49.png","arrowleft","","[""materials/imgs/D111.png"",""materials/imgs/D8.png""]","false","random","","",""
"","","","","","html-keyboard-response","323","571667","0.0-17.0-0.4-0.32","aztmcf2wlb","","aztmcf2wlb","""2024-11-12T18:59:33.823Z""","null","+","null","","","","","","",""
"","","","","","image-keyboard-response","324","573760","0.0-17.0-0.4-1.32","aztmcf2wlb","","aztmcf2wlb","""2024-11-12T18:59:33.823Z""","2092","materials/imgs/D81.png","arrowleft","","[""materials/imgs/D35.png"",""materials/imgs/D65.png""]","false","random","","",""
"","","","","","html-keyboard-response","325","574261","0.0-17.0-0.4-0.33","aztmcf2wlb","","aztmcf2wlb","""2024-11-12T18:59:33.823Z""","null","+","null","","","","","","",""
"","","","","","image-keyboard-response","326","575665","0.0-17.0-0.4-1.33","aztmcf2wlb","","aztmcf2wlb","""2024-11-12T18:59:33.823Z""","1401","materials/imgs/D74.png","arrowright","","[""materials/imgs/D1.png"",""materials/imgs/D17.png""]","false","random","","",""
"","","","","","html-keyboard-response","327","576166","0.0-17.0-0.4-0.34","aztmcf2wlb","","aztmcf2wlb","""2024-11-12T18:59:33.823Z""","null","+","null","","","","","","",""
"","","","","","image-keyboard-response","328","578397","0.0-17.0-0.4-1.34","aztmcf2wlb","","aztmcf2wlb","""2024-11-12T18:59:33.823Z""","2228","materials/imgs/D49.png","arrowleft","","[""materials/imgs/D87.png"",""materials/imgs/D66.png""]","false","random","","",""
"","","","","","html-keyboard-response","329","578899","0.0-17.0-1.4-0.4","aztmcf2wlb","","aztmcf2wlb","""2024-11-12T18:59:33.823Z""","null","+","null","","","","","","",""
"","","","","","image-keyboard-response","330","579556","0.0-17.0-1.4-1.4","aztmcf2wlb","","aztmcf2wlb","""2024-11-12T18:59:33.823Z""","655","materials/imgs/D46.png","arrowleft","","[""materials/imgs/D46.png"",""materials/imgs/D26.png""]","","check","materials/imgs/D46.png","0","true"
"","","","","","html-keyboard-response","331","580058","0.0-17.0-2.4-0.8","aztmcf2wlb","","aztmcf2wlb","""2024-11-12T18:59:33.823Z""","null","+","null","","","","","","",""
"","","","","","image-keyboard-response","332","590272","0.0-17.0-2.4-1.8","aztmcf2wlb","","aztmcf2wlb","""2024-11-12T18:59:33.823Z""","10211","materials/imgs/D106.png","arrowright","","[""materials/imgs/D57.png"",""materials/imgs/D18.png""]","false","validation","","",""
"","","","","","html-keyboard-response","333","590773","0.0-17.0-2.4-0.9","aztmcf2wlb","","aztmcf2wlb","""2024-11-12T18:59:33.823Z""","null","+","null","","","","","","",""
"","","","","","image-keyboard-response","334","592243","0.0-17.0-2.4-1.9","aztmcf2wlb","","aztmcf2wlb","""2024-11-12T18:59:33.823Z""","1468","materials/imgs/D75.png","arrowright","","[""materials/imgs/D96.png"",""materials/imgs/D4.png""]","false","validation","","",""
"","","","","","html-button-response","335","594382","0.0-18.0","aztmcf2wlb","","aztmcf2wlb","""2024-11-12T18:59:33.823Z""","2137","You have completed 75% of the trials. Please click 'Continue' when you are ready proceed.","0","","","","","","",""
"","","","","","html-keyboard-response","336","594883","0.0-19.0-0.0-0.0","aztmcf2wlb","","aztmcf2wlb","""2024-11-12T18:59:33.823Z""","null","+","null","","","","","","",""
"","","","","","image-keyboard-response","337","605646","0.0-19.0-0.0-1.0","aztmcf2wlb","","aztmcf2wlb","""2024-11-12T18:59:33.823Z""","10760","materials/imgs/D83.png","arrowleft","","[""materials/imgs/D65.png"",""materials/imgs/D80.png""]","false","random","","",""
"","","","","","html-keyboard-response","338","606147","0.0-19.0-0.0-0.1","aztmcf2wlb","","aztmcf2wlb","""2024-11-12T18:59:33.823Z""","null","+","null","","","","","","",""
"","","","","","image-keyboard-response","339","608932","0.0-19.0-0.0-1.1","aztmcf2wlb","","aztmcf2wlb","""2024-11-12T18:59:33.823Z""","2782","materials/imgs/D53.png","arrowright","","[""materials/imgs/D74.png"",""materials/imgs/D95.png""]","false","random","","",""
"","","","","","html-keyboard-response","340","609433","0.0-19.0-0.0-0.2","aztmcf2wlb","","aztmcf2wlb","""2024-11-12T18:59:33.823Z""","null","+","null","","","","","","",""
"","","","","","image-keyboard-response","341","611063","0.0-19.0-0.0-1.2","aztmcf2wlb","","aztmcf2wlb","""2024-11-12T18:59:33.823Z""","1629","materials/imgs/D65.png","arrowleft","","[""materials/imgs/D84.png"",""materials/imgs/D57.png""]","false","random","","",""
"","","","","","html-keyboard-response","342","611565","0.0-19.0-0.0-0.3","aztmcf2wlb","","aztmcf2wlb","""2024-11-12T18:59:33.823Z""","null","+","null","","","","","","",""
"","","","","","image-keyboard-response","343","613013","0.0-19.0-0.0-1.3","aztmcf2wlb","","aztmcf2wlb","""2024-11-12T18:59:33.823Z""","1446","materials/imgs/D48.png","arrowright","","[""materials/imgs/D104.png"",""materials/imgs/D52.png""]","false","random","","",""
"","","","","","html-keyboard-response","344","613515","0.0-19.0-0.0-0.4","aztmcf2wlb","","aztmcf2wlb","""2024-11-12T18:59:33.823Z""","null","+","null","","","","","","",""
"","","","","","image-keyboard-response","345","627454","0.0-19.0-0.0-1.4","aztmcf2wlb","","aztmcf2wlb","""2024-11-12T18:59:33.823Z""","13937","materials/imgs/D9.png","arrowleft","","[""materials/imgs/D96.png"",""materials/imgs/D48.png""]","false","random","","",""
"","","","","","html-keyboard-response","346","627955","0.0-19.0-0.0-0.5","aztmcf2wlb","","aztmcf2wlb","""2024-11-12T18:59:33.823Z""","null","+","null","","","","","","",""
"","","","","","image-keyboard-response","347","632338","0.0-19.0-0.0-1.5","aztmcf2wlb","","aztmcf2wlb","""2024-11-12T18:59:33.823Z""","4381","materials/imgs/D6.png","arrowright","","[""materials/imgs/D4.png"",""materials/imgs/D106.png""]","false","random","","",""
"","","","","","html-keyboard-response","348","632840","0.0-19.0-0.0-0.6","aztmcf2wlb","","aztmcf2wlb","""2024-11-12T18:59:33.823Z""","null","+","null","","","","","","",""
"","","","","","image-keyboard-response","349","633675","0.0-19.0-0.0-1.6","aztmcf2wlb","","aztmcf2wlb","""2024-11-12T18:59:33.823Z""","833","materials/imgs/D84.png","arrowleft","","[""materials/imgs/D29.png"",""materials/imgs/D77.png""]","false","random","","",""
"","","","","","html-keyboard-response","350","634176","0.0-19.0-1.0-0.0","aztmcf2wlb","","aztmcf2wlb","""2024-11-12T18:59:33.823Z""","null","+","null","","","","","","",""
"","","","","","image-keyboard-response","351","637428","0.0-19.0-1.0-1.0","aztmcf2wlb","","aztmcf2wlb","""2024-11-12T18:59:33.823Z""","3250","materials/imgs/D8.png","arrowright","","[""materials/imgs/D18.png"",""materials/imgs/D8.png""]","","check","materials/imgs/D8.png","1","true"
"","","","","","html-keyboard-response","352","637930","0.0-19.0-2.0-0.0","aztmcf2wlb","","aztmcf2wlb","""2024-11-12T18:59:33.823Z""","null","+","null","","","","","","",""
"","","","","","image-keyboard-response","353","662463","0.0-19.0-2.0-1.0","aztmcf2wlb","","aztmcf2wlb","""2024-11-12T18:59:33.823Z""","24531","materials/imgs/D96.png","arrowright","","[""materials/imgs/D46.png"",""materials/imgs/D18.png""]","false","validation","","",""
"","","","","","html-keyboard-response","354","662964","0.0-19.0-2.0-0.1","aztmcf2wlb","","aztmcf2wlb","""2024-11-12T18:59:33.823Z""","null","+","null","","","","","","",""
"","","","","","image-keyboard-response","355","669962","0.0-19.0-2.0-1.1","aztmcf2wlb","","aztmcf2wlb","""2024-11-12T18:59:33.823Z""","6995","materials/imgs/D102.png","arrowright","","[""materials/imgs/D32.png"",""materials/imgs/D111.png""]","false","validation","","",""
"","","","","","html-keyboard-response","356","670463","0.0-19.0-0.1-0.7","aztmcf2wlb","","aztmcf2wlb","""2024-11-12T18:59:33.823Z""","null","+","null","","","","","","",""
"","","","","","image-keyboard-response","357","693629","0.0-19.0-0.1-1.7","aztmcf2wlb","","aztmcf2wlb","""2024-11-12T18:59:33.823Z""","23163","materials/imgs/D34.png","arrowright","","[""materials/imgs/D65.png"",""materials/imgs/D103.png""]","false","random","","",""
"","","","","","html-keyboard-response","358","694131","0.0-19.0-0.1-0.8","aztmcf2wlb","","aztmcf2wlb","""2024-11-12T18:59:33.823Z""","null","+","null","","","","","","",""
"","","","","","image-keyboard-response","359","697526","0.0-19.0-0.1-1.8","aztmcf2wlb","","aztmcf2wlb","""2024-11-12T18:59:33.823Z""","3393","materials/imgs/D11.png","arrowright","","[""materials/imgs/D4.png"",""materials/imgs/D51.png""]","false","random","","",""
"","","","","","html-keyboard-response","360","698027","0.0-19.0-0.1-0.9","aztmcf2wlb","","aztmcf2wlb","""2024-11-12T18:59:33.823Z""","null","+","null","","","","","","",""
"","","","","","image-keyboard-response","361","707667","0.0-19.0-0.1-1.9","aztmcf2wlb","","aztmcf2wlb","""2024-11-12T18:59:33.823Z""","9637","materials/imgs/D66.png","arrowleft","","[""materials/imgs/D34.png"",""materials/imgs/D65.png""]","false","random","","",""
"","","","","","html-keyboard-response","362","708168","0.0-19.0-0.1-0.10","aztmcf2wlb","","aztmcf2wlb","""2024-11-12T18:59:33.823Z""","null","+","null","","","","","","",""
"","","","","","image-keyboard-response","363","722690","0.0-19.0-0.1-1.10","aztmcf2wlb","","aztmcf2wlb","""2024-11-12T18:59:33.823Z""","14520","materials/imgs/D96.png","arrowright","","[""materials/imgs/D92.png"",""materials/imgs/D81.png""]","false","random","","",""
"","","","","","html-keyboard-response","364","723191","0.0-19.0-0.1-0.11","aztmcf2wlb","","aztmcf2wlb","""2024-11-12T18:59:33.823Z""","null","+","null","","","","","","",""
"","","","","","image-keyboard-response","365","726371","0.0-19.0-0.1-1.11","aztmcf2wlb","","aztmcf2wlb","""2024-11-12T18:59:33.823Z""","3178","materials/imgs/D48.png","arrowleft","","[""materials/imgs/D16.png"",""materials/imgs/D105.png""]","false","random","","",""
"","","","","","html-keyboard-response","366","726872","0.0-19.0-0.1-0.12","aztmcf2wlb","","aztmcf2wlb","""2024-11-12T18:59:33.823Z""","null","+","null","","","","","","",""
"","","","","","image-keyboard-response","367","736313","0.0-19.0-0.1-1.12","aztmcf2wlb","","aztmcf2wlb","""2024-11-12T18:59:33.823Z""","9438","materials/imgs/D20.png","arrowright","","[""materials/imgs/D46.png"",""materials/imgs/D6.png""]","false","random","","",""
"","","","","","html-keyboard-response","368","736815","0.0-19.0-0.1-0.13","aztmcf2wlb","","aztmcf2wlb","""2024-11-12T18:59:33.823Z""","null","+","null","","","","","","",""
"","","","","","image-keyboard-response","369","742543","0.0-19.0-0.1-1.13","aztmcf2wlb","","aztmcf2wlb","""2024-11-12T18:59:33.823Z""","5726","materials/imgs/D78.png","arrowright","","[""materials/imgs/D1.png"",""materials/imgs/D77.png""]","false","random","","",""
"","","","","","html-keyboard-response","370","743045","0.0-19.0-1.1-0.1","aztmcf2wlb","","aztmcf2wlb","""2024-11-12T18:59:33.823Z""","null","+","null","","","","","","",""
"","","","","","image-keyboard-response","371","743997","0.0-19.0-1.1-1.1","aztmcf2wlb","","aztmcf2wlb","""2024-11-12T18:59:33.823Z""","950","materials/imgs/D18.png","arrowright","","[""materials/imgs/D8.png"",""materials/imgs/D18.png""]","","check","materials/imgs/D18.png","1","true"
"","","","","","html-keyboard-response","372","744499","0.0-19.0-2.1-0.2","aztmcf2wlb","","aztmcf2wlb","""2024-11-12T18:59:33.823Z""","null","+","null","","","","","","",""
"","","","","","image-keyboard-response","373","746448","0.0-19.0-2.1-1.2","aztmcf2wlb","","aztmcf2wlb","""2024-11-12T18:59:33.823Z""","1947","materials/imgs/D76.png","arrowleft","","[""materials/imgs/D83.png"",""materials/imgs/D6.png""]","false","validation","","",""
"","","","","","html-keyboard-response","374","746949","0.0-19.0-2.1-0.3","aztmcf2wlb","","aztmcf2wlb","""2024-11-12T18:59:33.823Z""","null","+","null","","","","","","",""
"","","","","","image-keyboard-response","375","749734","0.0-19.0-2.1-1.3","aztmcf2wlb","","aztmcf2wlb","""2024-11-12T18:59:33.823Z""","2784","materials/imgs/D77.png","arrowright","","[""materials/imgs/D102.png"",""materials/imgs/D65.png""]","false","validation","","",""
"","","","","","html-keyboard-response","376","750235","0.0-19.0-0.2-0.14","aztmcf2wlb","","aztmcf2wlb","""2024-11-12T18:59:33.823Z""","null","+","null","","","","","","",""
"","","","","","image-keyboard-response","377","751553","0.0-19.0-0.2-1.14","aztmcf2wlb","","aztmcf2wlb","""2024-11-12T18:59:33.823Z""","1315","materials/imgs/D105.png","arrowright","","[""materials/imgs/D47.png"",""materials/imgs/D104.png""]","false","random","","",""
"","","","","","html-keyboard-response","378","752054","0.0-19.0-0.2-0.15","aztmcf2wlb","","aztmcf2wlb","""2024-11-12T18:59:33.823Z""","null","+","null","","","","","","",""
"","","","","","image-keyboard-response","379","759280","0.0-19.0-0.2-1.15","aztmcf2wlb","","aztmcf2wlb","""2024-11-12T18:59:33.823Z""","7223","materials/imgs/D78.png","arrowright","","[""materials/imgs/D17.png"",""materials/imgs/D106.png""]","false","random","","",""
"","","","","","html-keyboard-response","380","759781","0.0-19.0-0.2-0.16","aztmcf2wlb","","aztmcf2wlb","""2024-11-12T18:59:33.823Z""","null","+","null","","","","","","",""
"","","","","","image-keyboard-response","381","762687","0.0-19.0-0.2-1.16","aztmcf2wlb","","aztmcf2wlb","""2024-11-12T18:59:33.823Z""","2904","materials/imgs/D79.png","arrowleft","","[""materials/imgs/D25.png"",""materials/imgs/D101.png""]","false","random","","",""
"","","","","","html-keyboard-response","382","763189","0.0-19.0-0.2-0.17","aztmcf2wlb","","aztmcf2wlb","""2024-11-12T18:59:33.823Z""","null","+","null","","","","","","",""
"","","","","","image-keyboard-response","383","770034","0.0-19.0-0.2-1.17","aztmcf2wlb","","aztmcf2wlb","""2024-11-12T18:59:33.823Z""","6842","materials/imgs/D82.png","arrowright","","[""materials/imgs/D14.png"",""materials/imgs/D34.png""]","false","random","","",""
"","","","","","html-keyboard-response","384","770535","0.0-19.0-0.2-0.18","aztmcf2wlb","","aztmcf2wlb","""2024-11-12T18:59:33.823Z""","null","+","null","","","","","","",""
"","","","","","image-keyboard-response","385","775662","0.0-19.0-0.2-1.18","aztmcf2wlb","","aztmcf2wlb","""2024-11-12T18:59:33.823Z""","5124","materials/imgs/D74.png","arrowleft","","[""materials/imgs/D37.png"",""materials/imgs/D22.png""]","false","random","","",""
"","","","","","html-keyboard-response","386","776163","0.0-19.0-0.2-0.19","aztmcf2wlb","","aztmcf2wlb","""2024-11-12T18:59:33.823Z""","null","+","null","","","","","","",""
"","","","","","image-keyboard-response","387","797933","0.0-19.0-0.2-1.19","aztmcf2wlb","","aztmcf2wlb","""2024-11-12T18:59:33.823Z""","21768","materials/imgs/D104.png","arrowleft","","[""materials/imgs/D94.png"",""materials/imgs/D74.png""]","false","random","","",""
"","","","","","html-keyboard-response","388","798435","0.0-19.0-0.2-0.20","aztmcf2wlb","","aztmcf2wlb","""2024-11-12T18:59:33.823Z""","null","+","null","","","","","","",""
"","","","","","image-keyboard-response","389","810274","0.0-19.0-0.2-1.20","aztmcf2wlb","","aztmcf2wlb","""2024-11-12T18:59:33.823Z""","11836","materials/imgs/D24.png","arrowleft","","[""materials/imgs/D66.png"",""materials/imgs/D34.png""]","false","random","","",""
"","","","","","html-keyboard-response","390","810775","0.0-19.0-1.2-0.2","aztmcf2wlb","","aztmcf2wlb","""2024-11-12T18:59:33.823Z""","null","+","null","","","","","","",""
"","","","","","image-keyboard-response","391","811771","0.0-19.0-1.2-1.2","aztmcf2wlb","","aztmcf2wlb","""2024-11-12T18:59:33.823Z""","993","materials/imgs/D106.png","arrowleft","","[""materials/imgs/D106.png"",""materials/imgs/D101.png""]","","check","materials/imgs/D106.png","0","true"
"","","","","","html-keyboard-response","392","812272","0.0-19.0-2.2-0.4","aztmcf2wlb","","aztmcf2wlb","""2024-11-12T18:59:33.823Z""","null","+","null","","","","","","",""
"","","","","","image-keyboard-response","393","813780","0.0-19.0-2.2-1.4","aztmcf2wlb","","aztmcf2wlb","""2024-11-12T18:59:33.823Z""","1506","materials/imgs/D81.png","arrowleft","","[""materials/imgs/D105.png"",""materials/imgs/D24.png""]","false","validation","","",""
"","","","","","html-keyboard-response","394","814282","0.0-19.0-2.2-0.5","aztmcf2wlb","","aztmcf2wlb","""2024-11-12T18:59:33.823Z""","null","+","null","","","","","","",""
"","","","","","image-keyboard-response","395","815754","0.0-19.0-2.2-1.5","aztmcf2wlb","","aztmcf2wlb","""2024-11-12T18:59:33.823Z""","1470","materials/imgs/D66.png","arrowleft","","[""materials/imgs/D85.png"",""materials/imgs/D25.png""]","false","validation","","",""
"","","","","","html-keyboard-response","396","816256","0.0-19.0-0.3-0.21","aztmcf2wlb","","aztmcf2wlb","""2024-11-12T18:59:33.823Z""","null","+","null","","","","","","",""
"","","","","","image-keyboard-response","397","828875","0.0-19.0-0.3-1.21","aztmcf2wlb","","aztmcf2wlb","""2024-11-12T18:59:33.823Z""","12616","materials/imgs/D79.png","arrowright","","[""materials/imgs/D64.png"",""materials/imgs/D36.png""]","false","random","","",""
"","","","","","html-keyboard-response","398","829376","0.0-19.0-0.3-0.22","aztmcf2wlb","","aztmcf2wlb","""2024-11-12T18:59:33.823Z""","null","+","null","","","","","","",""
"","","","","","image-keyboard-response","399","831062","0.0-19.0-0.3-1.22","aztmcf2wlb","","aztmcf2wlb","""2024-11-12T18:59:33.823Z""","1683","materials/imgs/D95.png","arrowleft","","[""materials/imgs/D3.png"",""materials/imgs/D4.png""]","false","random","","",""
"","","","","","html-keyboard-response","400","831563","0.0-19.0-0.3-0.23","aztmcf2wlb","","aztmcf2wlb","""2024-11-12T18:59:33.823Z""","null","+","null","","","","","","",""
"","","","","","image-keyboard-response","401","861161","0.0-19.0-0.3-1.23","aztmcf2wlb","","aztmcf2wlb","""2024-11-12T18:59:33.823Z""","29595","materials/imgs/D34.png","arrowright","","[""materials/imgs/D20.png"",""materials/imgs/D79.png""]","false","random","","",""
"","","","","","html-keyboard-response","402","861662","0.0-19.0-0.3-0.24","aztmcf2wlb","","aztmcf2wlb","""2024-11-12T18:59:33.823Z""","null","+","null","","","","","","",""
"","","","","","image-keyboard-response","403","865434","0.0-19.0-0.3-1.24","aztmcf2wlb","","aztmcf2wlb","""2024-11-12T18:59:33.823Z""","3772","materials/imgs/D49.png","arrowright","","[""materials/imgs/D66.png"",""materials/imgs/D24.png""]","false","random","","",""
"","","","","","html-keyboard-response","404","865935","0.0-19.0-0.3-0.25","aztmcf2wlb","","aztmcf2wlb","""2024-11-12T18:59:33.823Z""","null","+","null","","","","","","",""
"","","","","","image-keyboard-response","405","889808","0.0-19.0-0.3-1.25","aztmcf2wlb","","aztmcf2wlb","""2024-11-12T18:59:33.823Z""","23871","materials/imgs/D49.png","arrowleft","","[""materials/imgs/D105.png"",""materials/imgs/D95.png""]","false","random","","",""
"","","","","","html-keyboard-response","406","890309","0.0-19.0-0.3-0.26","aztmcf2wlb","","aztmcf2wlb","""2024-11-12T18:59:33.823Z""","null","+","null","","","","","","",""
"","","","","","image-keyboard-response","407","897136","0.0-19.0-0.3-1.26","aztmcf2wlb","","aztmcf2wlb","""2024-11-12T18:59:33.823Z""","6825","materials/imgs/D46.png","arrowleft","","[""materials/imgs/D77.png"",""materials/imgs/D21.png""]","false","random","","",""
"","","","","","html-keyboard-response","408","897638","0.0-19.0-0.3-0.27","aztmcf2wlb","","aztmcf2wlb","""2024-11-12T18:59:33.823Z""","null","+","null","","","","","","",""
"","","","","","image-keyboard-response","409","933575","0.0-19.0-0.3-1.27","aztmcf2wlb","","aztmcf2wlb","""2024-11-12T18:59:33.823Z""","35935","materials/imgs/D25.png","arrowright","","[""materials/imgs/D48.png"",""materials/imgs/D53.png""]","false","random","","",""
"","","","","","html-keyboard-response","410","934076","0.0-19.0-1.3-0.3","aztmcf2wlb","","aztmcf2wlb","""2024-11-12T18:59:33.823Z""","null","+","null","","","","","","",""
"","","","","","image-keyboard-response","411","935564","0.0-19.0-1.3-1.3","aztmcf2wlb","","aztmcf2wlb","""2024-11-12T18:59:33.823Z""","1486","materials/imgs/D18.png","arrowright","","[""materials/imgs/D8.png"",""materials/imgs/D18.png""]","","check","materials/imgs/D18.png","1","true"
"","","","","","html-keyboard-response","412","936066","0.0-19.0-2.3-0.6","aztmcf2wlb","","aztmcf2wlb","""2024-11-12T18:59:33.823Z""","null","+","null","","","","","","",""
"","","","","","image-keyboard-response","413","937060","0.0-19.0-2.3-1.6","aztmcf2wlb","","aztmcf2wlb","""2024-11-12T18:59:33.823Z""","993","materials/imgs/D57.png","arrowright","","[""materials/imgs/D111.png"",""materials/imgs/D4.png""]","false","validation","","",""
"","","","","","html-keyboard-response","414","937562","0.0-19.0-2.3-0.7","aztmcf2wlb","","aztmcf2wlb","""2024-11-12T18:59:33.823Z""","null","+","null","","","","","","",""
"","","","","","image-keyboard-response","415","938711","0.0-19.0-2.3-1.7","aztmcf2wlb","","aztmcf2wlb","""2024-11-12T18:59:33.823Z""","1147","materials/imgs/D19.png","arrowleft","","[""materials/imgs/D111.png"",""materials/imgs/D56.png""]","false","validation","","",""
"","","","","","html-keyboard-response","416","939213","0.0-19.0-0.4-0.28","aztmcf2wlb","","aztmcf2wlb","""2024-11-12T18:59:33.823Z""","null","+","null","","","","","","",""
"","","","","","image-keyboard-response","417","941514","0.0-19.0-0.4-1.28","aztmcf2wlb","","aztmcf2wlb","""2024-11-12T18:59:33.823Z""","2299","materials/imgs/D77.png","arrowleft","","[""materials/imgs/D17.png"",""materials/imgs/D78.png""]","false","random","","",""
"","","","","","html-keyboard-response","418","942016","0.0-19.0-0.4-0.29","aztmcf2wlb","","aztmcf2wlb","""2024-11-12T18:59:33.823Z""","null","+","null","","","","","","",""
"","","","","","image-keyboard-response","419","948423","0.0-19.0-0.4-1.29","aztmcf2wlb","","aztmcf2wlb","""2024-11-12T18:59:33.823Z""","6405","materials/imgs/D53.png","arrowleft","","[""materials/imgs/D83.png"",""materials/imgs/D18.png""]","false","random","","",""
"","","","","","html-keyboard-response","420","948926","0.0-19.0-0.4-0.30","aztmcf2wlb","","aztmcf2wlb","""2024-11-12T18:59:33.823Z""","null","+","null","","","","","","",""
"","","","","","image-keyboard-response","421","949759","0.0-19.0-0.4-1.30","aztmcf2wlb","","aztmcf2wlb","""2024-11-12T18:59:33.823Z""","831","materials/imgs/D83.png","arrowright","","[""materials/imgs/D9.png"",""materials/imgs/D101.png""]","false","random","","",""
"","","","","","html-keyboard-response","422","950260","0.0-19.0-0.4-0.31","aztmcf2wlb","","aztmcf2wlb","""2024-11-12T18:59:33.823Z""","null","+","null","","","","","","",""
"","","","","","image-keyboard-response","423","956375","0.0-19.0-0.4-1.31","aztmcf2wlb","","aztmcf2wlb","""2024-11-12T18:59:33.823Z""","6112","materials/imgs/D57.png","arrowleft","","[""materials/imgs/D83.png"",""materials/imgs/D111.png""]","false","random","","",""
"","","","","","html-keyboard-response","424","956876","0.0-19.0-0.4-0.32","aztmcf2wlb","","aztmcf2wlb","""2024-11-12T18:59:33.823Z""","null","+","null","","","","","","",""
"","","","","","image-keyboard-response","425","957980","0.0-19.0-0.4-1.32","aztmcf2wlb","","aztmcf2wlb","""2024-11-12T18:59:33.823Z""","1102","materials/imgs/D84.png","arrowright","","[""materials/imgs/D46.png"",""materials/imgs/D49.png""]","false","random","","",""
"","","","","","html-keyboard-response","426","958481","0.0-19.0-0.4-0.33","aztmcf2wlb","","aztmcf2wlb","""2024-11-12T18:59:33.823Z""","null","+","null","","","","","","",""
"","","","","","image-keyboard-response","427","959662","0.0-19.0-0.4-1.33","aztmcf2wlb","","aztmcf2wlb","""2024-11-12T18:59:33.823Z""","1179","materials/imgs/D83.png","arrowright","","[""materials/imgs/D49.png"",""materials/imgs/D80.png""]","false","random","","",""
"","","","","","html-keyboard-response","428","960163","0.0-19.0-0.4-0.34","aztmcf2wlb","","aztmcf2wlb","""2024-11-12T18:59:33.823Z""","null","+","null","","","","","","",""
"","","","","","image-keyboard-response","429","973477","0.0-19.0-0.4-1.34","aztmcf2wlb","","aztmcf2wlb","""2024-11-12T18:59:33.823Z""","13312","materials/imgs/D55.png","arrowright","","[""materials/imgs/D34.png"",""materials/imgs/D82.png""]","false","random","","",""
"","","","","","html-keyboard-response","430","973979","0.0-19.0-1.4-0.4","aztmcf2wlb","","aztmcf2wlb","""2024-11-12T18:59:33.823Z""","null","+","null","","","","","","",""
"","","","","","image-keyboard-response","431","975367","0.0-19.0-1.4-1.4","aztmcf2wlb","","aztmcf2wlb","""2024-11-12T18:59:33.823Z""","1385","materials/imgs/D64.png","arrowleft","","[""materials/imgs/D64.png"",""materials/imgs/D53.png""]","","check","materials/imgs/D64.png","0","true"
"","","","","","html-keyboard-response","432","975868","0.0-19.0-2.4-0.8","aztmcf2wlb","","aztmcf2wlb","""2024-11-12T18:59:33.823Z""","null","+","null","","","","","","",""
"","","","","","image-keyboard-response","433","977487","0.0-19.0-2.4-1.8","aztmcf2wlb","","aztmcf2wlb","""2024-11-12T18:59:33.823Z""","1617","materials/imgs/D36.png","arrowleft","","[""materials/imgs/D47.png"",""materials/imgs/D49.png""]","false","validation","","",""
"","","","","","html-keyboard-response","434","977988","0.0-19.0-2.4-0.9","aztmcf2wlb","","aztmcf2wlb","""2024-11-12T18:59:33.823Z""","null","+","null","","","","","","",""
"","","","","","image-keyboard-response","435","981042","0.0-19.0-2.4-1.9","aztmcf2wlb","","aztmcf2wlb","""2024-11-12T18:59:33.823Z""","3051","materials/imgs/D105.png","arrowleft","","[""materials/imgs/D106.png"",""materials/imgs/D52.png""]","false","validation","","",""
