"success","timeout","failed_images","failed_audio","failed_video","trial_type","trial_index","time_elapsed","internal_node_id","subject_id","sona_id","subjectID","dateInfo","rt","stimulus","response","question_order","choices","speedy","sampleAlg","selected_image","selected_index","correct"
"true","false","[]","[]","[]","preload","0","541","0.0-0.0","b2wnzx4aes","","b2wnzx4aes","""2024-11-12T18:59:09.179Z""","","","","","","","","","",""
"true","","","","","fullscreen","1","2647","0.0-1.0","b2wnzx4aes","","b2wnzx4aes","""2024-11-12T18:59:09.179Z""","","","","","","","","","",""
"","","","","","html-keyboard-response","2","2662","0.0-2.0","b2wnzx4aes","","b2wnzx4aes","""2024-11-12T18:59:09.179Z""","null","","null","","","","","","",""
"","","","","","html-button-response","3","21786","0.0-3.0","b2wnzx4aes","","b2wnzx4aes","""2024-11-12T18:59:09.179Z""","19121","<div style='text-align:center; font-size:20px; line-height:25px; width: 1200px;'>
                Welcome to our experiment! <br>
                <br>At the bottom of this screen, you will see a button that says 'Begin Experiment.
                <br>Please only click that button when you are ready to complete the 25 minute experiment in one sitting. <br>
                <br> Once you click that button, it will not be possible to restart the experiment. <br><br>","0","","","","","","",""
"true","","","","","fullscreen","4","24444","0.0-4.0","b2wnzx4aes","","b2wnzx4aes","""2024-11-12T18:59:09.179Z""","","","","","","","","","",""
"","","","","","survey-multi-select","5","33804","0.0-5.0","b2wnzx4aes","","b2wnzx4aes","""2024-11-12T18:59:09.179Z""","9349","","{""Consent"":[""<strong>I consent</strong>""]}","[0]","","","","","",""
"","","","","","html-button-response","6","35354","0.0-6.0","b2wnzx4aes","","b2wnzx4aes","""2024-11-12T18:59:09.179Z""","1546","Welcome! <p> This experiment involves two parts: demographic information, followed by the experimental task.<p> It will take about 25 minutes to complete both parts.","0","","","","","","",""
"","","","","","survey-text","7","44253","0.0-7.0","b2wnzx4aes","","b2wnzx4aes","""2024-11-12T18:59:09.179Z""","8892","","{""Age"":""18"",""Gender"":""Female"",""Race/ethnicity"":""White""}","","","","","","",""
"","","","","","html-button-response","8","67894","0.0-8.0","b2wnzx4aes","","b2wnzx4aes","""2024-11-12T18:59:09.179Z""","23635","<div style='text-align: center;'>
      <p>In each trial of this task, you will see three texture images: one target item on top, and two choices beneath the target item.</p>
      <p><strong>Please select the item that is most like the target item.</strong></p>
      <p>To select the option on the <strong>LEFT</strong>, press the <strong>LEFT ARROW</strong> key. 
      To select the option on the <strong>RIGHT</strong>, press the <strong>RIGHT ARROW</strong> key.</p>
                  <!-- Target Image at the Top -->
      <div style='margin: 20px;'>
        <img src='materials/imgs/instruction_images/InstructionImg1D78.png' alt='Target Image' style='width:200px; height:auto;' />
        <p><em>Target Image</em></p>
      </div>

      <!-- Two Choice Images Below -->
      <div style='display: flex; justify-content: center;'>
        <div style='margin-right: 50px;'>
          <img src='materials/imgs/instruction_images/InstructionImg2D34.png' alt='Choice Image 1' style='width:150px; height:auto;' />
          <p><em><strong>LEFT ARROW</strong></em></p>
        </div>
        <div style='margin-left: 50px;'>
          <img src='materials/imgs/instruction_images/InstructionImg3D80.png' alt='Choice Image 2' style='width:150px; height:auto;' />
          <p><em><strong>RIGHT ARROW</strong></em></p>
        </div>
      </div>
    </div>

      <p>When you are ready to proceed, please click 'Continue' to begin practice.</p>","0","","","","","","",""
"","","","","","html-keyboard-response","9","70405","0.0-9.0","b2wnzx4aes","","b2wnzx4aes","""2024-11-12T18:59:09.179Z""","null","+","null","","","","","","",""
"","","","","","html-keyboard-response","10","70912","0.0-10.0-0.0-0.0","b2wnzx4aes","","b2wnzx4aes","""2024-11-12T18:59:09.179Z""","null","+","null","","","","","","",""
"","","","","","image-keyboard-response","11","72383","0.0-10.0-0.0-1.0","b2wnzx4aes","","b2wnzx4aes","""2024-11-12T18:59:09.179Z""","1465","materials/imgs/D22.png","arrowleft","","[""materials/imgs/D24.png"",""materials/imgs/D49.png""]","false","random","","",""
"","","","","","html-keyboard-response","12","72898","0.0-10.0-0.0-0.1","b2wnzx4aes","","b2wnzx4aes","""2024-11-12T18:59:09.179Z""","null","+","null","","","","","","",""
"","","","","","image-keyboard-response","13","73676","0.0-10.0-0.0-1.1","b2wnzx4aes","","b2wnzx4aes","""2024-11-12T18:59:09.179Z""","773","materials/imgs/D66.png","arrowleft","","[""materials/imgs/D92.png"",""materials/imgs/D49.png""]","false","random","","",""
"","","","","","html-keyboard-response","14","74188","0.0-10.0-0.0-0.2","b2wnzx4aes","","b2wnzx4aes","""2024-11-12T18:59:09.179Z""","null","+","null","","","","","","",""
"","","","","","image-keyboard-response","15","76661","0.0-10.0-0.0-1.2","b2wnzx4aes","","b2wnzx4aes","""2024-11-12T18:59:09.179Z""","2468","materials/imgs/D106.png","arrowleft","","[""materials/imgs/D6.png"",""materials/imgs/D18.png""]","false","random","","",""
"","","","","","html-keyboard-response","16","77177","0.0-10.0-0.0-0.3","b2wnzx4aes","","b2wnzx4aes","""2024-11-12T18:59:09.179Z""","null","+","null","","","","","","",""
"","","","","","image-keyboard-response","17","78755","0.0-10.0-0.0-1.3","b2wnzx4aes","","b2wnzx4aes","""2024-11-12T18:59:09.179Z""","1573","materials/imgs/D49.png","arrowleft","","[""materials/imgs/D66.png"",""materials/imgs/D74.png""]","false","random","","",""
"","","","","","html-keyboard-response","18","79267","0.0-10.0-0.0-0.4","b2wnzx4aes","","b2wnzx4aes","""2024-11-12T18:59:09.179Z""","null","+","null","","","","","","",""
"","","","","","image-keyboard-response","19","79980","0.0-10.0-0.0-1.4","b2wnzx4aes","","b2wnzx4aes","""2024-11-12T18:59:09.179Z""","707","materials/imgs/D66.png","arrowright","","[""materials/imgs/D55.png"",""materials/imgs/D29.png""]","false","random","","",""
"","","","","","html-keyboard-response","20","80495","0.0-10.0-0.0-0.5","b2wnzx4aes","","b2wnzx4aes","""2024-11-12T18:59:09.179Z""","null","+","null","","","","","","",""
"","","","","","image-keyboard-response","21","81291","0.0-10.0-0.0-1.5","b2wnzx4aes","","b2wnzx4aes","""2024-11-12T18:59:09.179Z""","792","materials/imgs/D87.png","arrowright","","[""materials/imgs/D96.png"",""materials/imgs/D105.png""]","false","random","","",""
"","","","","","html-keyboard-response","22","81801","0.0-10.0-0.0-0.6","b2wnzx4aes","","b2wnzx4aes","""2024-11-12T18:59:09.179Z""","null","+","null","","","","","","",""
"","","","","","image-keyboard-response","23","82762","0.0-10.0-0.0-1.6","b2wnzx4aes","","b2wnzx4aes","""2024-11-12T18:59:09.179Z""","956","materials/imgs/D26.png","arrowleft","","[""materials/imgs/D4.png"",""materials/imgs/D48.png""]","false","random","","",""
"","","","","","html-keyboard-response","24","83278","0.0-10.0-0.0-0.7","b2wnzx4aes","","b2wnzx4aes","""2024-11-12T18:59:09.179Z""","null","+","null","","","","","","",""
"","","","","","image-keyboard-response","25","84164","0.0-10.0-0.0-1.7","b2wnzx4aes","","b2wnzx4aes","""2024-11-12T18:59:09.179Z""","882","materials/imgs/D8.png","arrowright","","[""materials/imgs/D92.png"",""materials/imgs/D65.png""]","false","random","","",""
"","","","","","html-keyboard-response","26","84675","0.0-10.0-0.0-0.8","b2wnzx4aes","","b2wnzx4aes","""2024-11-12T18:59:09.179Z""","null","+","null","","","","","","",""
"","","","","","image-keyboard-response","27","86615","0.0-10.0-0.0-1.8","b2wnzx4aes","","b2wnzx4aes","""2024-11-12T18:59:09.179Z""","1933","materials/imgs/D75.png","arrowright","","[""materials/imgs/D84.png"",""materials/imgs/D32.png""]","false","random","","",""
"","","","","","html-keyboard-response","28","87120","0.0-10.0-0.0-0.9","b2wnzx4aes","","b2wnzx4aes","""2024-11-12T18:59:09.179Z""","null","+","null","","","","","","",""
"","","","","","image-keyboard-response","29","87738","0.0-10.0-0.0-1.9","b2wnzx4aes","","b2wnzx4aes","""2024-11-12T18:59:09.179Z""","613","materials/imgs/D92.png","arrowright","","[""materials/imgs/D16.png"",""materials/imgs/D4.png""]","false","random","","",""
"","","","","","html-button-response","30","93523","0.0-11.0","b2wnzx4aes","","b2wnzx4aes","""2024-11-12T18:59:09.179Z""","5781","<p>Great job!</p>
      <p>You are now ready to begin the experiment.</p>
      <p>There will be around 200 trials. You will have opportunities to take breaks at three stages of the trials.</p>
      <p>When you are ready to begin please click 'Continue'.</p>","0","","","","","","",""
"","","","","","html-keyboard-response","31","96029","0.0-12.0","b2wnzx4aes","","b2wnzx4aes","""2024-11-12T18:59:09.179Z""","null","+","null","","","","","","",""
"","","","","","html-keyboard-response","32","96533","0.0-13.0-0.0-0.0","b2wnzx4aes","","b2wnzx4aes","""2024-11-12T18:59:09.179Z""","null","+","null","","","","","","",""
"","","","","","image-keyboard-response","33","98295","0.0-13.0-0.0-1.0","b2wnzx4aes","","b2wnzx4aes","""2024-11-12T18:59:09.179Z""","1756","materials/imgs/D29.png","arrowleft","","[""materials/imgs/D80.png"",""materials/imgs/D47.png""]","false","random","","",""
"","","","","","html-keyboard-response","34","98811","0.0-13.0-0.0-0.1","b2wnzx4aes","","b2wnzx4aes","""2024-11-12T18:59:09.179Z""","null","+","null","","","","","","",""
"","","","","","image-keyboard-response","35","99577","0.0-13.0-0.0-1.1","b2wnzx4aes","","b2wnzx4aes","""2024-11-12T18:59:09.179Z""","759","materials/imgs/D105.png","arrowright","","[""materials/imgs/D84.png"",""materials/imgs/D16.png""]","false","random","","",""
"","","","","","html-keyboard-response","36","100085","0.0-13.0-0.0-0.2","b2wnzx4aes","","b2wnzx4aes","""2024-11-12T18:59:09.179Z""","null","+","null","","","","","","",""
"","","","","","image-keyboard-response","37","100734","0.0-13.0-0.0-1.2","b2wnzx4aes","","b2wnzx4aes","""2024-11-12T18:59:09.179Z""","644","materials/imgs/D37.png","arrowleft","","[""materials/imgs/D68.png"",""materials/imgs/D48.png""]","false","random","","",""
"","","","","","html-keyboard-response","38","101249","0.0-13.0-0.0-0.3","b2wnzx4aes","","b2wnzx4aes","""2024-11-12T18:59:09.179Z""","null","+","null","","","","","","",""
"","","","","","image-keyboard-response","39","102120","0.0-13.0-0.0-1.3","b2wnzx4aes","","b2wnzx4aes","""2024-11-12T18:59:09.179Z""","869","materials/imgs/D66.png","arrowright","","[""materials/imgs/D103.png"",""materials/imgs/D82.png""]","false","random","","",""
"","","","","","html-keyboard-response","40","102635","0.0-13.0-0.0-0.4","b2wnzx4aes","","b2wnzx4aes","""2024-11-12T18:59:09.179Z""","null","+","null","","","","","","",""
"","","","","","image-keyboard-response","41","103838","0.0-13.0-0.0-1.4","b2wnzx4aes","","b2wnzx4aes","""2024-11-12T18:59:09.179Z""","1199","materials/imgs/D75.png","arrowleft","","[""materials/imgs/D18.png"",""materials/imgs/D34.png""]","false","random","","",""
"","","","","","html-keyboard-response","42","104354","0.0-13.0-0.0-0.5","b2wnzx4aes","","b2wnzx4aes","""2024-11-12T18:59:09.179Z""","null","+","null","","","","","","",""
"","","","","","image-keyboard-response","43","105302","0.0-13.0-0.0-1.5","b2wnzx4aes","","b2wnzx4aes","""2024-11-12T18:59:09.179Z""","944","materials/imgs/D64.png","arrowright","","[""materials/imgs/D25.png"",""materials/imgs/D9.png""]","false","random","","",""
"","","","","","html-keyboard-response","44","105806","0.0-13.0-0.0-0.6","b2wnzx4aes","","b2wnzx4aes","""2024-11-12T18:59:09.179Z""","null","+","null","","","","","","",""
"","","","","","image-keyboard-response","45","106406","0.0-13.0-0.0-1.6","b2wnzx4aes","","b2wnzx4aes","""2024-11-12T18:59:09.179Z""","595","materials/imgs/D21.png","arrowright","","[""materials/imgs/D96.png"",""materials/imgs/D17.png""]","false","random","","",""
"","","","","","html-keyboard-response","46","106922","0.0-13.0-1.0-0.0","b2wnzx4aes","","b2wnzx4aes","""2024-11-12T18:59:09.179Z""","null","+","null","","","","","","",""
"","","","","","image-keyboard-response","47","107434","0.0-13.0-1.0-1.0","b2wnzx4aes","","b2wnzx4aes","""2024-11-12T18:59:09.179Z""","509","materials/imgs/D18.png","arrowright","","[""materials/imgs/D8.png"",""materials/imgs/D18.png""]","","check","materials/imgs/D18.png","1","true"
"","","","","","html-keyboard-response","48","107946","0.0-13.0-2.0-0.0","b2wnzx4aes","","b2wnzx4aes","""2024-11-12T18:59:09.179Z""","null","+","null","","","","","","",""
"","","","","","image-keyboard-response","49","108466","0.0-13.0-2.0-1.0","b2wnzx4aes","","b2wnzx4aes","""2024-11-12T18:59:09.179Z""","515","materials/imgs/D9.png","arrowright","","[""materials/imgs/D103.png"",""materials/imgs/D4.png""]","false","validation","","",""
"","","","","","html-keyboard-response","50","108971","0.0-13.0-2.0-0.1","b2wnzx4aes","","b2wnzx4aes","""2024-11-12T18:59:09.179Z""","null","+","null","","","","","","",""
"","","","","","image-keyboard-response","51","109999","0.0-13.0-2.0-1.1","b2wnzx4aes","","b2wnzx4aes","""2024-11-12T18:59:09.179Z""","1024","materials/imgs/D35.png","arrowright","","[""materials/imgs/D83.png"",""materials/imgs/D24.png""]","false","validation","","",""
"","","","","","html-keyboard-response","52","110505","0.0-13.0-0.1-0.7","b2wnzx4aes","","b2wnzx4aes","""2024-11-12T18:59:09.179Z""","null","+","null","","","","","","",""
"","","","","","image-keyboard-response","53","111310","0.0-13.0-0.1-1.7","b2wnzx4aes","","b2wnzx4aes","""2024-11-12T18:59:09.179Z""","803","materials/imgs/D16.png","arrowright","","[""materials/imgs/D56.png"",""materials/imgs/D79.png""]","false","random","","",""
"","","","","","html-keyboard-response","54","111828","0.0-13.0-0.1-0.8","b2wnzx4aes","","b2wnzx4aes","""2024-11-12T18:59:09.179Z""","null","+","null","","","","","","",""
"","","","","","image-keyboard-response","55","112954","0.0-13.0-0.1-1.8","b2wnzx4aes","","b2wnzx4aes","""2024-11-12T18:59:09.179Z""","1121","materials/imgs/D3.png","arrowright","","[""materials/imgs/D9.png"",""materials/imgs/D102.png""]","false","random","","",""
"","","","","","html-keyboard-response","56","113464","0.0-13.0-0.1-0.9","b2wnzx4aes","","b2wnzx4aes","""2024-11-12T18:59:09.179Z""","null","+","null","","","","","","",""
"","","","","","image-keyboard-response","57","114186","0.0-13.0-0.1-1.9","b2wnzx4aes","","b2wnzx4aes","""2024-11-12T18:59:09.179Z""","717","materials/imgs/D48.png","arrowright","","[""materials/imgs/D6.png"",""materials/imgs/D32.png""]","false","random","","",""
"","","","","","html-keyboard-response","58","114692","0.0-13.0-0.1-0.10","b2wnzx4aes","","b2wnzx4aes","""2024-11-12T18:59:09.179Z""","null","+","null","","","","","","",""
"","","","","","image-keyboard-response","59","116212","0.0-13.0-0.1-1.10","b2wnzx4aes","","b2wnzx4aes","""2024-11-12T18:59:09.179Z""","1517","materials/imgs/D36.png","arrowleft","","[""materials/imgs/D6.png"",""materials/imgs/D53.png""]","false","random","","",""
"","","","","","html-keyboard-response","60","116716","0.0-13.0-0.1-0.11","b2wnzx4aes","","b2wnzx4aes","""2024-11-12T18:59:09.179Z""","null","+","null","","","","","","",""
"","","","","","image-keyboard-response","61","117611","0.0-13.0-0.1-1.11","b2wnzx4aes","","b2wnzx4aes","""2024-11-12T18:59:09.179Z""","893","materials/imgs/D105.png","arrowleft","","[""materials/imgs/D49.png"",""materials/imgs/D102.png""]","false","random","","",""
"","","","","","html-keyboard-response","62","118125","0.0-13.0-0.1-0.12","b2wnzx4aes","","b2wnzx4aes","""2024-11-12T18:59:09.179Z""","null","+","null","","","","","","",""
"","","","","","image-keyboard-response","63","118636","0.0-13.0-0.1-1.12","b2wnzx4aes","","b2wnzx4aes","""2024-11-12T18:59:09.179Z""","506","materials/imgs/D37.png","arrowright","","[""materials/imgs/D85.png"",""materials/imgs/D103.png""]","false","random","","",""
"","","","","","html-keyboard-response","64","119151","0.0-13.0-0.1-0.13","b2wnzx4aes","","b2wnzx4aes","""2024-11-12T18:59:09.179Z""","null","+","null","","","","","","",""
"","","","","","image-keyboard-response","65","120190","0.0-13.0-0.1-1.13","b2wnzx4aes","","b2wnzx4aes","""2024-11-12T18:59:09.179Z""","1036","materials/imgs/D36.png","arrowright","","[""materials/imgs/D82.png"",""materials/imgs/D87.png""]","false","random","","",""
"","","","","","html-keyboard-response","66","120698","0.0-13.0-1.1-0.1","b2wnzx4aes","","b2wnzx4aes","""2024-11-12T18:59:09.179Z""","null","+","null","","","","","","",""
"","","","","","image-keyboard-response","67","121274","0.0-13.0-1.1-1.1","b2wnzx4aes","","b2wnzx4aes","""2024-11-12T18:59:09.179Z""","570","materials/imgs/D46.png","arrowleft","","[""materials/imgs/D46.png"",""materials/imgs/D26.png""]","","check","materials/imgs/D46.png","0","true"
"","","","","","html-keyboard-response","68","121784","0.0-13.0-2.1-0.2","b2wnzx4aes","","b2wnzx4aes","""2024-11-12T18:59:09.179Z""","null","+","null","","","","","","",""
"","","","","","image-keyboard-response","69","122788","0.0-13.0-2.1-1.2","b2wnzx4aes","","b2wnzx4aes","""2024-11-12T18:59:09.179Z""","1000","materials/imgs/D76.png","arrowleft","","[""materials/imgs/D83.png"",""materials/imgs/D6.png""]","false","validation","","",""
"","","","","","html-keyboard-response","70","123296","0.0-13.0-2.1-0.3","b2wnzx4aes","","b2wnzx4aes","""2024-11-12T18:59:09.179Z""","null","+","null","","","","","","",""
"","","","","","image-keyboard-response","71","125877","0.0-13.0-2.1-1.3","b2wnzx4aes","","b2wnzx4aes","""2024-11-12T18:59:09.179Z""","2577","materials/imgs/D47.png","arrowleft","","[""materials/imgs/D1.png"",""materials/imgs/D52.png""]","false","validation","","",""
"","","","","","html-keyboard-response","72","126385","0.0-13.0-0.2-0.14","b2wnzx4aes","","b2wnzx4aes","""2024-11-12T18:59:09.179Z""","null","+","null","","","","","","",""
"","","","","","image-keyboard-response","73","127256","0.0-13.0-0.2-1.14","b2wnzx4aes","","b2wnzx4aes","""2024-11-12T18:59:09.179Z""","860","materials/imgs/D49.png","arrowleft","","[""materials/imgs/D68.png"",""materials/imgs/D101.png""]","false","random","","",""
"","","","","","html-keyboard-response","74","127759","0.0-13.0-0.2-0.15","b2wnzx4aes","","b2wnzx4aes","""2024-11-12T18:59:09.179Z""","null","+","null","","","","","","",""
"","","","","","image-keyboard-response","75","128902","0.0-13.0-0.2-1.15","b2wnzx4aes","","b2wnzx4aes","""2024-11-12T18:59:09.179Z""","1137","materials/imgs/D48.png","arrowright","","[""materials/imgs/D94.png"",""materials/imgs/D11.png""]","false","random","","",""
"","","","","","html-keyboard-response","76","129413","0.0-13.0-0.2-0.16","b2wnzx4aes","","b2wnzx4aes","""2024-11-12T18:59:09.179Z""","null","+","null","","","","","","",""
"","","","","","image-keyboard-response","77","132537","0.0-13.0-0.2-1.16","b2wnzx4aes","","b2wnzx4aes","""2024-11-12T18:59:09.179Z""","3119","materials/imgs/D47.png","arrowright","","[""materials/imgs/D96.png"",""materials/imgs/D94.png""]","false","random","","",""
"","","","","","html-keyboard-response","78","133052","0.0-13.0-0.2-0.17","b2wnzx4aes","","b2wnzx4aes","""2024-11-12T18:59:09.179Z""","null","+","null","","","","","","",""
"","","","","","image-keyboard-response","79","134423","0.0-13.0-0.2-1.17","b2wnzx4aes","","b2wnzx4aes","""2024-11-12T18:59:09.179Z""","1366","materials/imgs/D22.png","arrowleft","","[""materials/imgs/D101.png"",""materials/imgs/D47.png""]","false","random","","",""
"","","","","","html-keyboard-response","80","134938","0.0-13.0-0.2-0.18","b2wnzx4aes","","b2wnzx4aes","""2024-11-12T18:59:09.179Z""","null","+","null","","","","","","",""
"","","","","","image-keyboard-response","81","135470","0.0-13.0-0.2-1.18","b2wnzx4aes","","b2wnzx4aes","""2024-11-12T18:59:09.179Z""","526","materials/imgs/D85.png","arrowright","","[""materials/imgs/D46.png"",""materials/imgs/D55.png""]","false","random","","",""
"","","","","","html-keyboard-response","82","135976","0.0-13.0-0.2-0.19","b2wnzx4aes","","b2wnzx4aes","""2024-11-12T18:59:09.179Z""","null","+","null","","","","","","",""
"","","","","","image-keyboard-response","83","138030","0.0-13.0-0.2-1.19","b2wnzx4aes","","b2wnzx4aes","""2024-11-12T18:59:09.179Z""","2048","materials/imgs/D49.png","arrowleft","","[""materials/imgs/D80.png"",""materials/imgs/D66.png""]","false","random","","",""
"","","","","","html-keyboard-response","84","138538","0.0-13.0-0.2-0.20","b2wnzx4aes","","b2wnzx4aes","""2024-11-12T18:59:09.179Z""","null","+","null","","","","","","",""
"","","","","","image-keyboard-response","85","139109","0.0-13.0-0.2-1.20","b2wnzx4aes","","b2wnzx4aes","""2024-11-12T18:59:09.179Z""","566","materials/imgs/D9.png","arrowright","","[""materials/imgs/D18.png"",""materials/imgs/D66.png""]","false","random","","",""
"","","","","","html-keyboard-response","86","139622","0.0-13.0-1.2-0.2","b2wnzx4aes","","b2wnzx4aes","""2024-11-12T18:59:09.179Z""","null","+","null","","","","","","",""
"","","","","","image-keyboard-response","87","140298","0.0-13.0-1.2-1.2","b2wnzx4aes","","b2wnzx4aes","""2024-11-12T18:59:09.179Z""","673","materials/imgs/D26.png","arrowleft","","[""materials/imgs/D26.png"",""materials/imgs/D46.png""]","","check","materials/imgs/D26.png","0","true"
"","","","","","html-keyboard-response","88","140803","0.0-13.0-2.2-0.4","b2wnzx4aes","","b2wnzx4aes","""2024-11-12T18:59:09.179Z""","null","+","null","","","","","","",""
"","","","","","image-keyboard-response","89","142203","0.0-13.0-2.2-1.4","b2wnzx4aes","","b2wnzx4aes","""2024-11-12T18:59:09.179Z""","1397","materials/imgs/D76.png","arrowleft","","[""materials/imgs/D83.png"",""materials/imgs/D6.png""]","false","validation","","",""
"","","","","","html-keyboard-response","90","142704","0.0-13.0-2.2-0.5","b2wnzx4aes","","b2wnzx4aes","""2024-11-12T18:59:09.179Z""","null","+","null","","","","","","",""
"","","","","","image-keyboard-response","91","143494","0.0-13.0-2.2-1.5","b2wnzx4aes","","b2wnzx4aes","""2024-11-12T18:59:09.179Z""","788","materials/imgs/D4.png","arrowright","","[""materials/imgs/D52.png"",""materials/imgs/D83.png""]","false","validation","","",""
"","","","","","html-keyboard-response","92","143998","0.0-13.0-0.3-0.21","b2wnzx4aes","","b2wnzx4aes","""2024-11-12T18:59:09.179Z""","null","+","null","","","","","","",""
"","","","","","image-keyboard-response","93","145576","0.0-13.0-0.3-1.21","b2wnzx4aes","","b2wnzx4aes","""2024-11-12T18:59:09.179Z""","1576","materials/imgs/D52.png","arrowright","","[""materials/imgs/D9.png"",""materials/imgs/D8.png""]","false","random","","",""
"","","","","","html-keyboard-response","94","146092","0.0-13.0-0.3-0.22","b2wnzx4aes","","b2wnzx4aes","""2024-11-12T18:59:09.179Z""","null","+","null","","","","","","",""
"","","","","","image-keyboard-response","95","147450","0.0-13.0-0.3-1.22","b2wnzx4aes","","b2wnzx4aes","""2024-11-12T18:59:09.179Z""","1356","materials/imgs/D104.png","arrowleft","","[""materials/imgs/D55.png"",""materials/imgs/D85.png""]","false","random","","",""
"","","","","","html-keyboard-response","96","147957","0.0-13.0-0.3-0.23","b2wnzx4aes","","b2wnzx4aes","""2024-11-12T18:59:09.179Z""","null","+","null","","","","","","",""
"","","","","","image-keyboard-response","97","148585","0.0-13.0-0.3-1.23","b2wnzx4aes","","b2wnzx4aes","""2024-11-12T18:59:09.179Z""","626","materials/imgs/D24.png","arrowleft","","[""materials/imgs/D103.png"",""materials/imgs/D94.png""]","false","random","","",""
"","","","","","html-keyboard-response","98","149091","0.0-13.0-0.3-0.24","b2wnzx4aes","","b2wnzx4aes","""2024-11-12T18:59:09.179Z""","null","+","null","","","","","","",""
"","","","","","image-keyboard-response","99","149790","0.0-13.0-0.3-1.24","b2wnzx4aes","","b2wnzx4aes","""2024-11-12T18:59:09.179Z""","697","materials/imgs/D55.png","arrowleft","","[""materials/imgs/D6.png"",""materials/imgs/D19.png""]","false","random","","",""
"","","","","","html-keyboard-response","100","150303","0.0-13.0-0.3-0.25","b2wnzx4aes","","b2wnzx4aes","""2024-11-12T18:59:09.179Z""","null","+","null","","","","","","",""
"","","","","","image-keyboard-response","101","150796","0.0-13.0-0.3-1.25","b2wnzx4aes","","b2wnzx4aes","""2024-11-12T18:59:09.179Z""","489","materials/imgs/D6.png","arrowright","","[""materials/imgs/D75.png"",""materials/imgs/D22.png""]","true","random","","",""
"","","","","","html-keyboard-response","102","154716","0.0-13.0-0.3-2.25-0.25","b2wnzx4aes","","b2wnzx4aes","""2024-11-12T18:59:09.179Z""","3918","<p><strong>You're going too fast.</strong><p>Please slow down and assess each triplet.<p>Press 'y' to continue.</p></p>","y","","","","","","",""
"","","","","","html-keyboard-response","103","155221","0.0-13.0-0.3-0.26","b2wnzx4aes","","b2wnzx4aes","""2024-11-12T18:59:09.179Z""","null","+","null","","","","","","",""
"","","","","","image-keyboard-response","104","156314","0.0-13.0-0.3-1.26","b2wnzx4aes","","b2wnzx4aes","""2024-11-12T18:59:09.179Z""","1088","materials/imgs/D17.png","arrowright","","[""materials/imgs/D101.png"",""materials/imgs/D16.png""]","false","random","","",""
"","","","","","html-keyboard-response","105","156827","0.0-13.0-0.3-0.27","b2wnzx4aes","","b2wnzx4aes","""2024-11-12T18:59:09.179Z""","null","+","null","","","","","","",""
"","","","","","image-keyboard-response","106","158372","0.0-13.0-0.3-1.27","b2wnzx4aes","","b2wnzx4aes","""2024-11-12T18:59:09.179Z""","1543","materials/imgs/D81.png","arrowright","","[""materials/imgs/D48.png"",""materials/imgs/D35.png""]","false","random","","",""
"","","","","","html-keyboard-response","107","158877","0.0-13.0-1.3-0.3","b2wnzx4aes","","b2wnzx4aes","""2024-11-12T18:59:09.179Z""","null","+","null","","","","","","",""
"","","","","","image-keyboard-response","108","159449","0.0-13.0-1.3-1.3","b2wnzx4aes","","b2wnzx4aes","""2024-11-12T18:59:09.179Z""","570","materials/imgs/D26.png","arrowleft","","[""materials/imgs/D26.png"",""materials/imgs/D46.png""]","","check","materials/imgs/D26.png","0","true"
"","","","","","html-keyboard-response","109","159968","0.0-13.0-2.3-0.6","b2wnzx4aes","","b2wnzx4aes","""2024-11-12T18:59:09.179Z""","null","+","null","","","","","","",""
"","","","","","image-keyboard-response","110","162293","0.0-13.0-2.3-1.6","b2wnzx4aes","","b2wnzx4aes","""2024-11-12T18:59:09.179Z""","2321","materials/imgs/D103.png","arrowright","","[""materials/imgs/D76.png"",""materials/imgs/D106.png""]","false","validation","","",""
"","","","","","html-keyboard-response","111","162801","0.0-13.0-2.3-0.7","b2wnzx4aes","","b2wnzx4aes","""2024-11-12T18:59:09.179Z""","null","+","null","","","","","","",""
"","","","","","image-keyboard-response","112","164691","0.0-13.0-2.3-1.7","b2wnzx4aes","","b2wnzx4aes","""2024-11-12T18:59:09.179Z""","1886","materials/imgs/D77.png","arrowleft","","[""materials/imgs/D102.png"",""materials/imgs/D65.png""]","false","validation","","",""
"","","","","","html-keyboard-response","113","165197","0.0-13.0-0.4-0.28","b2wnzx4aes","","b2wnzx4aes","""2024-11-12T18:59:09.179Z""","null","+","null","","","","","","",""
"","","","","","image-keyboard-response","114","166072","0.0-13.0-0.4-1.28","b2wnzx4aes","","b2wnzx4aes","""2024-11-12T18:59:09.179Z""","870","materials/imgs/D9.png","arrowright","","[""materials/imgs/D16.png"",""materials/imgs/D24.png""]","false","random","","",""
"","","","","","html-keyboard-response","115","166580","0.0-13.0-0.4-0.29","b2wnzx4aes","","b2wnzx4aes","""2024-11-12T18:59:09.179Z""","null","+","null","","","","","","",""
"","","","","","image-keyboard-response","116","167385","0.0-13.0-0.4-1.29","b2wnzx4aes","","b2wnzx4aes","""2024-11-12T18:59:09.179Z""","799","materials/imgs/D6.png","arrowleft","","[""materials/imgs/D3.png"",""materials/imgs/D95.png""]","false","random","","",""
"","","","","","html-keyboard-response","117","167902","0.0-13.0-0.4-0.30","b2wnzx4aes","","b2wnzx4aes","""2024-11-12T18:59:09.179Z""","null","+","null","","","","","","",""
"","","","","","image-keyboard-response","118","169457","0.0-13.0-0.4-1.30","b2wnzx4aes","","b2wnzx4aes","""2024-11-12T18:59:09.179Z""","1549","materials/imgs/D101.png","arrowleft","","[""materials/imgs/D22.png"",""materials/imgs/D87.png""]","false","random","","",""
"","","","","","html-keyboard-response","119","169970","0.0-13.0-0.4-0.31","b2wnzx4aes","","b2wnzx4aes","""2024-11-12T18:59:09.179Z""","null","+","null","","","","","","",""
"","","","","","image-keyboard-response","120","170785","0.0-13.0-0.4-1.31","b2wnzx4aes","","b2wnzx4aes","""2024-11-12T18:59:09.179Z""","810","materials/imgs/D68.png","arrowright","","[""materials/imgs/D66.png"",""materials/imgs/D83.png""]","false","random","","",""
"","","","","","html-keyboard-response","121","171294","0.0-13.0-0.4-0.32","b2wnzx4aes","","b2wnzx4aes","""2024-11-12T18:59:09.179Z""","null","+","null","","","","","","",""
"","","","","","image-keyboard-response","122","172863","0.0-13.0-0.4-1.32","b2wnzx4aes","","b2wnzx4aes","""2024-11-12T18:59:09.179Z""","1563","materials/imgs/D21.png","arrowright","","[""materials/imgs/D18.png"",""materials/imgs/D22.png""]","false","random","","",""
"","","","","","html-keyboard-response","123","173368","0.0-13.0-0.4-0.33","b2wnzx4aes","","b2wnzx4aes","""2024-11-12T18:59:09.179Z""","null","+","null","","","","","","",""
"","","","","","image-keyboard-response","124","174831","0.0-13.0-0.4-1.33","b2wnzx4aes","","b2wnzx4aes","""2024-11-12T18:59:09.179Z""","1457","materials/imgs/D48.png","arrowright","","[""materials/imgs/D87.png"",""materials/imgs/D65.png""]","false","random","","",""
"","","","","","html-keyboard-response","125","175335","0.0-13.0-0.4-0.34","b2wnzx4aes","","b2wnzx4aes","""2024-11-12T18:59:09.179Z""","null","+","null","","","","","","",""
"","","","","","image-keyboard-response","126","176369","0.0-13.0-0.4-1.34","b2wnzx4aes","","b2wnzx4aes","""2024-11-12T18:59:09.179Z""","1029","materials/imgs/D92.png","arrowleft","","[""materials/imgs/D46.png"",""materials/imgs/D48.png""]","false","random","","",""
"","","","","","html-keyboard-response","127","176878","0.0-13.0-1.4-0.4","b2wnzx4aes","","b2wnzx4aes","""2024-11-12T18:59:09.179Z""","null","+","null","","","","","","",""
"","","","","","image-keyboard-response","128","177369","0.0-13.0-1.4-1.4","b2wnzx4aes","","b2wnzx4aes","""2024-11-12T18:59:09.179Z""","488","materials/imgs/D53.png","arrowright","","[""materials/imgs/D64.png"",""materials/imgs/D53.png""]","","check","materials/imgs/D53.png","1","true"
"","","","","","html-keyboard-response","129","177884","0.0-13.0-2.4-0.8","b2wnzx4aes","","b2wnzx4aes","""2024-11-12T18:59:09.179Z""","null","+","null","","","","","","",""
"","","","","","image-keyboard-response","130","178789","0.0-13.0-2.4-1.8","b2wnzx4aes","","b2wnzx4aes","""2024-11-12T18:59:09.179Z""","903","materials/imgs/D92.png","arrowright","","[""materials/imgs/D56.png"",""materials/imgs/D77.png""]","false","validation","","",""
"","","","","","html-keyboard-response","131","179302","0.0-13.0-2.4-0.9","b2wnzx4aes","","b2wnzx4aes","""2024-11-12T18:59:09.179Z""","null","+","null","","","","","","",""
"","","","","","image-keyboard-response","132","180604","0.0-13.0-2.4-1.9","b2wnzx4aes","","b2wnzx4aes","""2024-11-12T18:59:09.179Z""","1300","materials/imgs/D103.png","arrowright","","[""materials/imgs/D76.png"",""materials/imgs/D106.png""]","false","validation","","",""
"","","","","","html-button-response","133","183616","0.0-14.0","b2wnzx4aes","","b2wnzx4aes","""2024-11-12T18:59:09.179Z""","3011","You have completed 25% of the trials. Please click 'Continue' when you are ready proceed.","0","","","","","","",""
"","","","","","html-keyboard-response","134","184118","0.0-15.0-0.0-0.0","b2wnzx4aes","","b2wnzx4aes","""2024-11-12T18:59:09.179Z""","null","+","null","","","","","","",""
"","","","","","image-keyboard-response","135","186040","0.0-15.0-0.0-1.0","b2wnzx4aes","","b2wnzx4aes","""2024-11-12T18:59:09.179Z""","1920","materials/imgs/D55.png","arrowleft","","[""materials/imgs/D20.png"",""materials/imgs/D25.png""]","false","random","","",""
"","","","","","html-keyboard-response","136","186544","0.0-15.0-0.0-0.1","b2wnzx4aes","","b2wnzx4aes","""2024-11-12T18:59:09.179Z""","null","+","null","","","","","","",""
"","","","","","image-keyboard-response","137","187585","0.0-15.0-0.0-1.1","b2wnzx4aes","","b2wnzx4aes","""2024-11-12T18:59:09.179Z""","1039","materials/imgs/D51.png","arrowleft","","[""materials/imgs/D36.png"",""materials/imgs/D26.png""]","false","random","","",""
"","","","","","html-keyboard-response","138","188104","0.0-15.0-0.0-0.2","b2wnzx4aes","","b2wnzx4aes","""2024-11-12T18:59:09.179Z""","null","+","null","","","","","","",""
"","","","","","image-keyboard-response","139","189767","0.0-15.0-0.0-1.2","b2wnzx4aes","","b2wnzx4aes","""2024-11-12T18:59:09.179Z""","1658","materials/imgs/D25.png","arrowright","","[""materials/imgs/D57.png"",""materials/imgs/D6.png""]","false","random","","",""
"","","","","","html-keyboard-response","140","190271","0.0-15.0-0.0-0.3","b2wnzx4aes","","b2wnzx4aes","""2024-11-12T18:59:09.179Z""","null","+","null","","","","","","",""
"","","","","","image-keyboard-response","141","191028","0.0-15.0-0.0-1.3","b2wnzx4aes","","b2wnzx4aes","""2024-11-12T18:59:09.179Z""","753","materials/imgs/D57.png","arrowright","","[""materials/imgs/D111.png"",""materials/imgs/D32.png""]","false","random","","",""
"","","","","","html-keyboard-response","142","191544","0.0-15.0-0.0-0.4","b2wnzx4aes","","b2wnzx4aes","""2024-11-12T18:59:09.179Z""","null","+","null","","","","","","",""
"","","","","","image-keyboard-response","143","192836","0.0-15.0-0.0-1.4","b2wnzx4aes","","b2wnzx4aes","""2024-11-12T18:59:09.179Z""","1288","materials/imgs/D105.png","arrowright","","[""materials/imgs/D37.png"",""materials/imgs/D85.png""]","false","random","","",""
"","","","","","html-keyboard-response","144","193352","0.0-15.0-0.0-0.5","b2wnzx4aes","","b2wnzx4aes","""2024-11-12T18:59:09.179Z""","null","+","null","","","","","","",""
"","","","","","image-keyboard-response","145","194746","0.0-15.0-0.0-1.5","b2wnzx4aes","","b2wnzx4aes","""2024-11-12T18:59:09.179Z""","1389","materials/imgs/D49.png","arrowright","","[""materials/imgs/D75.png"",""materials/imgs/D6.png""]","false","random","","",""
"","","","","","html-keyboard-response","146","195256","0.0-15.0-0.0-0.6","b2wnzx4aes","","b2wnzx4aes","""2024-11-12T18:59:09.179Z""","null","+","null","","","","","","",""
"","","","","","image-keyboard-response","147","197112","0.0-15.0-0.0-1.6","b2wnzx4aes","","b2wnzx4aes","""2024-11-12T18:59:09.179Z""","1852","materials/imgs/D8.png","arrowleft","","[""materials/imgs/D75.png"",""materials/imgs/D95.png""]","false","random","","",""
"","","","","","html-keyboard-response","148","197630","0.0-15.0-1.0-0.0","b2wnzx4aes","","b2wnzx4aes","""2024-11-12T18:59:09.179Z""","null","+","null","","","","","","",""
"","","","","","image-keyboard-response","149","203495","0.0-15.0-1.0-1.0","b2wnzx4aes","","b2wnzx4aes","""2024-11-12T18:59:09.179Z""","5861","materials/imgs/D76.png","arrowleft","","[""materials/imgs/D76.png"",""materials/imgs/D78.png""]","","check","materials/imgs/D76.png","0","true"
"","","","","","html-keyboard-response","150","204012","0.0-15.0-2.0-0.0","b2wnzx4aes","","b2wnzx4aes","""2024-11-12T18:59:09.179Z""","null","+","null","","","","","","",""
"","","","","","image-keyboard-response","151","204894","0.0-15.0-2.0-1.0","b2wnzx4aes","","b2wnzx4aes","""2024-11-12T18:59:09.179Z""","878","materials/imgs/D36.png","arrowright","","[""materials/imgs/D47.png"",""materials/imgs/D49.png""]","false","validation","","",""
"","","","","","html-keyboard-response","152","205399","0.0-15.0-2.0-0.1","b2wnzx4aes","","b2wnzx4aes","""2024-11-12T18:59:09.179Z""","null","+","null","","","","","","",""
"","","","","","image-keyboard-response","153","206524","0.0-15.0-2.0-1.1","b2wnzx4aes","","b2wnzx4aes","""2024-11-12T18:59:09.179Z""","1122","materials/imgs/D96.png","arrowright","","[""materials/imgs/D46.png"",""materials/imgs/D18.png""]","false","validation","","",""
"","","","","","html-keyboard-response","154","207032","0.0-15.0-0.1-0.7","b2wnzx4aes","","b2wnzx4aes","""2024-11-12T18:59:09.179Z""","null","+","null","","","","","","",""
"","","","","","image-keyboard-response","155","207675","0.0-15.0-0.1-1.7","b2wnzx4aes","","b2wnzx4aes","""2024-11-12T18:59:09.179Z""","638","materials/imgs/D51.png","arrowright","","[""materials/imgs/D111.png"",""materials/imgs/D79.png""]","false","random","","",""
"","","","","","html-keyboard-response","156","208181","0.0-15.0-0.1-0.8","b2wnzx4aes","","b2wnzx4aes","""2024-11-12T18:59:09.179Z""","null","+","null","","","","","","",""
"","","","","","image-keyboard-response","157","209613","0.0-15.0-0.1-1.8","b2wnzx4aes","","b2wnzx4aes","""2024-11-12T18:59:09.179Z""","1428","materials/imgs/D37.png","arrowright","","[""materials/imgs/D95.png"",""materials/imgs/D94.png""]","false","random","","",""
"","","","","","html-keyboard-response","158","210120","0.0-15.0-0.1-0.9","b2wnzx4aes","","b2wnzx4aes","""2024-11-12T18:59:09.179Z""","null","+","null","","","","","","",""
"","","","","","image-keyboard-response","159","211195","0.0-15.0-0.1-1.9","b2wnzx4aes","","b2wnzx4aes","""2024-11-12T18:59:09.179Z""","1070","materials/imgs/D96.png","arrowright","","[""materials/imgs/D82.png"",""materials/imgs/D20.png""]","false","random","","",""
"","","","","","html-keyboard-response","160","211699","0.0-15.0-0.1-0.10","b2wnzx4aes","","b2wnzx4aes","""2024-11-12T18:59:09.179Z""","null","+","null","","","","","","",""
"","","","","","image-keyboard-response","161","212619","0.0-15.0-0.1-1.10","b2wnzx4aes","","b2wnzx4aes","""2024-11-12T18:59:09.179Z""","916","materials/imgs/D51.png","arrowright","","[""materials/imgs/D102.png"",""materials/imgs/D105.png""]","false","random","","",""
"","","","","","html-keyboard-response","162","213134","0.0-15.0-0.1-0.11","b2wnzx4aes","","b2wnzx4aes","""2024-11-12T18:59:09.179Z""","null","+","null","","","","","","",""
"","","","","","image-keyboard-response","163","214216","0.0-15.0-0.1-1.11","b2wnzx4aes","","b2wnzx4aes","""2024-11-12T18:59:09.179Z""","1078","materials/imgs/D9.png","arrowright","","[""materials/imgs/D1.png"",""materials/imgs/D79.png""]","false","random","","",""
"","","","","","html-keyboard-response","164","214725","0.0-15.0-0.1-0.12","b2wnzx4aes","","b2wnzx4aes","""2024-11-12T18:59:09.179Z""","null","+","null","","","","","","",""
"","","","","","image-keyboard-response","165","218152","0.0-15.0-0.1-1.12","b2wnzx4aes","","b2wnzx4aes","""2024-11-12T18:59:09.179Z""","3422","materials/imgs/D11.png","arrowleft","","[""materials/imgs/D6.png"",""materials/imgs/D22.png""]","false","random","","",""
"","","","","","html-keyboard-response","166","218665","0.0-15.0-0.1-0.13","b2wnzx4aes","","b2wnzx4aes","""2024-11-12T18:59:09.179Z""","null","+","null","","","","","","",""
"","","","","","image-keyboard-response","167","219630","0.0-15.0-0.1-1.13","b2wnzx4aes","","b2wnzx4aes","""2024-11-12T18:59:09.179Z""","961","materials/imgs/D64.png","arrowright","","[""materials/imgs/D78.png"",""materials/imgs/D20.png""]","false","random","","",""
"","","","","","html-keyboard-response","168","220132","0.0-15.0-1.1-0.1","b2wnzx4aes","","b2wnzx4aes","""2024-11-12T18:59:09.179Z""","null","+","null","","","","","","",""
"","","","","","image-keyboard-response","169","220692","0.0-15.0-1.1-1.1","b2wnzx4aes","","b2wnzx4aes","""2024-11-12T18:59:09.179Z""","556","materials/imgs/D18.png","arrowright","","[""materials/imgs/D8.png"",""materials/imgs/D18.png""]","","check","materials/imgs/D18.png","1","true"
"","","","","","html-keyboard-response","170","221204","0.0-15.0-2.1-0.2","b2wnzx4aes","","b2wnzx4aes","""2024-11-12T18:59:09.179Z""","null","+","null","","","","","","",""
"","","","","","image-keyboard-response","171","222491","0.0-15.0-2.1-1.2","b2wnzx4aes","","b2wnzx4aes","""2024-11-12T18:59:09.179Z""","1282","materials/imgs/D96.png","arrowright","","[""materials/imgs/D46.png"",""materials/imgs/D18.png""]","false","validation","","",""
"","","","","","html-keyboard-response","172","223002","0.0-15.0-2.1-0.3","b2wnzx4aes","","b2wnzx4aes","""2024-11-12T18:59:09.179Z""","null","+","null","","","","","","",""
"","","","","","image-keyboard-response","173","224421","0.0-15.0-2.1-1.3","b2wnzx4aes","","b2wnzx4aes","""2024-11-12T18:59:09.179Z""","1416","materials/imgs/D82.png","arrowleft","","[""materials/imgs/D83.png"",""materials/imgs/D22.png""]","false","validation","","",""
"","","","","","html-keyboard-response","174","224937","0.0-15.0-0.2-0.14","b2wnzx4aes","","b2wnzx4aes","""2024-11-12T18:59:09.179Z""","null","+","null","","","","","","",""
"","","","","","image-keyboard-response","175","226121","0.0-15.0-0.2-1.14","b2wnzx4aes","","b2wnzx4aes","""2024-11-12T18:59:09.179Z""","1180","materials/imgs/D32.png","arrowright","","[""materials/imgs/D55.png"",""materials/imgs/D101.png""]","false","random","","",""
"","","","","","html-keyboard-response","176","226638","0.0-15.0-0.2-0.15","b2wnzx4aes","","b2wnzx4aes","""2024-11-12T18:59:09.179Z""","null","+","null","","","","","","",""
"","","","","","image-keyboard-response","177","227648","0.0-15.0-0.2-1.15","b2wnzx4aes","","b2wnzx4aes","""2024-11-12T18:59:09.179Z""","1005","materials/imgs/D37.png","arrowleft","","[""materials/imgs/D49.png"",""materials/imgs/D65.png""]","false","random","","",""
"","","","","","html-keyboard-response","178","228152","0.0-15.0-0.2-0.16","b2wnzx4aes","","b2wnzx4aes","""2024-11-12T18:59:09.179Z""","null","+","null","","","","","","",""
"","","","","","image-keyboard-response","179","229964","0.0-15.0-0.2-1.16","b2wnzx4aes","","b2wnzx4aes","""2024-11-12T18:59:09.179Z""","1807","materials/imgs/D92.png","arrowleft","","[""materials/imgs/D6.png"",""materials/imgs/D105.png""]","false","random","","",""
"","","","","","html-keyboard-response","180","230467","0.0-15.0-0.2-0.17","b2wnzx4aes","","b2wnzx4aes","""2024-11-12T18:59:09.179Z""","null","+","null","","","","","","",""
"","","","","","image-keyboard-response","181","231397","0.0-15.0-0.2-1.17","b2wnzx4aes","","b2wnzx4aes","""2024-11-12T18:59:09.179Z""","924","materials/imgs/D64.png","arrowright","","[""materials/imgs/D84.png"",""materials/imgs/D19.png""]","false","random","","",""
"","","","","","html-keyboard-response","182","231901","0.0-15.0-0.2-0.18","b2wnzx4aes","","b2wnzx4aes","""2024-11-12T18:59:09.179Z""","null","+","null","","","","","","",""
"","","","","","image-keyboard-response","183","232537","0.0-15.0-0.2-1.18","b2wnzx4aes","","b2wnzx4aes","""2024-11-12T18:59:09.179Z""","632","materials/imgs/D102.png","arrowright","","[""materials/imgs/D78.png"",""materials/imgs/D52.png""]","false","random","","",""
"","","","","","html-keyboard-response","184","233054","0.0-15.0-0.2-0.19","b2wnzx4aes","","b2wnzx4aes","""2024-11-12T18:59:09.179Z""","null","+","null","","","","","","",""
"","","","","","image-keyboard-response","185","233803","0.0-15.0-0.2-1.19","b2wnzx4aes","","b2wnzx4aes","""2024-11-12T18:59:09.179Z""","744","materials/imgs/D34.png","arrowleft","","[""materials/imgs/D47.png"",""materials/imgs/D82.png""]","false","random","","",""
"","","","","","html-keyboard-response","186","234315","0.0-15.0-0.2-0.20","b2wnzx4aes","","b2wnzx4aes","""2024-11-12T18:59:09.179Z""","null","+","null","","","","","","",""
"","","","","","image-keyboard-response","187","234872","0.0-15.0-0.2-1.20","b2wnzx4aes","","b2wnzx4aes","""2024-11-12T18:59:09.179Z""","553","materials/imgs/D18.png","arrowright","","[""materials/imgs/D105.png"",""materials/imgs/D74.png""]","false","random","","",""
"","","","","","html-keyboard-response","188","235384","0.0-15.0-1.2-0.2","b2wnzx4aes","","b2wnzx4aes","""2024-11-12T18:59:09.179Z""","null","+","null","","","","","","",""
"","","","","","image-keyboard-response","189","240201","0.0-15.0-1.2-1.2","b2wnzx4aes","","b2wnzx4aes","""2024-11-12T18:59:09.179Z""","4812","materials/imgs/D76.png","arrowleft","","[""materials/imgs/D76.png"",""materials/imgs/D78.png""]","","check","materials/imgs/D76.png","0","true"
"","","","","","html-keyboard-response","190","240710","0.0-15.0-2.2-0.4","b2wnzx4aes","","b2wnzx4aes","""2024-11-12T18:59:09.179Z""","null","+","null","","","","","","",""
"","","","","","image-keyboard-response","191","241568","0.0-15.0-2.2-1.4","b2wnzx4aes","","b2wnzx4aes","""2024-11-12T18:59:09.179Z""","853","materials/imgs/D79.png","arrowleft","","[""materials/imgs/D51.png"",""materials/imgs/D64.png""]","false","validation","","",""
"","","","","","html-keyboard-response","192","242080","0.0-15.0-2.2-0.5","b2wnzx4aes","","b2wnzx4aes","""2024-11-12T18:59:09.179Z""","null","+","null","","","","","","",""
"","","","","","image-keyboard-response","193","243420","0.0-15.0-2.2-1.5","b2wnzx4aes","","b2wnzx4aes","""2024-11-12T18:59:09.179Z""","1337","materials/imgs/D84.png","arrowright","","[""materials/imgs/D106.png"",""materials/imgs/D37.png""]","false","validation","","",""
"","","","","","html-keyboard-response","194","243924","0.0-15.0-0.3-0.21","b2wnzx4aes","","b2wnzx4aes","""2024-11-12T18:59:09.179Z""","null","+","null","","","","","","",""
"","","","","","image-keyboard-response","195","245203","0.0-15.0-0.3-1.21","b2wnzx4aes","","b2wnzx4aes","""2024-11-12T18:59:09.179Z""","1276","materials/imgs/D78.png","arrowright","","[""materials/imgs/D111.png"",""materials/imgs/D6.png""]","false","random","","",""
"","","","","","html-keyboard-response","196","245716","0.0-15.0-0.3-0.22","b2wnzx4aes","","b2wnzx4aes","""2024-11-12T18:59:09.179Z""","null","+","null","","","","","","",""
"","","","","","image-keyboard-response","197","246507","0.0-15.0-0.3-1.22","b2wnzx4aes","","b2wnzx4aes","""2024-11-12T18:59:09.179Z""","787","materials/imgs/D111.png","arrowright","","[""materials/imgs/D52.png"",""materials/imgs/D8.png""]","false","random","","",""
"","","","","","html-keyboard-response","198","247011","0.0-15.0-0.3-0.23","b2wnzx4aes","","b2wnzx4aes","""2024-11-12T18:59:09.179Z""","null","+","null","","","","","","",""
"","","","","","image-keyboard-response","199","248258","0.0-15.0-0.3-1.23","b2wnzx4aes","","b2wnzx4aes","""2024-11-12T18:59:09.179Z""","1242","materials/imgs/D8.png","arrowright","","[""materials/imgs/D37.png"",""materials/imgs/D52.png""]","false","random","","",""
"","","","","","html-keyboard-response","200","248773","0.0-15.0-0.3-0.24","b2wnzx4aes","","b2wnzx4aes","""2024-11-12T18:59:09.179Z""","null","+","null","","","","","","",""
"","","","","","image-keyboard-response","201","250620","0.0-15.0-0.3-1.24","b2wnzx4aes","","b2wnzx4aes","""2024-11-12T18:59:09.179Z""","1842","materials/imgs/D51.png","arrowright","","[""materials/imgs/D4.png"",""materials/imgs/D64.png""]","false","random","","",""
"","","","","","html-keyboard-response","202","251134","0.0-15.0-0.3-0.25","b2wnzx4aes","","b2wnzx4aes","""2024-11-12T18:59:09.179Z""","null","+","null","","","","","","",""
"","","","","","image-keyboard-response","203","252333","0.0-15.0-0.3-1.25","b2wnzx4aes","","b2wnzx4aes","""2024-11-12T18:59:09.179Z""","1194","materials/imgs/D65.png","arrowleft","","[""materials/imgs/D20.png"",""materials/imgs/D14.png""]","false","random","","",""
"","","","","","html-keyboard-response","204","252850","0.0-15.0-0.3-0.26","b2wnzx4aes","","b2wnzx4aes","""2024-11-12T18:59:09.179Z""","null","+","null","","","","","","",""
"","","","","","image-keyboard-response","205","254610","0.0-15.0-0.3-1.26","b2wnzx4aes","","b2wnzx4aes","""2024-11-12T18:59:09.179Z""","1756","materials/imgs/D56.png","arrowleft","","[""materials/imgs/D85.png"",""materials/imgs/D77.png""]","false","random","","",""
"","","","","","html-keyboard-response","206","255112","0.0-15.0-0.3-0.27","b2wnzx4aes","","b2wnzx4aes","""2024-11-12T18:59:09.179Z""","null","+","null","","","","","","",""
"","","","","","image-keyboard-response","207","256841","0.0-15.0-0.3-1.27","b2wnzx4aes","","b2wnzx4aes","""2024-11-12T18:59:09.179Z""","1724","materials/imgs/D11.png","arrowleft","","[""materials/imgs/D66.png"",""materials/imgs/D49.png""]","false","random","","",""
"","","","","","html-keyboard-response","208","257349","0.0-15.0-1.3-0.3","b2wnzx4aes","","b2wnzx4aes","""2024-11-12T18:59:09.179Z""","null","+","null","","","","","","",""
"","","","","","image-keyboard-response","209","258089","0.0-15.0-1.3-1.3","b2wnzx4aes","","b2wnzx4aes","""2024-11-12T18:59:09.179Z""","734","materials/imgs/D8.png","arrowright","","[""materials/imgs/D18.png"",""materials/imgs/D8.png""]","","check","materials/imgs/D8.png","1","true"
"","","","","","html-keyboard-response","210","258594","0.0-15.0-2.3-0.6","b2wnzx4aes","","b2wnzx4aes","""2024-11-12T18:59:09.179Z""","null","+","null","","","","","","",""
"","","","","","image-keyboard-response","211","259542","0.0-15.0-2.3-1.6","b2wnzx4aes","","b2wnzx4aes","""2024-11-12T18:59:09.179Z""","944","materials/imgs/D9.png","arrowright","","[""materials/imgs/D103.png"",""materials/imgs/D4.png""]","false","validation","","",""
"","","","","","html-keyboard-response","212","260058","0.0-15.0-2.3-0.7","b2wnzx4aes","","b2wnzx4aes","""2024-11-12T18:59:09.179Z""","null","+","null","","","","","","",""
"","","","","","image-keyboard-response","213","261044","0.0-15.0-2.3-1.7","b2wnzx4aes","","b2wnzx4aes","""2024-11-12T18:59:09.179Z""","983","materials/imgs/D24.png","arrowleft","","[""materials/imgs/D36.png"",""materials/imgs/D8.png""]","false","validation","","",""
"","","","","","html-keyboard-response","214","261553","0.0-15.0-0.4-0.28","b2wnzx4aes","","b2wnzx4aes","""2024-11-12T18:59:09.179Z""","null","+","null","","","","","","",""
"","","","","","image-keyboard-response","215","263994","0.0-15.0-0.4-1.28","b2wnzx4aes","","b2wnzx4aes","""2024-11-12T18:59:09.179Z""","2437","materials/imgs/D68.png","arrowleft","","[""materials/imgs/D80.png"",""materials/imgs/D96.png""]","false","random","","",""
"","","","","","html-keyboard-response","216","264497","0.0-15.0-0.4-0.29","b2wnzx4aes","","b2wnzx4aes","""2024-11-12T18:59:09.179Z""","null","+","null","","","","","","",""
"","","","","","image-keyboard-response","217","266476","0.0-15.0-0.4-1.29","b2wnzx4aes","","b2wnzx4aes","""2024-11-12T18:59:09.179Z""","1955","materials/imgs/D22.png","arrowleft","","[""materials/imgs/D55.png"",""materials/imgs/D14.png""]","false","random","","",""
"","","","","","html-keyboard-response","218","266988","0.0-15.0-0.4-0.30","b2wnzx4aes","","b2wnzx4aes","""2024-11-12T18:59:09.179Z""","null","+","null","","","","","","",""
"","","","","","image-keyboard-response","219","269039","0.0-15.0-0.4-1.30","b2wnzx4aes","","b2wnzx4aes","""2024-11-12T18:59:09.179Z""","2046","materials/imgs/D24.png","arrowleft","","[""materials/imgs/D84.png"",""materials/imgs/D103.png""]","false","random","","",""
"","","","","","html-keyboard-response","220","269551","0.0-15.0-0.4-0.31","b2wnzx4aes","","b2wnzx4aes","""2024-11-12T18:59:09.179Z""","null","+","null","","","","","","",""
"","","","","","image-keyboard-response","221","273512","0.0-15.0-0.4-1.31","b2wnzx4aes","","b2wnzx4aes","""2024-11-12T18:59:09.179Z""","3955","materials/imgs/D24.png","arrowleft","","[""materials/imgs/D65.png"",""materials/imgs/D79.png""]","false","random","","",""
"","","","","","html-keyboard-response","222","274023","0.0-15.0-0.4-0.32","b2wnzx4aes","","b2wnzx4aes","""2024-11-12T18:59:09.179Z""","null","+","null","","","","","","",""
"","","","","","image-keyboard-response","223","274856","0.0-15.0-0.4-1.32","b2wnzx4aes","","b2wnzx4aes","""2024-11-12T18:59:09.179Z""","828","materials/imgs/D87.png","arrowleft","","[""materials/imgs/D18.png"",""materials/imgs/D21.png""]","false","random","","",""
"","","","","","html-keyboard-response","224","275360","0.0-15.0-0.4-0.33","b2wnzx4aes","","b2wnzx4aes","""2024-11-12T18:59:09.179Z""","null","+","null","","","","","","",""
"","","","","","image-keyboard-response","225","276503","0.0-15.0-0.4-1.33","b2wnzx4aes","","b2wnzx4aes","""2024-11-12T18:59:09.179Z""","1139","materials/imgs/D19.png","arrowright","","[""materials/imgs/D32.png"",""materials/imgs/D84.png""]","false","random","","",""
"","","","","","html-keyboard-response","226","277013","0.0-15.0-0.4-0.34","b2wnzx4aes","","b2wnzx4aes","""2024-11-12T18:59:09.179Z""","null","+","null","","","","","","",""
"","","","","","image-keyboard-response","227","278700","0.0-15.0-0.4-1.34","b2wnzx4aes","","b2wnzx4aes","""2024-11-12T18:59:09.179Z""","1683","materials/imgs/D35.png","arrowleft","","[""materials/imgs/D14.png"",""materials/imgs/D51.png""]","false","random","","",""
"","","","","","html-keyboard-response","228","279215","0.0-15.0-1.4-0.4","b2wnzx4aes","","b2wnzx4aes","""2024-11-12T18:59:09.179Z""","null","+","null","","","","","","",""
"","","","","","image-keyboard-response","229","324954","0.0-15.0-1.4-1.4","b2wnzx4aes","","b2wnzx4aes","""2024-11-12T18:59:09.179Z""","45740","materials/imgs/D8.png","arrowright","","[""materials/imgs/D18.png"",""materials/imgs/D8.png""]","","check","materials/imgs/D8.png","1","true"
"","","","","","html-keyboard-response","230","325467","0.0-15.0-2.4-0.8","b2wnzx4aes","","b2wnzx4aes","""2024-11-12T18:59:09.179Z""","null","+","null","","","","","","",""
"","","","","","image-keyboard-response","231","326800","0.0-15.0-2.4-1.8","b2wnzx4aes","","b2wnzx4aes","""2024-11-12T18:59:09.179Z""","1329","materials/imgs/D111.png","arrowleft","","[""materials/imgs/D82.png"",""materials/imgs/D95.png""]","false","validation","","",""
"","","","","","html-keyboard-response","232","327310","0.0-15.0-2.4-0.9","b2wnzx4aes","","b2wnzx4aes","""2024-11-12T18:59:09.179Z""","null","+","null","","","","","","",""
"","","","","","image-keyboard-response","233","342988","0.0-15.0-2.4-1.9","b2wnzx4aes","","b2wnzx4aes","""2024-11-12T18:59:09.179Z""","15676","materials/imgs/D20.png","arrowright","","[""materials/imgs/D84.png"",""materials/imgs/D85.png""]","false","validation","","",""
"","","","","","html-button-response","234","345703","0.0-16.0","b2wnzx4aes","","b2wnzx4aes","""2024-11-12T18:59:09.179Z""","2713","You have completed 50% of the trials. Please click 'Continue' when you are ready proceed.","0","","","","","","",""
"","","","","","html-keyboard-response","235","346212","0.0-17.0-0.0-0.0","b2wnzx4aes","","b2wnzx4aes","""2024-11-12T18:59:09.179Z""","null","+","null","","","","","","",""
"","","","","","image-keyboard-response","236","347311","0.0-17.0-0.0-1.0","b2wnzx4aes","","b2wnzx4aes","""2024-11-12T18:59:09.179Z""","1095","materials/imgs/D76.png","arrowright","","[""materials/imgs/D94.png"",""materials/imgs/D24.png""]","false","random","","",""
"","","","","","html-keyboard-response","237","347819","0.0-17.0-0.0-0.1","b2wnzx4aes","","b2wnzx4aes","""2024-11-12T18:59:09.179Z""","null","+","null","","","","","","",""
"","","","","","image-keyboard-response","238","349169","0.0-17.0-0.0-1.1","b2wnzx4aes","","b2wnzx4aes","""2024-11-12T18:59:09.179Z""","1347","materials/imgs/D55.png","arrowleft","","[""materials/imgs/D47.png"",""materials/imgs/D106.png""]","false","random","","",""
"","","","","","html-keyboard-response","239","349676","0.0-17.0-0.0-0.2","b2wnzx4aes","","b2wnzx4aes","""2024-11-12T18:59:09.179Z""","null","+","null","","","","","","",""
"","","","","","image-keyboard-response","240","350587","0.0-17.0-0.0-1.2","b2wnzx4aes","","b2wnzx4aes","""2024-11-12T18:59:09.179Z""","906","materials/imgs/D65.png","arrowright","","[""materials/imgs/D3.png"",""materials/imgs/D47.png""]","false","random","","",""
"","","","","","html-keyboard-response","241","351094","0.0-17.0-0.0-0.3","b2wnzx4aes","","b2wnzx4aes","""2024-11-12T18:59:09.179Z""","null","+","null","","","","","","",""
"","","","","","image-keyboard-response","242","352733","0.0-17.0-0.0-1.3","b2wnzx4aes","","b2wnzx4aes","""2024-11-12T18:59:09.179Z""","1635","materials/imgs/D4.png","arrowleft","","[""materials/imgs/D105.png"",""materials/imgs/D76.png""]","false","random","","",""
"","","","","","html-keyboard-response","243","353248","0.0-17.0-0.0-0.4","b2wnzx4aes","","b2wnzx4aes","""2024-11-12T18:59:09.179Z""","null","+","null","","","","","","",""
"","","","","","image-keyboard-response","244","354457","0.0-17.0-0.0-1.4","b2wnzx4aes","","b2wnzx4aes","""2024-11-12T18:59:09.179Z""","1205","materials/imgs/D103.png","arrowleft","","[""materials/imgs/D34.png"",""materials/imgs/D65.png""]","false","random","","",""
"","","","","","html-keyboard-response","245","354968","0.0-17.0-0.0-0.5","b2wnzx4aes","","b2wnzx4aes","""2024-11-12T18:59:09.179Z""","null","+","null","","","","","","",""
"","","","","","image-keyboard-response","246","356089","0.0-17.0-0.0-1.5","b2wnzx4aes","","b2wnzx4aes","""2024-11-12T18:59:09.179Z""","1116","materials/imgs/D103.png","arrowleft","","[""materials/imgs/D79.png"",""materials/imgs/D92.png""]","false","random","","",""
"","","","","","html-keyboard-response","247","356604","0.0-17.0-0.0-0.6","b2wnzx4aes","","b2wnzx4aes","""2024-11-12T18:59:09.179Z""","null","+","null","","","","","","",""
"","","","","","image-keyboard-response","248","358346","0.0-17.0-0.0-1.6","b2wnzx4aes","","b2wnzx4aes","""2024-11-12T18:59:09.179Z""","1737","materials/imgs/D81.png","arrowright","","[""materials/imgs/D34.png"",""materials/imgs/D6.png""]","false","random","","",""
"","","","","","html-keyboard-response","249","358856","0.0-17.0-1.0-0.0","b2wnzx4aes","","b2wnzx4aes","""2024-11-12T18:59:09.179Z""","null","+","null","","","","","","",""
"","","","","","image-keyboard-response","250","359488","0.0-17.0-1.0-1.0","b2wnzx4aes","","b2wnzx4aes","""2024-11-12T18:59:09.179Z""","629","materials/imgs/D78.png","arrowright","","[""materials/imgs/D76.png"",""materials/imgs/D78.png""]","","check","materials/imgs/D78.png","1","true"
"","","","","","html-keyboard-response","251","360003","0.0-17.0-2.0-0.0","b2wnzx4aes","","b2wnzx4aes","""2024-11-12T18:59:09.179Z""","null","+","null","","","","","","",""
"","","","","","image-keyboard-response","252","361266","0.0-17.0-2.0-1.0","b2wnzx4aes","","b2wnzx4aes","""2024-11-12T18:59:09.179Z""","1260","materials/imgs/D106.png","arrowleft","","[""materials/imgs/D57.png"",""materials/imgs/D18.png""]","false","validation","","",""
"","","","","","html-keyboard-response","253","361775","0.0-17.0-2.0-0.1","b2wnzx4aes","","b2wnzx4aes","""2024-11-12T18:59:09.179Z""","null","+","null","","","","","","",""
"","","","","","image-keyboard-response","254","367255","0.0-17.0-2.0-1.1","b2wnzx4aes","","b2wnzx4aes","""2024-11-12T18:59:09.179Z""","5476","materials/imgs/D16.png","arrowleft","","[""materials/imgs/D52.png"",""materials/imgs/D25.png""]","false","validation","","",""
"","","","","","html-keyboard-response","255","367761","0.0-17.0-0.1-0.7","b2wnzx4aes","","b2wnzx4aes","""2024-11-12T18:59:09.179Z""","null","+","null","","","","","","",""
"","","","","","image-keyboard-response","256","368753","0.0-17.0-0.1-1.7","b2wnzx4aes","","b2wnzx4aes","""2024-11-12T18:59:09.179Z""","988","materials/imgs/D74.png","arrowright","","[""materials/imgs/D55.png"",""materials/imgs/D84.png""]","false","random","","",""
"","","","","","html-keyboard-response","257","369269","0.0-17.0-0.1-0.8","b2wnzx4aes","","b2wnzx4aes","""2024-11-12T18:59:09.179Z""","null","+","null","","","","","","",""
"","","","","","image-keyboard-response","258","369956","0.0-17.0-0.1-1.8","b2wnzx4aes","","b2wnzx4aes","""2024-11-12T18:59:09.179Z""","682","materials/imgs/D81.png","arrowright","","[""materials/imgs/D48.png"",""materials/imgs/D85.png""]","false","random","","",""
"","","","","","html-keyboard-response","259","370464","0.0-17.0-0.1-0.9","b2wnzx4aes","","b2wnzx4aes","""2024-11-12T18:59:09.179Z""","null","+","null","","","","","","",""
"","","","","","image-keyboard-response","260","371694","0.0-17.0-0.1-1.9","b2wnzx4aes","","b2wnzx4aes","""2024-11-12T18:59:09.179Z""","1226","materials/imgs/D56.png","arrowright","","[""materials/imgs/D75.png"",""materials/imgs/D74.png""]","false","random","","",""
"","","","","","html-keyboard-response","261","372210","0.0-17.0-0.1-0.10","b2wnzx4aes","","b2wnzx4aes","""2024-11-12T18:59:09.179Z""","null","+","null","","","","","","",""
"","","","","","image-keyboard-response","262","372749","0.0-17.0-0.1-1.10","b2wnzx4aes","","b2wnzx4aes","""2024-11-12T18:59:09.179Z""","535","materials/imgs/D36.png","arrowright","","[""materials/imgs/D66.png"",""materials/imgs/D6.png""]","false","random","","",""
"","","","","","html-keyboard-response","263","373265","0.0-17.0-0.1-0.11","b2wnzx4aes","","b2wnzx4aes","""2024-11-12T18:59:09.179Z""","null","+","null","","","","","","",""
"","","","","","image-keyboard-response","264","374757","0.0-17.0-0.1-1.11","b2wnzx4aes","","b2wnzx4aes","""2024-11-12T18:59:09.179Z""","1487","materials/imgs/D1.png","arrowleft","","[""materials/imgs/D105.png"",""materials/imgs/D34.png""]","false","random","","",""
"","","","","","html-keyboard-response","265","375261","0.0-17.0-0.1-0.12","b2wnzx4aes","","b2wnzx4aes","""2024-11-12T18:59:09.179Z""","null","+","null","","","","","","",""
"","","","","","image-keyboard-response","266","376504","0.0-17.0-0.1-1.12","b2wnzx4aes","","b2wnzx4aes","""2024-11-12T18:59:09.179Z""","1238","materials/imgs/D55.png","arrowright","","[""materials/imgs/D24.png"",""materials/imgs/D80.png""]","false","random","","",""
"","","","","","html-keyboard-response","267","377019","0.0-17.0-0.1-0.13","b2wnzx4aes","","b2wnzx4aes","""2024-11-12T18:59:09.179Z""","null","+","null","","","","","","",""
"","","","","","image-keyboard-response","268","378063","0.0-17.0-0.1-1.13","b2wnzx4aes","","b2wnzx4aes","""2024-11-12T18:59:09.179Z""","1040","materials/imgs/D19.png","arrowright","","[""materials/imgs/D52.png"",""materials/imgs/D104.png""]","false","random","","",""
"","","","","","html-keyboard-response","269","378576","0.0-17.0-1.1-0.1","b2wnzx4aes","","b2wnzx4aes","""2024-11-12T18:59:09.179Z""","null","+","null","","","","","","",""
"","","","","","image-keyboard-response","270","379249","0.0-17.0-1.1-1.1","b2wnzx4aes","","b2wnzx4aes","""2024-11-12T18:59:09.179Z""","670","materials/imgs/D26.png","arrowleft","","[""materials/imgs/D26.png"",""materials/imgs/D46.png""]","","check","materials/imgs/D26.png","0","true"
"","","","","","html-keyboard-response","271","379756","0.0-17.0-2.1-0.2","b2wnzx4aes","","b2wnzx4aes","""2024-11-12T18:59:09.179Z""","null","+","null","","","","","","",""
"","","","","","image-keyboard-response","272","380843","0.0-17.0-2.1-1.2","b2wnzx4aes","","b2wnzx4aes","""2024-11-12T18:59:09.179Z""","1084","materials/imgs/D95.png","arrowleft","","[""materials/imgs/D36.png"",""materials/imgs/D4.png""]","false","validation","","",""
"","","","","","html-keyboard-response","273","381359","0.0-17.0-2.1-0.3","b2wnzx4aes","","b2wnzx4aes","""2024-11-12T18:59:09.179Z""","null","+","null","","","","","","",""
"","","","","","image-keyboard-response","274","382883","0.0-17.0-2.1-1.3","b2wnzx4aes","","b2wnzx4aes","""2024-11-12T18:59:09.179Z""","1520","materials/imgs/D84.png","arrowleft","","[""materials/imgs/D106.png"",""materials/imgs/D37.png""]","false","validation","","",""
"","","","","","html-keyboard-response","275","383387","0.0-17.0-0.2-0.14","b2wnzx4aes","","b2wnzx4aes","""2024-11-12T18:59:09.179Z""","null","+","null","","","","","","",""
"","","","","","image-keyboard-response","276","393454","0.0-17.0-0.2-1.14","b2wnzx4aes","","b2wnzx4aes","""2024-11-12T18:59:09.179Z""","10068","materials/imgs/D11.png","arrowleft","","[""materials/imgs/D20.png"",""materials/imgs/D1.png""]","false","random","","",""
"","","","","","html-keyboard-response","277","393960","0.0-17.0-0.2-0.15","b2wnzx4aes","","b2wnzx4aes","""2024-11-12T18:59:09.179Z""","null","+","null","","","","","","",""
"","","","","","image-keyboard-response","278","395465","0.0-17.0-0.2-1.15","b2wnzx4aes","","b2wnzx4aes","""2024-11-12T18:59:09.179Z""","1500","materials/imgs/D68.png","arrowright","","[""materials/imgs/D35.png"",""materials/imgs/D103.png""]","false","random","","",""
"","","","","","html-keyboard-response","279","395972","0.0-17.0-0.2-0.16","b2wnzx4aes","","b2wnzx4aes","""2024-11-12T18:59:09.179Z""","null","+","null","","","","","","",""
"","","","","","image-keyboard-response","280","403755","0.0-17.0-0.2-1.16","b2wnzx4aes","","b2wnzx4aes","""2024-11-12T18:59:09.179Z""","7779","materials/imgs/D78.png","arrowright","","[""materials/imgs/D16.png"",""materials/imgs/D83.png""]","false","random","","",""
"","","","","","html-keyboard-response","281","404268","0.0-17.0-0.2-0.17","b2wnzx4aes","","b2wnzx4aes","""2024-11-12T18:59:09.179Z""","null","+","null","","","","","","",""
"","","","","","image-keyboard-response","282","405078","0.0-17.0-0.2-1.17","b2wnzx4aes","","b2wnzx4aes","""2024-11-12T18:59:09.179Z""","806","materials/imgs/D48.png","arrowleft","","[""materials/imgs/D111.png"",""materials/imgs/D24.png""]","false","random","","",""
"","","","","","html-keyboard-response","283","405587","0.0-17.0-0.2-0.18","b2wnzx4aes","","b2wnzx4aes","""2024-11-12T18:59:09.179Z""","null","+","null","","","","","","",""
"","","","","","image-keyboard-response","284","407111","0.0-17.0-0.2-1.18","b2wnzx4aes","","b2wnzx4aes","""2024-11-12T18:59:09.179Z""","1520","materials/imgs/D64.png","arrowleft","","[""materials/imgs/D111.png"",""materials/imgs/D37.png""]","false","random","","",""
"","","","","","html-keyboard-response","285","407615","0.0-17.0-0.2-0.19","b2wnzx4aes","","b2wnzx4aes","""2024-11-12T18:59:09.179Z""","null","+","null","","","","","","",""
"","","","","","image-keyboard-response","286","408728","0.0-17.0-0.2-1.19","b2wnzx4aes","","b2wnzx4aes","""2024-11-12T18:59:09.179Z""","1108","materials/imgs/D80.png","arrowright","","[""materials/imgs/D76.png"",""materials/imgs/D55.png""]","false","random","","",""
"","","","","","html-keyboard-response","287","409234","0.0-17.0-0.2-0.20","b2wnzx4aes","","b2wnzx4aes","""2024-11-12T18:59:09.179Z""","null","+","null","","","","","","",""
"","","","","","image-keyboard-response","288","410165","0.0-17.0-0.2-1.20","b2wnzx4aes","","b2wnzx4aes","""2024-11-12T18:59:09.179Z""","926","materials/imgs/D96.png","arrowright","","[""materials/imgs/D68.png"",""materials/imgs/D101.png""]","false","random","","",""
"","","","","","html-keyboard-response","289","410680","0.0-17.0-1.2-0.2","b2wnzx4aes","","b2wnzx4aes","""2024-11-12T18:59:09.179Z""","null","+","null","","","","","","",""
"","","","","","image-keyboard-response","290","411242","0.0-17.0-1.2-1.2","b2wnzx4aes","","b2wnzx4aes","""2024-11-12T18:59:09.179Z""","559","materials/imgs/D76.png","arrowleft","","[""materials/imgs/D76.png"",""materials/imgs/D78.png""]","","check","materials/imgs/D76.png","0","true"
"","","","","","html-keyboard-response","291","411749","0.0-17.0-2.2-0.4","b2wnzx4aes","","b2wnzx4aes","""2024-11-12T18:59:09.179Z""","null","+","null","","","","","","",""
"","","","","","image-keyboard-response","292","413070","0.0-17.0-2.2-1.4","b2wnzx4aes","","b2wnzx4aes","""2024-11-12T18:59:09.179Z""","1317","materials/imgs/D68.png","arrowleft","","[""materials/imgs/D96.png"",""materials/imgs/D48.png""]","false","validation","","",""
"","","","","","html-keyboard-response","293","413575","0.0-17.0-2.2-0.5","b2wnzx4aes","","b2wnzx4aes","""2024-11-12T18:59:09.179Z""","null","+","null","","","","","","",""
"","","","","","image-keyboard-response","294","414845","0.0-17.0-2.2-1.5","b2wnzx4aes","","b2wnzx4aes","""2024-11-12T18:59:09.179Z""","1267","materials/imgs/D51.png","arrowleft","","[""materials/imgs/D92.png"",""materials/imgs/D20.png""]","false","validation","","",""
"","","","","","html-keyboard-response","295","415351","0.0-17.0-0.3-0.21","b2wnzx4aes","","b2wnzx4aes","""2024-11-12T18:59:09.179Z""","null","+","null","","","","","","",""
"","","","","","image-keyboard-response","296","416255","0.0-17.0-0.3-1.21","b2wnzx4aes","","b2wnzx4aes","""2024-11-12T18:59:09.179Z""","900","materials/imgs/D102.png","arrowleft","","[""materials/imgs/D20.png"",""materials/imgs/D32.png""]","false","random","","",""
"","","","","","html-keyboard-response","297","416768","0.0-17.0-0.3-0.22","b2wnzx4aes","","b2wnzx4aes","""2024-11-12T18:59:09.179Z""","null","+","null","","","","","","",""
"","","","","","image-keyboard-response","298","417357","0.0-17.0-0.3-1.22","b2wnzx4aes","","b2wnzx4aes","""2024-11-12T18:59:09.179Z""","586","materials/imgs/D81.png","arrowleft","","[""materials/imgs/D24.png"",""materials/imgs/D1.png""]","false","random","","",""
"","","","","","html-keyboard-response","299","417871","0.0-17.0-0.3-0.23","b2wnzx4aes","","b2wnzx4aes","""2024-11-12T18:59:09.179Z""","null","+","null","","","","","","",""
"","","","","","image-keyboard-response","300","418872","0.0-17.0-0.3-1.23","b2wnzx4aes","","b2wnzx4aes","""2024-11-12T18:59:09.179Z""","997","materials/imgs/D19.png","arrowleft","","[""materials/imgs/D46.png"",""materials/imgs/D21.png""]","false","random","","",""
"","","","","","html-keyboard-response","301","419380","0.0-17.0-0.3-0.24","b2wnzx4aes","","b2wnzx4aes","""2024-11-12T18:59:09.179Z""","null","+","null","","","","","","",""
"","","","","","image-keyboard-response","302","420172","0.0-17.0-0.3-1.24","b2wnzx4aes","","b2wnzx4aes","""2024-11-12T18:59:09.179Z""","790","materials/imgs/D83.png","arrowright","","[""materials/imgs/D74.png"",""materials/imgs/D56.png""]","false","random","","",""
"","","","","","html-keyboard-response","303","420687","0.0-17.0-0.3-0.25","b2wnzx4aes","","b2wnzx4aes","""2024-11-12T18:59:09.179Z""","null","+","null","","","","","","",""
"","","","","","image-keyboard-response","304","421840","0.0-17.0-0.3-1.25","b2wnzx4aes","","b2wnzx4aes","""2024-11-12T18:59:09.179Z""","1149","materials/imgs/D8.png","arrowright","","[""materials/imgs/D68.png"",""materials/imgs/D92.png""]","false","random","","",""
"","","","","","html-keyboard-response","305","422356","0.0-17.0-0.3-0.26","b2wnzx4aes","","b2wnzx4aes","""2024-11-12T18:59:09.179Z""","null","+","null","","","","","","",""
"","","","","","image-keyboard-response","306","423722","0.0-17.0-0.3-1.26","b2wnzx4aes","","b2wnzx4aes","""2024-11-12T18:59:09.179Z""","1361","materials/imgs/D37.png","arrowleft","","[""materials/imgs/D105.png"",""materials/imgs/D92.png""]","false","random","","",""
"","","","","","html-keyboard-response","307","424227","0.0-17.0-0.3-0.27","b2wnzx4aes","","b2wnzx4aes","""2024-11-12T18:59:09.179Z""","null","+","null","","","","","","",""
"","","","","","image-keyboard-response","308","425285","0.0-17.0-0.3-1.27","b2wnzx4aes","","b2wnzx4aes","""2024-11-12T18:59:09.179Z""","1054","materials/imgs/D82.png","arrowright","","[""materials/imgs/D76.png"",""materials/imgs/D22.png""]","false","random","","",""
"","","","","","html-keyboard-response","309","425799","0.0-17.0-1.3-0.3","b2wnzx4aes","","b2wnzx4aes","""2024-11-12T18:59:09.179Z""","null","+","null","","","","","","",""
"","","","","","image-keyboard-response","310","426871","0.0-17.0-1.3-1.3","b2wnzx4aes","","b2wnzx4aes","""2024-11-12T18:59:09.179Z""","1069","materials/imgs/D106.png","arrowleft","","[""materials/imgs/D106.png"",""materials/imgs/D101.png""]","","check","materials/imgs/D106.png","0","true"
"","","","","","html-keyboard-response","311","427385","0.0-17.0-2.3-0.6","b2wnzx4aes","","b2wnzx4aes","""2024-11-12T18:59:09.179Z""","null","+","null","","","","","","",""
"","","","","","image-keyboard-response","312","428571","0.0-17.0-2.3-1.6","b2wnzx4aes","","b2wnzx4aes","""2024-11-12T18:59:09.179Z""","1182","materials/imgs/D16.png","arrowleft","","[""materials/imgs/D52.png"",""materials/imgs/D25.png""]","false","validation","","",""
"","","","","","html-keyboard-response","313","429082","0.0-17.0-2.3-0.7","b2wnzx4aes","","b2wnzx4aes","""2024-11-12T18:59:09.179Z""","null","+","null","","","","","","",""
"","","","","","image-keyboard-response","314","430033","0.0-17.0-2.3-1.7","b2wnzx4aes","","b2wnzx4aes","""2024-11-12T18:59:09.179Z""","947","materials/imgs/D4.png","arrowleft","","[""materials/imgs/D52.png"",""materials/imgs/D83.png""]","false","validation","","",""
"","","","","","html-keyboard-response","315","430549","0.0-17.0-0.4-0.28","b2wnzx4aes","","b2wnzx4aes","""2024-11-12T18:59:09.179Z""","null","+","null","","","","","","",""
"","","","","","image-keyboard-response","316","431339","0.0-17.0-0.4-1.28","b2wnzx4aes","","b2wnzx4aes","""2024-11-12T18:59:09.179Z""","786","materials/imgs/D3.png","arrowright","","[""materials/imgs/D68.png"",""materials/imgs/D29.png""]","false","random","","",""
"","","","","","html-keyboard-response","317","431853","0.0-17.0-0.4-0.29","b2wnzx4aes","","b2wnzx4aes","""2024-11-12T18:59:09.179Z""","null","+","null","","","","","","",""
"","","","","","image-keyboard-response","318","433380","0.0-17.0-0.4-1.29","b2wnzx4aes","","b2wnzx4aes","""2024-11-12T18:59:09.179Z""","1522","materials/imgs/D21.png","arrowright","","[""materials/imgs/D46.png"",""materials/imgs/D1.png""]","false","random","","",""
"","","","","","html-keyboard-response","319","433882","0.0-17.0-0.4-0.30","b2wnzx4aes","","b2wnzx4aes","""2024-11-12T18:59:09.179Z""","null","+","null","","","","","","",""
"","","","","","image-keyboard-response","320","435124","0.0-17.0-0.4-1.30","b2wnzx4aes","","b2wnzx4aes","""2024-11-12T18:59:09.179Z""","1238","materials/imgs/D56.png","arrowright","","[""materials/imgs/D103.png"",""materials/imgs/D84.png""]","false","random","","",""
"","","","","","html-keyboard-response","321","435629","0.0-17.0-0.4-0.31","b2wnzx4aes","","b2wnzx4aes","""2024-11-12T18:59:09.179Z""","null","+","null","","","","","","",""
"","","","","","image-keyboard-response","322","436608","0.0-17.0-0.4-1.31","b2wnzx4aes","","b2wnzx4aes","""2024-11-12T18:59:09.179Z""","976","materials/imgs/D53.png","arrowright","","[""materials/imgs/D66.png"",""materials/imgs/D82.png""]","false","random","","",""
"","","","","","html-keyboard-response","323","437121","0.0-17.0-0.4-0.32","b2wnzx4aes","","b2wnzx4aes","""2024-11-12T18:59:09.179Z""","null","+","null","","","","","","",""
"","","","","","image-keyboard-response","324","437985","0.0-17.0-0.4-1.32","b2wnzx4aes","","b2wnzx4aes","""2024-11-12T18:59:09.179Z""","861","materials/imgs/D83.png","arrowright","","[""materials/imgs/D47.png"",""materials/imgs/D84.png""]","false","random","","",""
"","","","","","html-keyboard-response","325","438491","0.0-17.0-0.4-0.33","b2wnzx4aes","","b2wnzx4aes","""2024-11-12T18:59:09.179Z""","null","+","null","","","","","","",""
"","","","","","image-keyboard-response","326","439193","0.0-17.0-0.4-1.33","b2wnzx4aes","","b2wnzx4aes","""2024-11-12T18:59:09.179Z""","697","materials/imgs/D83.png","arrowleft","","[""materials/imgs/D81.png"",""materials/imgs/D66.png""]","false","random","","",""
"","","","","","html-keyboard-response","327","439703","0.0-17.0-0.4-0.34","b2wnzx4aes","","b2wnzx4aes","""2024-11-12T18:59:09.179Z""","null","+","null","","","","","","",""
"","","","","","image-keyboard-response","328","440520","0.0-17.0-0.4-1.34","b2wnzx4aes","","b2wnzx4aes","""2024-11-12T18:59:09.179Z""","812","materials/imgs/D68.png","arrowleft","","[""materials/imgs/D81.png"",""materials/imgs/D65.png""]","false","random","","",""
"","","","","","html-keyboard-response","329","441034","0.0-17.0-1.4-0.4","b2wnzx4aes","","b2wnzx4aes","""2024-11-12T18:59:09.179Z""","null","+","null","","","","","","",""
"","","","","","image-keyboard-response","330","444602","0.0-17.0-1.4-1.4","b2wnzx4aes","","b2wnzx4aes","""2024-11-12T18:59:09.179Z""","3565","materials/imgs/D64.png","arrowleft","","[""materials/imgs/D64.png"",""materials/imgs/D53.png""]","","check","materials/imgs/D64.png","0","true"
"","","","","","html-keyboard-response","331","445111","0.0-17.0-2.4-0.8","b2wnzx4aes","","b2wnzx4aes","""2024-11-12T18:59:09.179Z""","null","+","null","","","","","","",""
"","","","","","image-keyboard-response","332","445831","0.0-17.0-2.4-1.8","b2wnzx4aes","","b2wnzx4aes","""2024-11-12T18:59:09.179Z""","716","materials/imgs/D92.png","arrowright","","[""materials/imgs/D56.png"",""materials/imgs/D77.png""]","false","validation","","",""
"","","","","","html-keyboard-response","333","446337","0.0-17.0-2.4-0.9","b2wnzx4aes","","b2wnzx4aes","""2024-11-12T18:59:09.179Z""","null","+","null","","","","","","",""
"","","","","","image-keyboard-response","334","447429","0.0-17.0-2.4-1.9","b2wnzx4aes","","b2wnzx4aes","""2024-11-12T18:59:09.179Z""","1088","materials/imgs/D1.png","arrowleft","","[""materials/imgs/D57.png"",""materials/imgs/D76.png""]","false","validation","","",""
"","","","","","html-button-response","335","449438","0.0-18.0","b2wnzx4aes","","b2wnzx4aes","""2024-11-12T18:59:09.179Z""","2007","You have completed 75% of the trials. Please click 'Continue' when you are ready proceed.","0","","","","","","",""
"","","","","","html-keyboard-response","336","449955","0.0-19.0-0.0-0.0","b2wnzx4aes","","b2wnzx4aes","""2024-11-12T18:59:09.179Z""","null","+","null","","","","","","",""
"","","","","","image-keyboard-response","337","452473","0.0-19.0-0.0-1.0","b2wnzx4aes","","b2wnzx4aes","""2024-11-12T18:59:09.179Z""","2514","materials/imgs/D76.png","arrowright","","[""materials/imgs/D68.png"",""materials/imgs/D82.png""]","false","random","","",""
"","","","","","html-keyboard-response","338","452988","0.0-19.0-0.0-0.1","b2wnzx4aes","","b2wnzx4aes","""2024-11-12T18:59:09.179Z""","null","+","null","","","","","","",""
"","","","","","image-keyboard-response","339","454364","0.0-19.0-0.0-1.1","b2wnzx4aes","","b2wnzx4aes","""2024-11-12T18:59:09.179Z""","1367","materials/imgs/D47.png","arrowleft","","[""materials/imgs/D9.png"",""materials/imgs/D101.png""]","false","random","","",""
"","","","","","html-keyboard-response","340","454880","0.0-19.0-0.0-0.2","b2wnzx4aes","","b2wnzx4aes","""2024-11-12T18:59:09.179Z""","null","+","null","","","","","","",""
"","","","","","image-keyboard-response","341","494322","0.0-19.0-0.0-1.2","b2wnzx4aes","","b2wnzx4aes","""2024-11-12T18:59:09.179Z""","39438","materials/imgs/D17.png","arrowright","","[""materials/imgs/D64.png"",""materials/imgs/D56.png""]","false","random","","",""
"","","","","","html-keyboard-response","342","494835","0.0-19.0-0.0-0.3","b2wnzx4aes","","b2wnzx4aes","""2024-11-12T18:59:09.179Z""","null","+","null","","","","","","",""
"","","","","","image-keyboard-response","343","495679","0.0-19.0-0.0-1.3","b2wnzx4aes","","b2wnzx4aes","""2024-11-12T18:59:09.179Z""","840","materials/imgs/D92.png","arrowleft","","[""materials/imgs/D18.png"",""materials/imgs/D48.png""]","false","random","","",""
"","","","","","html-keyboard-response","344","496187","0.0-19.0-0.0-0.4","b2wnzx4aes","","b2wnzx4aes","""2024-11-12T18:59:09.179Z""","null","+","null","","","","","","",""
"","","","","","image-keyboard-response","345","496858","0.0-19.0-0.0-1.4","b2wnzx4aes","","b2wnzx4aes","""2024-11-12T18:59:09.179Z""","651","materials/imgs/D82.png","arrowleft","","[""materials/imgs/D14.png"",""materials/imgs/D1.png""]","false","random","","",""
"","","","","","html-keyboard-response","346","497367","0.0-19.0-0.0-0.5","b2wnzx4aes","","b2wnzx4aes","""2024-11-12T18:59:09.179Z""","null","+","null","","","","","","",""
"","","","","","image-keyboard-response","347","498189","0.0-19.0-0.0-1.5","b2wnzx4aes","","b2wnzx4aes","""2024-11-12T18:59:09.179Z""","818","materials/imgs/D26.png","arrowright","","[""materials/imgs/D55.png"",""materials/imgs/D20.png""]","false","random","","",""
"","","","","","html-keyboard-response","348","498701","0.0-19.0-0.0-0.6","b2wnzx4aes","","b2wnzx4aes","""2024-11-12T18:59:09.179Z""","null","+","null","","","","","","",""
"","","","","","image-keyboard-response","349","499430","0.0-19.0-0.0-1.6","b2wnzx4aes","","b2wnzx4aes","""2024-11-12T18:59:09.179Z""","728","materials/imgs/D102.png","arrowright","","[""materials/imgs/D106.png"",""materials/imgs/D19.png""]","false","random","","",""
"","","","","","html-keyboard-response","350","499945","0.0-19.0-1.0-0.0","b2wnzx4aes","","b2wnzx4aes","""2024-11-12T18:59:09.179Z""","null","+","null","","","","","","",""
"","","","","","image-keyboard-response","351","500482","0.0-19.0-1.0-1.0","b2wnzx4aes","","b2wnzx4aes","""2024-11-12T18:59:09.179Z""","535","materials/imgs/D76.png","arrowleft","","[""materials/imgs/D76.png"",""materials/imgs/D78.png""]","","check","materials/imgs/D76.png","0","true"
"","","","","","html-keyboard-response","352","500998","0.0-19.0-2.0-0.0","b2wnzx4aes","","b2wnzx4aes","""2024-11-12T18:59:09.179Z""","null","+","null","","","","","","",""
"","","","","","image-keyboard-response","353","501868","0.0-19.0-2.0-1.0","b2wnzx4aes","","b2wnzx4aes","""2024-11-12T18:59:09.179Z""","868","materials/imgs/D46.png","arrowleft","","[""materials/imgs/D92.png"",""materials/imgs/D77.png""]","false","validation","","",""
"","","","","","html-keyboard-response","354","502383","0.0-19.0-2.0-0.1","b2wnzx4aes","","b2wnzx4aes","""2024-11-12T18:59:09.179Z""","null","+","null","","","","","","",""
"","","","","","image-keyboard-response","355","502890","0.0-19.0-2.0-1.1","b2wnzx4aes","","b2wnzx4aes","""2024-11-12T18:59:09.179Z""","503","materials/imgs/D53.png","arrowleft","","[""materials/imgs/D77.png"",""materials/imgs/D75.png""]","false","validation","","",""
"","","","","","html-keyboard-response","356","503405","0.0-19.0-0.1-0.7","b2wnzx4aes","","b2wnzx4aes","""2024-11-12T18:59:09.179Z""","null","+","null","","","","","","",""
"","","","","","image-keyboard-response","357","505435","0.0-19.0-0.1-1.7","b2wnzx4aes","","b2wnzx4aes","""2024-11-12T18:59:09.179Z""","2025","materials/imgs/D36.png","arrowright","","[""materials/imgs/D16.png"",""materials/imgs/D21.png""]","false","random","","",""
"","","","","","html-keyboard-response","358","505949","0.0-19.0-0.1-0.8","b2wnzx4aes","","b2wnzx4aes","""2024-11-12T18:59:09.179Z""","null","+","null","","","","","","",""
"","","","","","image-keyboard-response","359","506480","0.0-19.0-0.1-1.8","b2wnzx4aes","","b2wnzx4aes","""2024-11-12T18:59:09.179Z""","526","materials/imgs/D105.png","arrowleft","","[""materials/imgs/D79.png"",""materials/imgs/D9.png""]","false","random","","",""
"","","","","","html-keyboard-response","360","506985","0.0-19.0-0.1-0.9","b2wnzx4aes","","b2wnzx4aes","""2024-11-12T18:59:09.179Z""","null","+","null","","","","","","",""
"","","","","","image-keyboard-response","361","508150","0.0-19.0-0.1-1.9","b2wnzx4aes","","b2wnzx4aes","""2024-11-12T18:59:09.179Z""","1162","materials/imgs/D103.png","arrowleft","","[""materials/imgs/D52.png"",""materials/imgs/D21.png""]","false","random","","",""
"","","","","","html-keyboard-response","362","508666","0.0-19.0-0.1-0.10","b2wnzx4aes","","b2wnzx4aes","""2024-11-12T18:59:09.179Z""","null","+","null","","","","","","",""
"","","","","","image-keyboard-response","363","510575","0.0-19.0-0.1-1.10","b2wnzx4aes","","b2wnzx4aes","""2024-11-12T18:59:09.179Z""","1904","materials/imgs/D96.png","arrowright","","[""materials/imgs/D111.png"",""materials/imgs/D36.png""]","false","random","","",""
"","","","","","html-keyboard-response","364","511090","0.0-19.0-0.1-0.11","b2wnzx4aes","","b2wnzx4aes","""2024-11-12T18:59:09.179Z""","null","+","null","","","","","","",""
"","","","","","image-keyboard-response","365","513347","0.0-19.0-0.1-1.11","b2wnzx4aes","","b2wnzx4aes","""2024-11-12T18:59:09.179Z""","2252","materials/imgs/D103.png","arrowleft","","[""materials/imgs/D56.png"",""materials/imgs/D48.png""]","false","random","","",""
"","","","","","html-keyboard-response","366","513860","0.0-19.0-0.1-0.12","b2wnzx4aes","","b2wnzx4aes","""2024-11-12T18:59:09.179Z""","null","+","null","","","","","","",""
"","","","","","image-keyboard-response","367","514695","0.0-19.0-0.1-1.12","b2wnzx4aes","","b2wnzx4aes","""2024-11-12T18:59:09.179Z""","831","materials/imgs/D16.png","arrowleft","","[""materials/imgs/D84.png"",""materials/imgs/D35.png""]","false","random","","",""
"","","","","","html-keyboard-response","368","515210","0.0-19.0-0.1-0.13","b2wnzx4aes","","b2wnzx4aes","""2024-11-12T18:59:09.179Z""","null","+","null","","","","","","",""
"","","","","","image-keyboard-response","369","518463","0.0-19.0-0.1-1.13","b2wnzx4aes","","b2wnzx4aes","""2024-11-12T18:59:09.179Z""","3249","materials/imgs/D64.png","arrowleft","","[""materials/imgs/D26.png"",""materials/imgs/D8.png""]","false","random","","",""
"","","","","","html-keyboard-response","370","518974","0.0-19.0-1.1-0.1","b2wnzx4aes","","b2wnzx4aes","""2024-11-12T18:59:09.179Z""","null","+","null","","","","","","",""
"","","","","","image-keyboard-response","371","519706","0.0-19.0-1.1-1.1","b2wnzx4aes","","b2wnzx4aes","""2024-11-12T18:59:09.179Z""","728","materials/imgs/D106.png","arrowleft","","[""materials/imgs/D106.png"",""materials/imgs/D101.png""]","","check","materials/imgs/D106.png","0","true"
"","","","","","html-keyboard-response","372","520215","0.0-19.0-2.1-0.2","b2wnzx4aes","","b2wnzx4aes","""2024-11-12T18:59:09.179Z""","null","+","null","","","","","","",""
"","","","","","image-keyboard-response","373","521247","0.0-19.0-2.1-1.2","b2wnzx4aes","","b2wnzx4aes","""2024-11-12T18:59:09.179Z""","1029","materials/imgs/D81.png","arrowright","","[""materials/imgs/D105.png"",""materials/imgs/D24.png""]","false","validation","","",""
"","","","","","html-keyboard-response","374","521755","0.0-19.0-2.1-0.3","b2wnzx4aes","","b2wnzx4aes","""2024-11-12T18:59:09.179Z""","null","+","null","","","","","","",""
"","","","","","image-keyboard-response","375","522657","0.0-19.0-2.1-1.3","b2wnzx4aes","","b2wnzx4aes","""2024-11-12T18:59:09.179Z""","899","materials/imgs/D37.png","arrowleft","","[""materials/imgs/D84.png"",""materials/imgs/D111.png""]","false","validation","","",""
"","","","","","html-keyboard-response","376","523171","0.0-19.0-0.2-0.14","b2wnzx4aes","","b2wnzx4aes","""2024-11-12T18:59:09.179Z""","null","+","null","","","","","","",""
"","","","","","image-keyboard-response","377","524523","0.0-19.0-0.2-1.14","b2wnzx4aes","","b2wnzx4aes","""2024-11-12T18:59:09.179Z""","1347","materials/imgs/D87.png","arrowleft","","[""materials/imgs/D85.png"",""materials/imgs/D102.png""]","false","random","","",""
"","","","","","html-keyboard-response","378","525028","0.0-19.0-0.2-0.15","b2wnzx4aes","","b2wnzx4aes","""2024-11-12T18:59:09.179Z""","null","+","null","","","","","","",""
"","","","","","image-keyboard-response","379","525807","0.0-19.0-0.2-1.15","b2wnzx4aes","","b2wnzx4aes","""2024-11-12T18:59:09.179Z""","775","materials/imgs/D64.png","arrowleft","","[""materials/imgs/D32.png"",""materials/imgs/D52.png""]","false","random","","",""
"","","","","","html-keyboard-response","380","526317","0.0-19.0-0.2-0.16","b2wnzx4aes","","b2wnzx4aes","""2024-11-12T18:59:09.179Z""","null","+","null","","","","","","",""
"","","","","","image-keyboard-response","381","527349","0.0-19.0-0.2-1.16","b2wnzx4aes","","b2wnzx4aes","""2024-11-12T18:59:09.179Z""","1027","materials/imgs/D92.png","arrowright","","[""materials/imgs/D101.png"",""materials/imgs/D6.png""]","false","random","","",""
"","","","","","html-keyboard-response","382","527855","0.0-19.0-0.2-0.17","b2wnzx4aes","","b2wnzx4aes","""2024-11-12T18:59:09.179Z""","null","+","null","","","","","","",""
"","","","","","image-keyboard-response","383","531188","0.0-19.0-0.2-1.17","b2wnzx4aes","","b2wnzx4aes","""2024-11-12T18:59:09.179Z""","3329","materials/imgs/D24.png","arrowleft","","[""materials/imgs/D57.png"",""materials/imgs/D21.png""]","false","random","","",""
"","","","","","html-keyboard-response","384","531693","0.0-19.0-0.2-0.18","b2wnzx4aes","","b2wnzx4aes","""2024-11-12T18:59:09.179Z""","null","+","null","","","","","","",""
"","","","","","image-keyboard-response","385","533836","0.0-19.0-0.2-1.18","b2wnzx4aes","","b2wnzx4aes","""2024-11-12T18:59:09.179Z""","2139","materials/imgs/D9.png","arrowright","","[""materials/imgs/D95.png"",""materials/imgs/D1.png""]","false","random","","",""
"","","","","","html-keyboard-response","386","534351","0.0-19.0-0.2-0.19","b2wnzx4aes","","b2wnzx4aes","""2024-11-12T18:59:09.179Z""","null","+","null","","","","","","",""
"","","","","","image-keyboard-response","387","534920","0.0-19.0-0.2-1.19","b2wnzx4aes","","b2wnzx4aes","""2024-11-12T18:59:09.179Z""","564","materials/imgs/D9.png","arrowleft","","[""materials/imgs/D81.png"",""materials/imgs/D21.png""]","false","random","","",""
"","","","","","html-keyboard-response","388","535436","0.0-19.0-0.2-0.20","b2wnzx4aes","","b2wnzx4aes","""2024-11-12T18:59:09.179Z""","null","+","null","","","","","","",""
"","","","","","image-keyboard-response","389","536931","0.0-19.0-0.2-1.20","b2wnzx4aes","","b2wnzx4aes","""2024-11-12T18:59:09.179Z""","1490","materials/imgs/D25.png","arrowright","","[""materials/imgs/D3.png"",""materials/imgs/D6.png""]","false","random","","",""
"","","","","","html-keyboard-response","390","537449","0.0-19.0-1.2-0.2","b2wnzx4aes","","b2wnzx4aes","""2024-11-12T18:59:09.179Z""","null","+","null","","","","","","",""
"","","","","","image-keyboard-response","391","538085","0.0-19.0-1.2-1.2","b2wnzx4aes","","b2wnzx4aes","""2024-11-12T18:59:09.179Z""","633","materials/imgs/D101.png","arrowright","","[""materials/imgs/D106.png"",""materials/imgs/D101.png""]","","check","materials/imgs/D101.png","1","true"
"","","","","","html-keyboard-response","392","538597","0.0-19.0-2.2-0.4","b2wnzx4aes","","b2wnzx4aes","""2024-11-12T18:59:09.179Z""","null","+","null","","","","","","",""
"","","","","","image-keyboard-response","393","539882","0.0-19.0-2.2-1.4","b2wnzx4aes","","b2wnzx4aes","""2024-11-12T18:59:09.179Z""","1281","materials/imgs/D32.png","arrowleft","","[""materials/imgs/D68.png"",""materials/imgs/D96.png""]","false","validation","","",""
"","","","","","html-keyboard-response","394","540386","0.0-19.0-2.2-0.5","b2wnzx4aes","","b2wnzx4aes","""2024-11-12T18:59:09.179Z""","null","+","null","","","","","","",""
"","","","","","image-keyboard-response","395","541063","0.0-19.0-2.2-1.5","b2wnzx4aes","","b2wnzx4aes","""2024-11-12T18:59:09.179Z""","673","materials/imgs/D3.png","arrowleft","","[""materials/imgs/D79.png"",""materials/imgs/D48.png""]","false","validation","","",""
"","","","","","html-keyboard-response","396","541570","0.0-19.0-0.3-0.21","b2wnzx4aes","","b2wnzx4aes","""2024-11-12T18:59:09.179Z""","null","+","null","","","","","","",""
"","","","","","image-keyboard-response","397","542736","0.0-19.0-0.3-1.21","b2wnzx4aes","","b2wnzx4aes","""2024-11-12T18:59:09.179Z""","1163","materials/imgs/D64.png","arrowleft","","[""materials/imgs/D96.png"",""materials/imgs/D20.png""]","false","random","","",""
"","","","","","html-keyboard-response","398","543242","0.0-19.0-0.3-0.22","b2wnzx4aes","","b2wnzx4aes","""2024-11-12T18:59:09.179Z""","null","+","null","","","","","","",""
"","","","","","image-keyboard-response","399","544596","0.0-19.0-0.3-1.22","b2wnzx4aes","","b2wnzx4aes","""2024-11-12T18:59:09.179Z""","1352","materials/imgs/D51.png","arrowleft","","[""materials/imgs/D79.png"",""materials/imgs/D56.png""]","false","random","","",""
"","","","","","html-keyboard-response","400","545111","0.0-19.0-0.3-0.23","b2wnzx4aes","","b2wnzx4aes","""2024-11-12T18:59:09.179Z""","null","+","null","","","","","","",""
"","","","","","image-keyboard-response","401","545980","0.0-19.0-0.3-1.23","b2wnzx4aes","","b2wnzx4aes","""2024-11-12T18:59:09.179Z""","865","materials/imgs/D6.png","arrowright","","[""materials/imgs/D26.png"",""materials/imgs/D1.png""]","false","random","","",""
"","","","","","html-keyboard-response","402","546496","0.0-19.0-0.3-0.24","b2wnzx4aes","","b2wnzx4aes","""2024-11-12T18:59:09.179Z""","null","+","null","","","","","","",""
"","","","","","image-keyboard-response","403","547764","0.0-19.0-0.3-1.24","b2wnzx4aes","","b2wnzx4aes","""2024-11-12T18:59:09.179Z""","1263","materials/imgs/D96.png","arrowleft","","[""materials/imgs/D55.png"",""materials/imgs/D68.png""]","false","random","","",""
"","","","","","html-keyboard-response","404","548273","0.0-19.0-0.3-0.25","b2wnzx4aes","","b2wnzx4aes","""2024-11-12T18:59:09.179Z""","null","+","null","","","","","","",""
"","","","","","image-keyboard-response","405","549847","0.0-19.0-0.3-1.25","b2wnzx4aes","","b2wnzx4aes","""2024-11-12T18:59:09.179Z""","1572","materials/imgs/D22.png","arrowleft","","[""materials/imgs/D18.png"",""materials/imgs/D75.png""]","false","random","","",""
"","","","","","html-keyboard-response","406","550351","0.0-19.0-0.3-0.26","b2wnzx4aes","","b2wnzx4aes","""2024-11-12T18:59:09.179Z""","null","+","null","","","","","","",""
"","","","","","image-keyboard-response","407","552169","0.0-19.0-0.3-1.26","b2wnzx4aes","","b2wnzx4aes","""2024-11-12T18:59:09.179Z""","1814","materials/imgs/D55.png","arrowright","","[""materials/imgs/D87.png"",""materials/imgs/D18.png""]","false","random","","",""
"","","","","","html-keyboard-response","408","552676","0.0-19.0-0.3-0.27","b2wnzx4aes","","b2wnzx4aes","""2024-11-12T18:59:09.179Z""","null","+","null","","","","","","",""
"","","","","","image-keyboard-response","409","553644","0.0-19.0-0.3-1.27","b2wnzx4aes","","b2wnzx4aes","""2024-11-12T18:59:09.179Z""","963","materials/imgs/D77.png","arrowright","","[""materials/imgs/D26.png"",""materials/imgs/D66.png""]","false","random","","",""
"","","","","","html-keyboard-response","410","554156","0.0-19.0-1.3-0.3","b2wnzx4aes","","b2wnzx4aes","""2024-11-12T18:59:09.179Z""","null","+","null","","","","","","",""
"","","","","","image-keyboard-response","411","554796","0.0-19.0-1.3-1.3","b2wnzx4aes","","b2wnzx4aes","""2024-11-12T18:59:09.179Z""","637","materials/imgs/D106.png","arrowleft","","[""materials/imgs/D106.png"",""materials/imgs/D101.png""]","","check","materials/imgs/D106.png","0","true"
"","","","","","html-keyboard-response","412","555306","0.0-19.0-2.3-0.6","b2wnzx4aes","","b2wnzx4aes","""2024-11-12T18:59:09.179Z""","null","+","null","","","","","","",""
"","","","","","image-keyboard-response","413","556927","0.0-19.0-2.3-1.6","b2wnzx4aes","","b2wnzx4aes","""2024-11-12T18:59:09.179Z""","1617","materials/imgs/D65.png","arrowleft","","[""materials/imgs/D4.png"",""materials/imgs/D16.png""]","false","validation","","",""
"","","","","","html-keyboard-response","414","557442","0.0-19.0-2.3-0.7","b2wnzx4aes","","b2wnzx4aes","""2024-11-12T18:59:09.179Z""","null","+","null","","","","","","",""
"","","","","","image-keyboard-response","415","559787","0.0-19.0-2.3-1.7","b2wnzx4aes","","b2wnzx4aes","""2024-11-12T18:59:09.179Z""","2341","materials/imgs/D26.png","arrowright","","[""materials/imgs/D36.png"",""materials/imgs/D92.png""]","false","validation","","",""
"","","","","","html-keyboard-response","416","560301","0.0-19.0-0.4-0.28","b2wnzx4aes","","b2wnzx4aes","""2024-11-12T18:59:09.179Z""","null","+","null","","","","","","",""
"","","","","","image-keyboard-response","417","561174","0.0-19.0-0.4-1.28","b2wnzx4aes","","b2wnzx4aes","""2024-11-12T18:59:09.179Z""","868","materials/imgs/D16.png","arrowright","","[""materials/imgs/D47.png"",""materials/imgs/D82.png""]","false","random","","",""
"","","","","","html-keyboard-response","418","561684","0.0-19.0-0.4-0.29","b2wnzx4aes","","b2wnzx4aes","""2024-11-12T18:59:09.179Z""","null","+","null","","","","","","",""
"","","","","","image-keyboard-response","419","563114","0.0-19.0-0.4-1.29","b2wnzx4aes","","b2wnzx4aes","""2024-11-12T18:59:09.179Z""","1425","materials/imgs/D85.png","arrowleft","","[""materials/imgs/D9.png"",""materials/imgs/D104.png""]","false","random","","",""
"","","","","","html-keyboard-response","420","563620","0.0-19.0-0.4-0.30","b2wnzx4aes","","b2wnzx4aes","""2024-11-12T18:59:09.179Z""","null","+","null","","","","","","",""
"","","","","","image-keyboard-response","421","564196","0.0-19.0-0.4-1.30","b2wnzx4aes","","b2wnzx4aes","""2024-11-12T18:59:09.179Z""","572","materials/imgs/D77.png","arrowright","","[""materials/imgs/D83.png"",""materials/imgs/D16.png""]","false","random","","",""
"","","","","","html-keyboard-response","422","564706","0.0-19.0-0.4-0.31","b2wnzx4aes","","b2wnzx4aes","""2024-11-12T18:59:09.179Z""","null","+","null","","","","","","",""
"","","","","","image-keyboard-response","423","565367","0.0-19.0-0.4-1.31","b2wnzx4aes","","b2wnzx4aes","""2024-11-12T18:59:09.179Z""","657","materials/imgs/D36.png","arrowright","","[""materials/imgs/D11.png"",""materials/imgs/D80.png""]","false","random","","",""
"","","","","","html-keyboard-response","424","565868","0.0-19.0-0.4-0.32","b2wnzx4aes","","b2wnzx4aes","""2024-11-12T18:59:09.179Z""","null","+","null","","","","","","",""
"","","","","","image-keyboard-response","425","566659","0.0-19.0-0.4-1.32","b2wnzx4aes","","b2wnzx4aes","""2024-11-12T18:59:09.179Z""","787","materials/imgs/D85.png","arrowright","","[""materials/imgs/D46.png"",""materials/imgs/D83.png""]","false","random","","",""
"","","","","","html-keyboard-response","426","567173","0.0-19.0-0.4-0.33","b2wnzx4aes","","b2wnzx4aes","""2024-11-12T18:59:09.179Z""","null","+","null","","","","","","",""
"","","","","","image-keyboard-response","427","569001","0.0-19.0-0.4-1.33","b2wnzx4aes","","b2wnzx4aes","""2024-11-12T18:59:09.179Z""","1824","materials/imgs/D22.png","arrowleft","","[""materials/imgs/D85.png"",""materials/imgs/D16.png""]","false","random","","",""
"","","","","","html-keyboard-response","428","569516","0.0-19.0-0.4-0.34","b2wnzx4aes","","b2wnzx4aes","""2024-11-12T18:59:09.179Z""","null","+","null","","","","","","",""
"","","","","","image-keyboard-response","429","571309","0.0-19.0-0.4-1.34","b2wnzx4aes","","b2wnzx4aes","""2024-11-12T18:59:09.179Z""","1788","materials/imgs/D76.png","arrowright","","[""materials/imgs/D55.png"",""materials/imgs/D103.png""]","false","random","","",""
"","","","","","html-keyboard-response","430","571824","0.0-19.0-1.4-0.4","b2wnzx4aes","","b2wnzx4aes","""2024-11-12T18:59:09.179Z""","null","+","null","","","","","","",""
"","","","","","image-keyboard-response","431","572500","0.0-19.0-1.4-1.4","b2wnzx4aes","","b2wnzx4aes","""2024-11-12T18:59:09.179Z""","673","materials/imgs/D46.png","arrowleft","","[""materials/imgs/D46.png"",""materials/imgs/D26.png""]","","check","materials/imgs/D46.png","0","true"
"","","","","","html-keyboard-response","432","573017","0.0-19.0-2.4-0.8","b2wnzx4aes","","b2wnzx4aes","""2024-11-12T18:59:09.179Z""","null","+","null","","","","","","",""
"","","","","","image-keyboard-response","433","575033","0.0-19.0-2.4-1.8","b2wnzx4aes","","b2wnzx4aes","""2024-11-12T18:59:09.179Z""","2011","materials/imgs/D83.png","arrowright","","[""materials/imgs/D24.png"",""materials/imgs/D8.png""]","false","validation","","",""
"","","","","","html-keyboard-response","434","575535","0.0-19.0-2.4-0.9","b2wnzx4aes","","b2wnzx4aes","""2024-11-12T18:59:09.179Z""","null","+","null","","","","","","",""
"","","","","","image-keyboard-response","435","577222","0.0-19.0-2.4-1.9","b2wnzx4aes","","b2wnzx4aes","""2024-11-12T18:59:09.179Z""","1685","materials/imgs/D64.png","arrowright","","[""materials/imgs/D6.png"",""materials/imgs/D81.png""]","false","validation","","",""
