"success","timeout","failed_images","failed_audio","failed_video","trial_type","trial_index","time_elapsed","internal_node_id","subject_id","sona_id","subjectID","dateInfo","rt","stimulus","response","question_order","choices","speedy","sampleAlg","selected_image","selected_index","correct"
"true","false","[]","[]","[]","preload","0","632","0.0-0.0","b3x64et4jd","","b3x64et4jd","""2024-11-12T18:52:58.206Z""","","","","","","","","","",""
"true","","","","","fullscreen","1","4471","0.0-1.0","b3x64et4jd","","b3x64et4jd","""2024-11-12T18:52:58.206Z""","","","","","","","","","",""
"","","","","","html-keyboard-response","2","4484","0.0-2.0","b3x64et4jd","","b3x64et4jd","""2024-11-12T18:52:58.206Z""","null","","null","","","","","","",""
"","","","","","html-button-response","3","11589","0.0-3.0","b3x64et4jd","","b3x64et4jd","""2024-11-12T18:52:58.206Z""","7103","<div style='text-align:center; font-size:20px; line-height:25px; width: 1200px;'>
                Welcome to our experiment! <br>
                <br>At the bottom of this screen, you will see a button that says 'Begin Experiment.
                <br>Please only click that button when you are ready to complete the 25 minute experiment in one sitting. <br>
                <br> Once you click that button, it will not be possible to restart the experiment. <br><br>","0","","","","","","",""
"true","","","","","fullscreen","4","17005","0.0-4.0","b3x64et4jd","","b3x64et4jd","""2024-11-12T18:52:58.206Z""","","","","","","","","","",""
"","","","","","survey-multi-select","5","52072","0.0-5.0","b3x64et4jd","","b3x64et4jd","""2024-11-12T18:52:58.206Z""","35062","","{""Consent"":[""<strong>I consent</strong>""]}","[0]","","","","","",""
"","","","","","html-button-response","6","58524","0.0-6.0","b3x64et4jd","","b3x64et4jd","""2024-11-12T18:52:58.206Z""","6450","Welcome! <p> This experiment involves two parts: demographic information, followed by the experimental task.<p> It will take about 25 minutes to complete both parts.","0","","","","","","",""
"","","","","","survey-text","7","66363","0.0-7.0","b3x64et4jd","","b3x64et4jd","""2024-11-12T18:52:58.206Z""","7834","","{""Age"":""21"",""Gender"":""Female"",""Race/ethnicity"":""White""}","","","","","","",""
"","","","","","html-button-response","8","108018","0.0-8.0","b3x64et4jd","","b3x64et4jd","""2024-11-12T18:52:58.206Z""","41653","<div style='text-align: center;'>
      <p>In each trial of this task, you will see three texture images: one target item on top, and two choices beneath the target item.</p>
      <p><strong>Please select the item that is most like the target item.</strong></p>
      <p>To select the option on the <strong>LEFT</strong>, press the <strong>LEFT ARROW</strong> key. 
      To select the option on the <strong>RIGHT</strong>, press the <strong>RIGHT ARROW</strong> key.</p>
                  <!-- Target Image at the Top -->
      <div style='margin: 20px;'>
        <img src='materials/imgs/instruction_images/InstructionImg1D78.png' alt='Target Image' style='width:200px; height:auto;' />
        <p><em>Target Image</em></p>
      </div>

      <!-- Two Choice Images Below -->
      <div style='display: flex; justify-content: center;'>
        <div style='margin-right: 50px;'>
          <img src='materials/imgs/instruction_images/InstructionImg2D34.png' alt='Choice Image 1' style='width:150px; height:auto;' />
          <p><em><strong>LEFT ARROW</strong></em></p>
        </div>
        <div style='margin-left: 50px;'>
          <img src='materials/imgs/instruction_images/InstructionImg3D80.png' alt='Choice Image 2' style='width:150px; height:auto;' />
          <p><em><strong>RIGHT ARROW</strong></em></p>
        </div>
      </div>
    </div>

      <p>When you are ready to proceed, please click 'Continue' to begin practice.</p>","0","","","","","","",""
"","","","","","html-keyboard-response","9","110523","0.0-9.0","b3x64et4jd","","b3x64et4jd","""2024-11-12T18:52:58.206Z""","null","+","null","","","","","","",""
"","","","","","html-keyboard-response","10","111025","0.0-10.0-0.0-0.0","b3x64et4jd","","b3x64et4jd","""2024-11-12T18:52:58.206Z""","null","+","null","","","","","","",""
"","","","","","image-keyboard-response","11","114040","0.0-10.0-0.0-1.0","b3x64et4jd","","b3x64et4jd","""2024-11-12T18:52:58.206Z""","3009","materials/imgs/D56.png","arrowleft","","[""materials/imgs/D102.png"",""materials/imgs/D16.png""]","false","random","","",""
"","","","","","html-keyboard-response","12","114542","0.0-10.0-0.0-0.1","b3x64et4jd","","b3x64et4jd","""2024-11-12T18:52:58.206Z""","null","+","null","","","","","","",""
"","","","","","image-keyboard-response","13","116566","0.0-10.0-0.0-1.1","b3x64et4jd","","b3x64et4jd","""2024-11-12T18:52:58.206Z""","2021","materials/imgs/D16.png","arrowleft","","[""materials/imgs/D82.png"",""materials/imgs/D46.png""]","false","random","","",""
"","","","","","html-keyboard-response","14","117067","0.0-10.0-0.0-0.2","b3x64et4jd","","b3x64et4jd","""2024-11-12T18:52:58.206Z""","null","+","null","","","","","","",""
"","","","","","image-keyboard-response","15","118501","0.0-10.0-0.0-1.2","b3x64et4jd","","b3x64et4jd","""2024-11-12T18:52:58.206Z""","1430","materials/imgs/D29.png","arrowright","","[""materials/imgs/D34.png"",""materials/imgs/D9.png""]","false","random","","",""
"","","","","","html-keyboard-response","16","119003","0.0-10.0-0.0-0.3","b3x64et4jd","","b3x64et4jd","""2024-11-12T18:52:58.206Z""","null","+","null","","","","","","",""
"","","","","","image-keyboard-response","17","120856","0.0-10.0-0.0-1.3","b3x64et4jd","","b3x64et4jd","""2024-11-12T18:52:58.206Z""","1851","materials/imgs/D111.png","arrowleft","","[""materials/imgs/D18.png"",""materials/imgs/D79.png""]","false","random","","",""
"","","","","","html-keyboard-response","18","121357","0.0-10.0-0.0-0.4","b3x64et4jd","","b3x64et4jd","""2024-11-12T18:52:58.206Z""","null","+","null","","","","","","",""
"","","","","","image-keyboard-response","19","124182","0.0-10.0-0.0-1.4","b3x64et4jd","","b3x64et4jd","""2024-11-12T18:52:58.206Z""","2822","materials/imgs/D56.png","arrowright","","[""materials/imgs/D22.png"",""materials/imgs/D74.png""]","false","random","","",""
"","","","","","html-keyboard-response","20","124684","0.0-10.0-0.0-0.5","b3x64et4jd","","b3x64et4jd","""2024-11-12T18:52:58.206Z""","null","+","null","","","","","","",""
"","","","","","image-keyboard-response","21","127572","0.0-10.0-0.0-1.5","b3x64et4jd","","b3x64et4jd","""2024-11-12T18:52:58.206Z""","2886","materials/imgs/D55.png","arrowright","","[""materials/imgs/D25.png"",""materials/imgs/D101.png""]","false","random","","",""
"","","","","","html-keyboard-response","22","128074","0.0-10.0-0.0-0.6","b3x64et4jd","","b3x64et4jd","""2024-11-12T18:52:58.206Z""","null","+","null","","","","","","",""
"","","","","","image-keyboard-response","23","130000","0.0-10.0-0.0-1.6","b3x64et4jd","","b3x64et4jd","""2024-11-12T18:52:58.206Z""","1924","materials/imgs/D18.png","arrowright","","[""materials/imgs/D24.png"",""materials/imgs/D32.png""]","false","random","","",""
"","","","","","html-keyboard-response","24","130501","0.0-10.0-0.0-0.7","b3x64et4jd","","b3x64et4jd","""2024-11-12T18:52:58.206Z""","null","+","null","","","","","","",""
"","","","","","image-keyboard-response","25","132756","0.0-10.0-0.0-1.7","b3x64et4jd","","b3x64et4jd","""2024-11-12T18:52:58.206Z""","2253","materials/imgs/D81.png","arrowleft","","[""materials/imgs/D106.png"",""materials/imgs/D34.png""]","false","random","","",""
"","","","","","html-keyboard-response","26","133257","0.0-10.0-0.0-0.8","b3x64et4jd","","b3x64et4jd","""2024-11-12T18:52:58.206Z""","null","+","null","","","","","","",""
"","","","","","image-keyboard-response","27","135290","0.0-10.0-0.0-1.8","b3x64et4jd","","b3x64et4jd","""2024-11-12T18:52:58.206Z""","2031","materials/imgs/D92.png","arrowleft","","[""materials/imgs/D14.png"",""materials/imgs/D68.png""]","false","random","","",""
"","","","","","html-keyboard-response","28","135791","0.0-10.0-0.0-0.9","b3x64et4jd","","b3x64et4jd","""2024-11-12T18:52:58.206Z""","null","+","null","","","","","","",""
"","","","","","image-keyboard-response","29","137548","0.0-10.0-0.0-1.9","b3x64et4jd","","b3x64et4jd","""2024-11-12T18:52:58.206Z""","1754","materials/imgs/D24.png","arrowright","","[""materials/imgs/D52.png"",""materials/imgs/D6.png""]","false","random","","",""
"","","","","","html-button-response","30","147655","0.0-11.0","b3x64et4jd","","b3x64et4jd","""2024-11-12T18:52:58.206Z""","10106","<p>Great job!</p>
      <p>You are now ready to begin the experiment.</p>
      <p>There will be around 200 trials. You will have opportunities to take breaks at three stages of the trials.</p>
      <p>When you are ready to begin please click 'Continue'.</p>","0","","","","","","",""
"","","","","","html-keyboard-response","31","150158","0.0-12.0","b3x64et4jd","","b3x64et4jd","""2024-11-12T18:52:58.206Z""","null","+","null","","","","","","",""
"","","","","","html-keyboard-response","32","150659","0.0-13.0-0.0-0.0","b3x64et4jd","","b3x64et4jd","""2024-11-12T18:52:58.206Z""","null","+","null","","","","","","",""
"","","","","","image-keyboard-response","33","153003","0.0-13.0-0.0-1.0","b3x64et4jd","","b3x64et4jd","""2024-11-12T18:52:58.206Z""","2341","materials/imgs/D16.png","arrowleft","","[""materials/imgs/D51.png"",""materials/imgs/D46.png""]","false","random","","",""
"","","","","","html-keyboard-response","34","153506","0.0-13.0-0.0-0.1","b3x64et4jd","","b3x64et4jd","""2024-11-12T18:52:58.206Z""","null","+","null","","","","","","",""
"","","","","","image-keyboard-response","35","154808","0.0-13.0-0.0-1.1","b3x64et4jd","","b3x64et4jd","""2024-11-12T18:52:58.206Z""","1300","materials/imgs/D21.png","arrowright","","[""materials/imgs/D80.png"",""materials/imgs/D57.png""]","false","random","","",""
"","","","","","html-keyboard-response","36","155310","0.0-13.0-0.0-0.2","b3x64et4jd","","b3x64et4jd","""2024-11-12T18:52:58.206Z""","null","+","null","","","","","","",""
"","","","","","image-keyboard-response","37","159844","0.0-13.0-0.0-1.2","b3x64et4jd","","b3x64et4jd","""2024-11-12T18:52:58.206Z""","4531","materials/imgs/D48.png","arrowleft","","[""materials/imgs/D68.png"",""materials/imgs/D85.png""]","false","random","","",""
"","","","","","html-keyboard-response","38","160345","0.0-13.0-0.0-0.3","b3x64et4jd","","b3x64et4jd","""2024-11-12T18:52:58.206Z""","null","+","null","","","","","","",""
"","","","","","image-keyboard-response","39","161423","0.0-13.0-0.0-1.3","b3x64et4jd","","b3x64et4jd","""2024-11-12T18:52:58.206Z""","1075","materials/imgs/D21.png","arrowright","","[""materials/imgs/D84.png"",""materials/imgs/D16.png""]","false","random","","",""
"","","","","","html-keyboard-response","40","161924","0.0-13.0-0.0-0.4","b3x64et4jd","","b3x64et4jd","""2024-11-12T18:52:58.206Z""","null","+","null","","","","","","",""
"","","","","","image-keyboard-response","41","163324","0.0-13.0-0.0-1.4","b3x64et4jd","","b3x64et4jd","""2024-11-12T18:52:58.206Z""","1397","materials/imgs/D25.png","arrowright","","[""materials/imgs/D49.png"",""materials/imgs/D96.png""]","false","random","","",""
"","","","","","html-keyboard-response","42","163825","0.0-13.0-0.0-0.5","b3x64et4jd","","b3x64et4jd","""2024-11-12T18:52:58.206Z""","null","+","null","","","","","","",""
"","","","","","image-keyboard-response","43","165845","0.0-13.0-0.0-1.5","b3x64et4jd","","b3x64et4jd","""2024-11-12T18:52:58.206Z""","2018","materials/imgs/D48.png","arrowleft","","[""materials/imgs/D83.png"",""materials/imgs/D36.png""]","false","random","","",""
"","","","","","html-keyboard-response","44","166346","0.0-13.0-0.0-0.6","b3x64et4jd","","b3x64et4jd","""2024-11-12T18:52:58.206Z""","null","+","null","","","","","","",""
"","","","","","image-keyboard-response","45","174668","0.0-13.0-0.0-1.6","b3x64et4jd","","b3x64et4jd","""2024-11-12T18:52:58.206Z""","8320","materials/imgs/D26.png","arrowleft","","[""materials/imgs/D66.png"",""materials/imgs/D24.png""]","false","random","","",""
"","","","","","html-keyboard-response","46","175169","0.0-13.0-1.0-0.0","b3x64et4jd","","b3x64et4jd","""2024-11-12T18:52:58.206Z""","null","+","null","","","","","","",""
"","","","","","image-keyboard-response","47","176060","0.0-13.0-1.0-1.0","b3x64et4jd","","b3x64et4jd","""2024-11-12T18:52:58.206Z""","889","materials/imgs/D18.png","arrowright","","[""materials/imgs/D8.png"",""materials/imgs/D18.png""]","","check","materials/imgs/D18.png","1","true"
"","","","","","html-keyboard-response","48","176562","0.0-13.0-2.0-0.0","b3x64et4jd","","b3x64et4jd","""2024-11-12T18:52:58.206Z""","null","+","null","","","","","","",""
"","","","","","image-keyboard-response","49","177647","0.0-13.0-2.0-1.0","b3x64et4jd","","b3x64et4jd","""2024-11-12T18:52:58.206Z""","1082","materials/imgs/D53.png","arrowleft","","[""materials/imgs/D77.png"",""materials/imgs/D75.png""]","false","validation","","",""
"","","","","","html-keyboard-response","50","178148","0.0-13.0-2.0-0.1","b3x64et4jd","","b3x64et4jd","""2024-11-12T18:52:58.206Z""","null","+","null","","","","","","",""
"","","","","","image-keyboard-response","51","179978","0.0-13.0-2.0-1.1","b3x64et4jd","","b3x64et4jd","""2024-11-12T18:52:58.206Z""","1827","materials/imgs/D85.png","arrowleft","","[""materials/imgs/D6.png"",""materials/imgs/D111.png""]","false","validation","","",""
"","","","","","html-keyboard-response","52","180479","0.0-13.0-0.1-0.7","b3x64et4jd","","b3x64et4jd","""2024-11-12T18:52:58.206Z""","null","+","null","","","","","","",""
"","","","","","image-keyboard-response","53","181632","0.0-13.0-0.1-1.7","b3x64et4jd","","b3x64et4jd","""2024-11-12T18:52:58.206Z""","1151","materials/imgs/D79.png","arrowright","","[""materials/imgs/D102.png"",""materials/imgs/D19.png""]","false","random","","",""
"","","","","","html-keyboard-response","54","182133","0.0-13.0-0.1-0.8","b3x64et4jd","","b3x64et4jd","""2024-11-12T18:52:58.206Z""","null","+","null","","","","","","",""
"","","","","","image-keyboard-response","55","183213","0.0-13.0-0.1-1.8","b3x64et4jd","","b3x64et4jd","""2024-11-12T18:52:58.206Z""","1078","materials/imgs/D34.png","arrowright","","[""materials/imgs/D111.png"",""materials/imgs/D1.png""]","false","random","","",""
"","","","","","html-keyboard-response","56","183714","0.0-13.0-0.1-0.9","b3x64et4jd","","b3x64et4jd","""2024-11-12T18:52:58.206Z""","null","+","null","","","","","","",""
"","","","","","image-keyboard-response","57","184732","0.0-13.0-0.1-1.9","b3x64et4jd","","b3x64et4jd","""2024-11-12T18:52:58.206Z""","1016","materials/imgs/D104.png","arrowleft","","[""materials/imgs/D22.png"",""materials/imgs/D79.png""]","false","random","","",""
"","","","","","html-keyboard-response","58","185233","0.0-13.0-0.1-0.10","b3x64et4jd","","b3x64et4jd","""2024-11-12T18:52:58.206Z""","null","+","null","","","","","","",""
"","","","","","image-keyboard-response","59","186225","0.0-13.0-0.1-1.10","b3x64et4jd","","b3x64et4jd","""2024-11-12T18:52:58.206Z""","990","materials/imgs/D103.png","arrowright","","[""materials/imgs/D81.png"",""materials/imgs/D111.png""]","false","random","","",""
"","","","","","html-keyboard-response","60","186727","0.0-13.0-0.1-0.11","b3x64et4jd","","b3x64et4jd","""2024-11-12T18:52:58.206Z""","null","+","null","","","","","","",""
"","","","","","image-keyboard-response","61","188354","0.0-13.0-0.1-1.11","b3x64et4jd","","b3x64et4jd","""2024-11-12T18:52:58.206Z""","1626","materials/imgs/D47.png","arrowright","","[""materials/imgs/D36.png"",""materials/imgs/D55.png""]","false","random","","",""
"","","","","","html-keyboard-response","62","188855","0.0-13.0-0.1-0.12","b3x64et4jd","","b3x64et4jd","""2024-11-12T18:52:58.206Z""","null","+","null","","","","","","",""
"","","","","","image-keyboard-response","63","191979","0.0-13.0-0.1-1.12","b3x64et4jd","","b3x64et4jd","""2024-11-12T18:52:58.206Z""","3122","materials/imgs/D11.png","arrowleft","","[""materials/imgs/D6.png"",""materials/imgs/D8.png""]","false","random","","",""
"","","","","","html-keyboard-response","64","192480","0.0-13.0-0.1-0.13","b3x64et4jd","","b3x64et4jd","""2024-11-12T18:52:58.206Z""","null","+","null","","","","","","",""
"","","","","","image-keyboard-response","65","196355","0.0-13.0-0.1-1.13","b3x64et4jd","","b3x64et4jd","""2024-11-12T18:52:58.206Z""","3872","materials/imgs/D81.png","arrowright","","[""materials/imgs/D25.png"",""materials/imgs/D37.png""]","false","random","","",""
"","","","","","html-keyboard-response","66","196857","0.0-13.0-1.1-0.1","b3x64et4jd","","b3x64et4jd","""2024-11-12T18:52:58.206Z""","null","+","null","","","","","","",""
"","","","","","image-keyboard-response","67","197708","0.0-13.0-1.1-1.1","b3x64et4jd","","b3x64et4jd","""2024-11-12T18:52:58.206Z""","850","materials/imgs/D64.png","arrowleft","","[""materials/imgs/D64.png"",""materials/imgs/D53.png""]","","check","materials/imgs/D64.png","0","true"
"","","","","","html-keyboard-response","68","198210","0.0-13.0-2.1-0.2","b3x64et4jd","","b3x64et4jd","""2024-11-12T18:52:58.206Z""","null","+","null","","","","","","",""
"","","","","","image-keyboard-response","69","199167","0.0-13.0-2.1-1.2","b3x64et4jd","","b3x64et4jd","""2024-11-12T18:52:58.206Z""","955","materials/imgs/D1.png","arrowright","","[""materials/imgs/D57.png"",""materials/imgs/D76.png""]","false","validation","","",""
"","","","","","html-keyboard-response","70","199668","0.0-13.0-2.1-0.3","b3x64et4jd","","b3x64et4jd","""2024-11-12T18:52:58.206Z""","null","+","null","","","","","","",""
"","","","","","image-keyboard-response","71","201325","0.0-13.0-2.1-1.3","b3x64et4jd","","b3x64et4jd","""2024-11-12T18:52:58.206Z""","1655","materials/imgs/D11.png","arrowleft","","[""materials/imgs/D83.png"",""materials/imgs/D48.png""]","false","validation","","",""
"","","","","","html-keyboard-response","72","201827","0.0-13.0-0.2-0.14","b3x64et4jd","","b3x64et4jd","""2024-11-12T18:52:58.206Z""","null","+","null","","","","","","",""
"","","","","","image-keyboard-response","73","203049","0.0-13.0-0.2-1.14","b3x64et4jd","","b3x64et4jd","""2024-11-12T18:52:58.206Z""","1220","materials/imgs/D1.png","arrowright","","[""materials/imgs/D19.png"",""materials/imgs/D53.png""]","false","random","","",""
"","","","","","html-keyboard-response","74","203550","0.0-13.0-0.2-0.15","b3x64et4jd","","b3x64et4jd","""2024-11-12T18:52:58.206Z""","null","+","null","","","","","","",""
"","","","","","image-keyboard-response","75","204780","0.0-13.0-0.2-1.15","b3x64et4jd","","b3x64et4jd","""2024-11-12T18:52:58.206Z""","1228","materials/imgs/D55.png","arrowleft","","[""materials/imgs/D3.png"",""materials/imgs/D85.png""]","false","random","","",""
"","","","","","html-keyboard-response","76","205281","0.0-13.0-0.2-0.16","b3x64et4jd","","b3x64et4jd","""2024-11-12T18:52:58.206Z""","null","+","null","","","","","","",""
"","","","","","image-keyboard-response","77","206424","0.0-13.0-0.2-1.16","b3x64et4jd","","b3x64et4jd","""2024-11-12T18:52:58.206Z""","1141","materials/imgs/D11.png","arrowleft","","[""materials/imgs/D65.png"",""materials/imgs/D32.png""]","false","random","","",""
"","","","","","html-keyboard-response","78","206925","0.0-13.0-0.2-0.17","b3x64et4jd","","b3x64et4jd","""2024-11-12T18:52:58.206Z""","null","+","null","","","","","","",""
"","","","","","image-keyboard-response","79","208125","0.0-13.0-0.2-1.17","b3x64et4jd","","b3x64et4jd","""2024-11-12T18:52:58.206Z""","1198","materials/imgs/D24.png","arrowleft","","[""materials/imgs/D17.png"",""materials/imgs/D8.png""]","false","random","","",""
"","","","","","html-keyboard-response","80","208627","0.0-13.0-0.2-0.18","b3x64et4jd","","b3x64et4jd","""2024-11-12T18:52:58.206Z""","null","+","null","","","","","","",""
"","","","","","image-keyboard-response","81","209613","0.0-13.0-0.2-1.18","b3x64et4jd","","b3x64et4jd","""2024-11-12T18:52:58.206Z""","984","materials/imgs/D52.png","arrowright","","[""materials/imgs/D65.png"",""materials/imgs/D55.png""]","false","random","","",""
"","","","","","html-keyboard-response","82","210114","0.0-13.0-0.2-0.19","b3x64et4jd","","b3x64et4jd","""2024-11-12T18:52:58.206Z""","null","+","null","","","","","","",""
"","","","","","image-keyboard-response","83","211049","0.0-13.0-0.2-1.19","b3x64et4jd","","b3x64et4jd","""2024-11-12T18:52:58.206Z""","932","materials/imgs/D87.png","arrowright","","[""materials/imgs/D26.png"",""materials/imgs/D49.png""]","false","random","","",""
"","","","","","html-keyboard-response","84","211551","0.0-13.0-0.2-0.20","b3x64et4jd","","b3x64et4jd","""2024-11-12T18:52:58.206Z""","null","+","null","","","","","","",""
"","","","","","image-keyboard-response","85","212490","0.0-13.0-0.2-1.20","b3x64et4jd","","b3x64et4jd","""2024-11-12T18:52:58.206Z""","937","materials/imgs/D92.png","arrowright","","[""materials/imgs/D76.png"",""materials/imgs/D104.png""]","false","random","","",""
"","","","","","html-keyboard-response","86","212992","0.0-13.0-1.2-0.2","b3x64et4jd","","b3x64et4jd","""2024-11-12T18:52:58.206Z""","null","+","null","","","","","","",""
"","","","","","image-keyboard-response","87","213728","0.0-13.0-1.2-1.2","b3x64et4jd","","b3x64et4jd","""2024-11-12T18:52:58.206Z""","735","materials/imgs/D101.png","arrowright","","[""materials/imgs/D106.png"",""materials/imgs/D101.png""]","","check","materials/imgs/D101.png","1","true"
"","","","","","html-keyboard-response","88","214230","0.0-13.0-2.2-0.4","b3x64et4jd","","b3x64et4jd","""2024-11-12T18:52:58.206Z""","null","+","null","","","","","","",""
"","","","","","image-keyboard-response","89","217313","0.0-13.0-2.2-1.4","b3x64et4jd","","b3x64et4jd","""2024-11-12T18:52:58.206Z""","3081","materials/imgs/D83.png","arrowleft","","[""materials/imgs/D24.png"",""materials/imgs/D8.png""]","false","validation","","",""
"","","","","","html-keyboard-response","90","217814","0.0-13.0-2.2-0.5","b3x64et4jd","","b3x64et4jd","""2024-11-12T18:52:58.206Z""","null","+","null","","","","","","",""
"","","","","","image-keyboard-response","91","218581","0.0-13.0-2.2-1.5","b3x64et4jd","","b3x64et4jd","""2024-11-12T18:52:58.206Z""","765","materials/imgs/D22.png","arrowleft","","[""materials/imgs/D4.png"",""materials/imgs/D25.png""]","false","validation","","",""
"","","","","","html-keyboard-response","92","219082","0.0-13.0-0.3-0.21","b3x64et4jd","","b3x64et4jd","""2024-11-12T18:52:58.206Z""","null","+","null","","","","","","",""
"","","","","","image-keyboard-response","93","220919","0.0-13.0-0.3-1.21","b3x64et4jd","","b3x64et4jd","""2024-11-12T18:52:58.206Z""","1835","materials/imgs/D76.png","arrowright","","[""materials/imgs/D34.png"",""materials/imgs/D35.png""]","false","random","","",""
"","","","","","html-keyboard-response","94","221420","0.0-13.0-0.3-0.22","b3x64et4jd","","b3x64et4jd","""2024-11-12T18:52:58.206Z""","null","+","null","","","","","","",""
"","","","","","image-keyboard-response","95","222301","0.0-13.0-0.3-1.22","b3x64et4jd","","b3x64et4jd","""2024-11-12T18:52:58.206Z""","879","materials/imgs/D24.png","arrowleft","","[""materials/imgs/D87.png"",""materials/imgs/D76.png""]","false","random","","",""
"","","","","","html-keyboard-response","96","222802","0.0-13.0-0.3-0.23","b3x64et4jd","","b3x64et4jd","""2024-11-12T18:52:58.206Z""","null","+","null","","","","","","",""
"","","","","","image-keyboard-response","97","223666","0.0-13.0-0.3-1.23","b3x64et4jd","","b3x64et4jd","""2024-11-12T18:52:58.206Z""","861","materials/imgs/D81.png","arrowright","","[""materials/imgs/D47.png"",""materials/imgs/D74.png""]","false","random","","",""
"","","","","","html-keyboard-response","98","224167","0.0-13.0-0.3-0.24","b3x64et4jd","","b3x64et4jd","""2024-11-12T18:52:58.206Z""","null","+","null","","","","","","",""
"","","","","","image-keyboard-response","99","225672","0.0-13.0-0.3-1.24","b3x64et4jd","","b3x64et4jd","""2024-11-12T18:52:58.206Z""","1503","materials/imgs/D6.png","arrowright","","[""materials/imgs/D26.png"",""materials/imgs/D76.png""]","false","random","","",""
"","","","","","html-keyboard-response","100","226173","0.0-13.0-0.3-0.25","b3x64et4jd","","b3x64et4jd","""2024-11-12T18:52:58.206Z""","null","+","null","","","","","","",""
"","","","","","image-keyboard-response","101","227661","0.0-13.0-0.3-1.25","b3x64et4jd","","b3x64et4jd","""2024-11-12T18:52:58.206Z""","1485","materials/imgs/D37.png","arrowright","","[""materials/imgs/D77.png"",""materials/imgs/D64.png""]","false","random","","",""
"","","","","","html-keyboard-response","102","228162","0.0-13.0-0.3-0.26","b3x64et4jd","","b3x64et4jd","""2024-11-12T18:52:58.206Z""","null","+","null","","","","","","",""
"","","","","","image-keyboard-response","103","229003","0.0-13.0-0.3-1.26","b3x64et4jd","","b3x64et4jd","""2024-11-12T18:52:58.206Z""","838","materials/imgs/D29.png","arrowleft","","[""materials/imgs/D16.png"",""materials/imgs/D76.png""]","false","random","","",""
"","","","","","html-keyboard-response","104","229504","0.0-13.0-0.3-0.27","b3x64et4jd","","b3x64et4jd","""2024-11-12T18:52:58.206Z""","null","+","null","","","","","","",""
"","","","","","image-keyboard-response","105","230535","0.0-13.0-0.3-1.27","b3x64et4jd","","b3x64et4jd","""2024-11-12T18:52:58.206Z""","1028","materials/imgs/D82.png","arrowright","","[""materials/imgs/D104.png"",""materials/imgs/D87.png""]","false","random","","",""
"","","","","","html-keyboard-response","106","231036","0.0-13.0-1.3-0.3","b3x64et4jd","","b3x64et4jd","""2024-11-12T18:52:58.206Z""","null","+","null","","","","","","",""
"","","","","","image-keyboard-response","107","231622","0.0-13.0-1.3-1.3","b3x64et4jd","","b3x64et4jd","""2024-11-12T18:52:58.206Z""","584","materials/imgs/D101.png","arrowright","","[""materials/imgs/D106.png"",""materials/imgs/D101.png""]","","check","materials/imgs/D101.png","1","true"
"","","","","","html-keyboard-response","108","232123","0.0-13.0-2.3-0.6","b3x64et4jd","","b3x64et4jd","""2024-11-12T18:52:58.206Z""","null","+","null","","","","","","",""
"","","","","","image-keyboard-response","109","233856","0.0-13.0-2.3-1.6","b3x64et4jd","","b3x64et4jd","""2024-11-12T18:52:58.206Z""","1731","materials/imgs/D82.png","arrowright","","[""materials/imgs/D83.png"",""materials/imgs/D22.png""]","false","validation","","",""
"","","","","","html-keyboard-response","110","234358","0.0-13.0-2.3-0.7","b3x64et4jd","","b3x64et4jd","""2024-11-12T18:52:58.206Z""","null","+","null","","","","","","",""
"","","","","","image-keyboard-response","111","235542","0.0-13.0-2.3-1.7","b3x64et4jd","","b3x64et4jd","""2024-11-12T18:52:58.206Z""","1182","materials/imgs/D32.png","arrowleft","","[""materials/imgs/D68.png"",""materials/imgs/D96.png""]","false","validation","","",""
"","","","","","html-keyboard-response","112","236044","0.0-13.0-0.4-0.28","b3x64et4jd","","b3x64et4jd","""2024-11-12T18:52:58.206Z""","null","+","null","","","","","","",""
"","","","","","image-keyboard-response","113","237087","0.0-13.0-0.4-1.28","b3x64et4jd","","b3x64et4jd","""2024-11-12T18:52:58.206Z""","1040","materials/imgs/D8.png","arrowleft","","[""materials/imgs/D83.png"",""materials/imgs/D16.png""]","false","random","","",""
"","","","","","html-keyboard-response","114","237588","0.0-13.0-0.4-0.29","b3x64et4jd","","b3x64et4jd","""2024-11-12T18:52:58.206Z""","null","+","null","","","","","","",""
"","","","","","image-keyboard-response","115","238376","0.0-13.0-0.4-1.29","b3x64et4jd","","b3x64et4jd","""2024-11-12T18:52:58.206Z""","786","materials/imgs/D92.png","arrowleft","","[""materials/imgs/D29.png"",""materials/imgs/D55.png""]","false","random","","",""
"","","","","","html-keyboard-response","116","238878","0.0-13.0-0.4-0.30","b3x64et4jd","","b3x64et4jd","""2024-11-12T18:52:58.206Z""","null","+","null","","","","","","",""
"","","","","","image-keyboard-response","117","239761","0.0-13.0-0.4-1.30","b3x64et4jd","","b3x64et4jd","""2024-11-12T18:52:58.206Z""","881","materials/imgs/D66.png","arrowright","","[""materials/imgs/D68.png"",""materials/imgs/D3.png""]","false","random","","",""
"","","","","","html-keyboard-response","118","240263","0.0-13.0-0.4-0.31","b3x64et4jd","","b3x64et4jd","""2024-11-12T18:52:58.206Z""","null","+","null","","","","","","",""
"","","","","","image-keyboard-response","119","240988","0.0-13.0-0.4-1.31","b3x64et4jd","","b3x64et4jd","""2024-11-12T18:52:58.206Z""","724","materials/imgs/D57.png","arrowright","","[""materials/imgs/D11.png"",""materials/imgs/D9.png""]","false","random","","",""
"","","","","","html-keyboard-response","120","241489","0.0-13.0-0.4-0.32","b3x64et4jd","","b3x64et4jd","""2024-11-12T18:52:58.206Z""","null","+","null","","","","","","",""
"","","","","","image-keyboard-response","121","242661","0.0-13.0-0.4-1.32","b3x64et4jd","","b3x64et4jd","""2024-11-12T18:52:58.206Z""","1170","materials/imgs/D21.png","arrowright","","[""materials/imgs/D106.png"",""materials/imgs/D84.png""]","false","random","","",""
"","","","","","html-keyboard-response","122","243162","0.0-13.0-0.4-0.33","b3x64et4jd","","b3x64et4jd","""2024-11-12T18:52:58.206Z""","null","+","null","","","","","","",""
"","","","","","image-keyboard-response","123","244141","0.0-13.0-0.4-1.33","b3x64et4jd","","b3x64et4jd","""2024-11-12T18:52:58.206Z""","976","materials/imgs/D84.png","arrowleft","","[""materials/imgs/D83.png"",""materials/imgs/D56.png""]","false","random","","",""
"","","","","","html-keyboard-response","124","244642","0.0-13.0-0.4-0.34","b3x64et4jd","","b3x64et4jd","""2024-11-12T18:52:58.206Z""","null","+","null","","","","","","",""
"","","","","","image-keyboard-response","125","246088","0.0-13.0-0.4-1.34","b3x64et4jd","","b3x64et4jd","""2024-11-12T18:52:58.206Z""","1445","materials/imgs/D18.png","arrowleft","","[""materials/imgs/D51.png"",""materials/imgs/D79.png""]","false","random","","",""
"","","","","","html-keyboard-response","126","246590","0.0-13.0-1.4-0.4","b3x64et4jd","","b3x64et4jd","""2024-11-12T18:52:58.206Z""","null","+","null","","","","","","",""
"","","","","","image-keyboard-response","127","247215","0.0-13.0-1.4-1.4","b3x64et4jd","","b3x64et4jd","""2024-11-12T18:52:58.206Z""","623","materials/imgs/D26.png","arrowleft","","[""materials/imgs/D26.png"",""materials/imgs/D46.png""]","","check","materials/imgs/D26.png","0","true"
"","","","","","html-keyboard-response","128","247717","0.0-13.0-2.4-0.8","b3x64et4jd","","b3x64et4jd","""2024-11-12T18:52:58.206Z""","null","+","null","","","","","","",""
"","","","","","image-keyboard-response","129","249100","0.0-13.0-2.4-1.8","b3x64et4jd","","b3x64et4jd","""2024-11-12T18:52:58.206Z""","1381","materials/imgs/D92.png","arrowleft","","[""materials/imgs/D56.png"",""materials/imgs/D77.png""]","false","validation","","",""
"","","","","","html-keyboard-response","130","249601","0.0-13.0-2.4-0.9","b3x64et4jd","","b3x64et4jd","""2024-11-12T18:52:58.206Z""","null","+","null","","","","","","",""
"","","","","","image-keyboard-response","131","250493","0.0-13.0-2.4-1.9","b3x64et4jd","","b3x64et4jd","""2024-11-12T18:52:58.206Z""","891","materials/imgs/D76.png","arrowleft","","[""materials/imgs/D83.png"",""materials/imgs/D6.png""]","false","validation","","",""
"","","","","","html-button-response","132","261241","0.0-14.0","b3x64et4jd","","b3x64et4jd","""2024-11-12T18:52:58.206Z""","10747","You have completed 25% of the trials. Please click 'Continue' when you are ready proceed.","0","","","","","","",""
"","","","","","html-keyboard-response","133","261743","0.0-15.0-0.0-0.0","b3x64et4jd","","b3x64et4jd","""2024-11-12T18:52:58.206Z""","null","+","null","","","","","","",""
"","","","","","image-keyboard-response","134","262750","0.0-15.0-0.0-1.0","b3x64et4jd","","b3x64et4jd","""2024-11-12T18:52:58.206Z""","1005","materials/imgs/D29.png","arrowright","","[""materials/imgs/D24.png"",""materials/imgs/D4.png""]","false","random","","",""
"","","","","","html-keyboard-response","135","263251","0.0-15.0-0.0-0.1","b3x64et4jd","","b3x64et4jd","""2024-11-12T18:52:58.206Z""","null","+","null","","","","","","",""
"","","","","","image-keyboard-response","136","264517","0.0-15.0-0.0-1.1","b3x64et4jd","","b3x64et4jd","""2024-11-12T18:52:58.206Z""","1264","materials/imgs/D49.png","arrowleft","","[""materials/imgs/D80.png"",""materials/imgs/D101.png""]","false","random","","",""
"","","","","","html-keyboard-response","137","265019","0.0-15.0-0.0-0.2","b3x64et4jd","","b3x64et4jd","""2024-11-12T18:52:58.206Z""","null","+","null","","","","","","",""
"","","","","","image-keyboard-response","138","266908","0.0-15.0-0.0-1.2","b3x64et4jd","","b3x64et4jd","""2024-11-12T18:52:58.206Z""","1886","materials/imgs/D55.png","arrowleft","","[""materials/imgs/D87.png"",""materials/imgs/D101.png""]","false","random","","",""
"","","","","","html-keyboard-response","139","267409","0.0-15.0-0.0-0.3","b3x64et4jd","","b3x64et4jd","""2024-11-12T18:52:58.206Z""","null","+","null","","","","","","",""
"","","","","","image-keyboard-response","140","268834","0.0-15.0-0.0-1.3","b3x64et4jd","","b3x64et4jd","""2024-11-12T18:52:58.206Z""","1422","materials/imgs/D47.png","arrowleft","","[""materials/imgs/D36.png"",""materials/imgs/D6.png""]","false","random","","",""
"","","","","","html-keyboard-response","141","269335","0.0-15.0-0.0-0.4","b3x64et4jd","","b3x64et4jd","""2024-11-12T18:52:58.206Z""","null","+","null","","","","","","",""
"","","","","","image-keyboard-response","142","271334","0.0-15.0-0.0-1.4","b3x64et4jd","","b3x64et4jd","""2024-11-12T18:52:58.206Z""","1997","materials/imgs/D20.png","arrowright","","[""materials/imgs/D25.png"",""materials/imgs/D81.png""]","false","random","","",""
"","","","","","html-keyboard-response","143","271835","0.0-15.0-0.0-0.5","b3x64et4jd","","b3x64et4jd","""2024-11-12T18:52:58.206Z""","null","+","null","","","","","","",""
"","","","","","image-keyboard-response","144","272902","0.0-15.0-0.0-1.5","b3x64et4jd","","b3x64et4jd","""2024-11-12T18:52:58.206Z""","1064","materials/imgs/D111.png","arrowright","","[""materials/imgs/D16.png"",""materials/imgs/D29.png""]","false","random","","",""
"","","","","","html-keyboard-response","145","273403","0.0-15.0-0.0-0.6","b3x64et4jd","","b3x64et4jd","""2024-11-12T18:52:58.206Z""","null","+","null","","","","","","",""
"","","","","","image-keyboard-response","146","274307","0.0-15.0-0.0-1.6","b3x64et4jd","","b3x64et4jd","""2024-11-12T18:52:58.206Z""","903","materials/imgs/D35.png","arrowleft","","[""materials/imgs/D17.png"",""materials/imgs/D51.png""]","false","random","","",""
"","","","","","html-keyboard-response","147","274809","0.0-15.0-1.0-0.0","b3x64et4jd","","b3x64et4jd","""2024-11-12T18:52:58.206Z""","null","+","null","","","","","","",""
"","","","","","image-keyboard-response","148","275481","0.0-15.0-1.0-1.0","b3x64et4jd","","b3x64et4jd","""2024-11-12T18:52:58.206Z""","671","materials/imgs/D76.png","arrowleft","","[""materials/imgs/D76.png"",""materials/imgs/D78.png""]","","check","materials/imgs/D76.png","0","true"
"","","","","","html-keyboard-response","149","275983","0.0-15.0-2.0-0.0","b3x64et4jd","","b3x64et4jd","""2024-11-12T18:52:58.206Z""","null","+","null","","","","","","",""
"","","","","","image-keyboard-response","150","276955","0.0-15.0-2.0-1.0","b3x64et4jd","","b3x64et4jd","""2024-11-12T18:52:58.206Z""","970","materials/imgs/D3.png","arrowleft","","[""materials/imgs/D79.png"",""materials/imgs/D48.png""]","false","validation","","",""
"","","","","","html-keyboard-response","151","277456","0.0-15.0-2.0-0.1","b3x64et4jd","","b3x64et4jd","""2024-11-12T18:52:58.206Z""","null","+","null","","","","","","",""
"","","","","","image-keyboard-response","152","278490","0.0-15.0-2.0-1.1","b3x64et4jd","","b3x64et4jd","""2024-11-12T18:52:58.206Z""","1032","materials/imgs/D111.png","arrowleft","","[""materials/imgs/D82.png"",""materials/imgs/D95.png""]","false","validation","","",""
"","","","","","html-keyboard-response","153","278992","0.0-15.0-0.1-0.7","b3x64et4jd","","b3x64et4jd","""2024-11-12T18:52:58.206Z""","null","+","null","","","","","","",""
"","","","","","image-keyboard-response","154","280170","0.0-15.0-0.1-1.7","b3x64et4jd","","b3x64et4jd","""2024-11-12T18:52:58.206Z""","1176","materials/imgs/D75.png","arrowright","","[""materials/imgs/D85.png"",""materials/imgs/D103.png""]","false","random","","",""
"","","","","","html-keyboard-response","155","280672","0.0-15.0-0.1-0.8","b3x64et4jd","","b3x64et4jd","""2024-11-12T18:52:58.206Z""","null","+","null","","","","","","",""
"","","","","","image-keyboard-response","156","281750","0.0-15.0-0.1-1.8","b3x64et4jd","","b3x64et4jd","""2024-11-12T18:52:58.206Z""","1076","materials/imgs/D48.png","arrowleft","","[""materials/imgs/D81.png"",""materials/imgs/D25.png""]","false","random","","",""
"","","","","","html-keyboard-response","157","282251","0.0-15.0-0.1-0.9","b3x64et4jd","","b3x64et4jd","""2024-11-12T18:52:58.206Z""","null","+","null","","","","","","",""
"","","","","","image-keyboard-response","158","282894","0.0-15.0-0.1-1.9","b3x64et4jd","","b3x64et4jd","""2024-11-12T18:52:58.206Z""","641","materials/imgs/D79.png","arrowleft","","[""materials/imgs/D78.png"",""materials/imgs/D32.png""]","false","random","","",""
"","","","","","html-keyboard-response","159","283396","0.0-15.0-0.1-0.10","b3x64et4jd","","b3x64et4jd","""2024-11-12T18:52:58.206Z""","null","+","null","","","","","","",""
"","","","","","image-keyboard-response","160","284965","0.0-15.0-0.1-1.10","b3x64et4jd","","b3x64et4jd","""2024-11-12T18:52:58.206Z""","1567","materials/imgs/D21.png","arrowleft","","[""materials/imgs/D24.png"",""materials/imgs/D18.png""]","false","random","","",""
"","","","","","html-keyboard-response","161","285467","0.0-15.0-0.1-0.11","b3x64et4jd","","b3x64et4jd","""2024-11-12T18:52:58.206Z""","null","+","null","","","","","","",""
"","","","","","image-keyboard-response","162","291027","0.0-15.0-0.1-1.11","b3x64et4jd","","b3x64et4jd","""2024-11-12T18:52:58.206Z""","5558","materials/imgs/D95.png","arrowleft","","[""materials/imgs/D4.png"",""materials/imgs/D105.png""]","false","random","","",""
"","","","","","html-keyboard-response","163","291528","0.0-15.0-0.1-0.12","b3x64et4jd","","b3x64et4jd","""2024-11-12T18:52:58.206Z""","null","+","null","","","","","","",""
"","","","","","image-keyboard-response","164","300967","0.0-15.0-0.1-1.12","b3x64et4jd","","b3x64et4jd","""2024-11-12T18:52:58.206Z""","9437","materials/imgs/D1.png","arrowleft","","[""materials/imgs/D29.png"",""materials/imgs/D66.png""]","false","random","","",""
"","","","","","html-keyboard-response","165","301469","0.0-15.0-0.1-0.13","b3x64et4jd","","b3x64et4jd","""2024-11-12T18:52:58.206Z""","null","+","null","","","","","","",""
"","","","","","image-keyboard-response","166","303379","0.0-15.0-0.1-1.13","b3x64et4jd","","b3x64et4jd","""2024-11-12T18:52:58.206Z""","1908","materials/imgs/D24.png","arrowleft","","[""materials/imgs/D3.png"",""materials/imgs/D76.png""]","false","random","","",""
"","","","","","html-keyboard-response","167","303881","0.0-15.0-1.1-0.1","b3x64et4jd","","b3x64et4jd","""2024-11-12T18:52:58.206Z""","null","+","null","","","","","","",""
"","","","","","image-keyboard-response","168","304550","0.0-15.0-1.1-1.1","b3x64et4jd","","b3x64et4jd","""2024-11-12T18:52:58.206Z""","667","materials/imgs/D46.png","arrowleft","","[""materials/imgs/D46.png"",""materials/imgs/D26.png""]","","check","materials/imgs/D46.png","0","true"
"","","","","","html-keyboard-response","169","305051","0.0-15.0-2.1-0.2","b3x64et4jd","","b3x64et4jd","""2024-11-12T18:52:58.206Z""","null","+","null","","","","","","",""
"","","","","","image-keyboard-response","170","306263","0.0-15.0-2.1-1.2","b3x64et4jd","","b3x64et4jd","""2024-11-12T18:52:58.206Z""","1210","materials/imgs/D8.png","arrowleft","","[""materials/imgs/D101.png"",""materials/imgs/D52.png""]","false","validation","","",""
"","","","","","html-keyboard-response","171","306765","0.0-15.0-2.1-0.3","b3x64et4jd","","b3x64et4jd","""2024-11-12T18:52:58.206Z""","null","+","null","","","","","","",""
"","","","","","image-keyboard-response","172","307718","0.0-15.0-2.1-1.3","b3x64et4jd","","b3x64et4jd","""2024-11-12T18:52:58.206Z""","952","materials/imgs/D4.png","arrowleft","","[""materials/imgs/D52.png"",""materials/imgs/D83.png""]","false","validation","","",""
"","","","","","html-keyboard-response","173","308219","0.0-15.0-0.2-0.14","b3x64et4jd","","b3x64et4jd","""2024-11-12T18:52:58.206Z""","null","+","null","","","","","","",""
"","","","","","image-keyboard-response","174","309338","0.0-15.0-0.2-1.14","b3x64et4jd","","b3x64et4jd","""2024-11-12T18:52:58.206Z""","1116","materials/imgs/D84.png","arrowleft","","[""materials/imgs/D87.png"",""materials/imgs/D78.png""]","false","random","","",""
"","","","","","html-keyboard-response","175","309839","0.0-15.0-0.2-0.15","b3x64et4jd","","b3x64et4jd","""2024-11-12T18:52:58.206Z""","null","+","null","","","","","","",""
"","","","","","image-keyboard-response","176","310720","0.0-15.0-0.2-1.15","b3x64et4jd","","b3x64et4jd","""2024-11-12T18:52:58.206Z""","879","materials/imgs/D75.png","arrowright","","[""materials/imgs/D25.png"",""materials/imgs/D94.png""]","false","random","","",""
"","","","","","html-keyboard-response","177","311222","0.0-15.0-0.2-0.16","b3x64et4jd","","b3x64et4jd","""2024-11-12T18:52:58.206Z""","null","+","null","","","","","","",""
"","","","","","image-keyboard-response","178","312079","0.0-15.0-0.2-1.16","b3x64et4jd","","b3x64et4jd","""2024-11-12T18:52:58.206Z""","854","materials/imgs/D56.png","arrowleft","","[""materials/imgs/D64.png"",""materials/imgs/D3.png""]","false","random","","",""
"","","","","","html-keyboard-response","179","312580","0.0-15.0-0.2-0.17","b3x64et4jd","","b3x64et4jd","""2024-11-12T18:52:58.206Z""","null","+","null","","","","","","",""
"","","","","","image-keyboard-response","180","313583","0.0-15.0-0.2-1.17","b3x64et4jd","","b3x64et4jd","""2024-11-12T18:52:58.206Z""","1001","materials/imgs/D92.png","arrowleft","","[""materials/imgs/D87.png"",""materials/imgs/D76.png""]","false","random","","",""
"","","","","","html-keyboard-response","181","314085","0.0-15.0-0.2-0.18","b3x64et4jd","","b3x64et4jd","""2024-11-12T18:52:58.206Z""","null","+","null","","","","","","",""
"","","","","","image-keyboard-response","182","316086","0.0-15.0-0.2-1.18","b3x64et4jd","","b3x64et4jd","""2024-11-12T18:52:58.206Z""","1999","materials/imgs/D26.png","arrowleft","","[""materials/imgs/D55.png"",""materials/imgs/D104.png""]","false","random","","",""
"","","","","","html-keyboard-response","183","316587","0.0-15.0-0.2-0.19","b3x64et4jd","","b3x64et4jd","""2024-11-12T18:52:58.206Z""","null","+","null","","","","","","",""
"","","","","","image-keyboard-response","184","318439","0.0-15.0-0.2-1.19","b3x64et4jd","","b3x64et4jd","""2024-11-12T18:52:58.206Z""","1850","materials/imgs/D16.png","arrowright","","[""materials/imgs/D11.png"",""materials/imgs/D80.png""]","false","random","","",""
"","","","","","html-keyboard-response","185","318941","0.0-15.0-0.2-0.20","b3x64et4jd","","b3x64et4jd","""2024-11-12T18:52:58.206Z""","null","+","null","","","","","","",""
"","","","","","image-keyboard-response","186","320862","0.0-15.0-0.2-1.20","b3x64et4jd","","b3x64et4jd","""2024-11-12T18:52:58.206Z""","1920","materials/imgs/D55.png","arrowright","","[""materials/imgs/D46.png"",""materials/imgs/D47.png""]","false","random","","",""
"","","","","","html-keyboard-response","187","321363","0.0-15.0-1.2-0.2","b3x64et4jd","","b3x64et4jd","""2024-11-12T18:52:58.206Z""","null","+","null","","","","","","",""
"","","","","","image-keyboard-response","188","321996","0.0-15.0-1.2-1.2","b3x64et4jd","","b3x64et4jd","""2024-11-12T18:52:58.206Z""","630","materials/imgs/D101.png","arrowright","","[""materials/imgs/D106.png"",""materials/imgs/D101.png""]","","check","materials/imgs/D101.png","1","true"
"","","","","","html-keyboard-response","189","322497","0.0-15.0-2.2-0.4","b3x64et4jd","","b3x64et4jd","""2024-11-12T18:52:58.206Z""","null","+","null","","","","","","",""
"","","","","","image-keyboard-response","190","324083","0.0-15.0-2.2-1.4","b3x64et4jd","","b3x64et4jd","""2024-11-12T18:52:58.206Z""","1584","materials/imgs/D81.png","arrowright","","[""materials/imgs/D105.png"",""materials/imgs/D24.png""]","false","validation","","",""
"","","","","","html-keyboard-response","191","324585","0.0-15.0-2.2-0.5","b3x64et4jd","","b3x64et4jd","""2024-11-12T18:52:58.206Z""","null","+","null","","","","","","",""
"","","","","","image-keyboard-response","192","325467","0.0-15.0-2.2-1.5","b3x64et4jd","","b3x64et4jd","""2024-11-12T18:52:58.206Z""","881","materials/imgs/D103.png","arrowleft","","[""materials/imgs/D76.png"",""materials/imgs/D106.png""]","false","validation","","",""
"","","","","","html-keyboard-response","193","325969","0.0-15.0-0.3-0.21","b3x64et4jd","","b3x64et4jd","""2024-11-12T18:52:58.206Z""","null","+","null","","","","","","",""
"","","","","","image-keyboard-response","194","327018","0.0-15.0-0.3-1.21","b3x64et4jd","","b3x64et4jd","""2024-11-12T18:52:58.206Z""","1047","materials/imgs/D26.png","arrowright","","[""materials/imgs/D35.png"",""materials/imgs/D49.png""]","false","random","","",""
"","","","","","html-keyboard-response","195","327519","0.0-15.0-0.3-0.22","b3x64et4jd","","b3x64et4jd","""2024-11-12T18:52:58.206Z""","null","+","null","","","","","","",""
"","","","","","image-keyboard-response","196","328717","0.0-15.0-0.3-1.22","b3x64et4jd","","b3x64et4jd","""2024-11-12T18:52:58.206Z""","1196","materials/imgs/D9.png","arrowright","","[""materials/imgs/D96.png"",""materials/imgs/D4.png""]","false","random","","",""
"","","","","","html-keyboard-response","197","329218","0.0-15.0-0.3-0.23","b3x64et4jd","","b3x64et4jd","""2024-11-12T18:52:58.206Z""","null","+","null","","","","","","",""
"","","","","","image-keyboard-response","198","330459","0.0-15.0-0.3-1.23","b3x64et4jd","","b3x64et4jd","""2024-11-12T18:52:58.206Z""","1239","materials/imgs/D101.png","arrowright","","[""materials/imgs/D78.png"",""materials/imgs/D20.png""]","false","random","","",""
"","","","","","html-keyboard-response","199","330960","0.0-15.0-0.3-0.24","b3x64et4jd","","b3x64et4jd","""2024-11-12T18:52:58.206Z""","null","+","null","","","","","","",""
"","","","","","image-keyboard-response","200","332029","0.0-15.0-0.3-1.24","b3x64et4jd","","b3x64et4jd","""2024-11-12T18:52:58.206Z""","1067","materials/imgs/D106.png","arrowleft","","[""materials/imgs/D34.png"",""materials/imgs/D96.png""]","false","random","","",""
"","","","","","html-keyboard-response","201","332530","0.0-15.0-0.3-0.25","b3x64et4jd","","b3x64et4jd","""2024-11-12T18:52:58.206Z""","null","+","null","","","","","","",""
"","","","","","image-keyboard-response","202","333635","0.0-15.0-0.3-1.25","b3x64et4jd","","b3x64et4jd","""2024-11-12T18:52:58.206Z""","1103","materials/imgs/D49.png","arrowright","","[""materials/imgs/D65.png"",""materials/imgs/D37.png""]","false","random","","",""
"","","","","","html-keyboard-response","203","334136","0.0-15.0-0.3-0.26","b3x64et4jd","","b3x64et4jd","""2024-11-12T18:52:58.206Z""","null","+","null","","","","","","",""
"","","","","","image-keyboard-response","204","336327","0.0-15.0-0.3-1.26","b3x64et4jd","","b3x64et4jd","""2024-11-12T18:52:58.206Z""","2188","materials/imgs/D49.png","arrowleft","","[""materials/imgs/D82.png"",""materials/imgs/D34.png""]","false","random","","",""
"","","","","","html-keyboard-response","205","336828","0.0-15.0-0.3-0.27","b3x64et4jd","","b3x64et4jd","""2024-11-12T18:52:58.206Z""","null","+","null","","","","","","",""
"","","","","","image-keyboard-response","206","341189","0.0-15.0-0.3-1.27","b3x64et4jd","","b3x64et4jd","""2024-11-12T18:52:58.206Z""","4359","materials/imgs/D80.png","arrowright","","[""materials/imgs/D79.png"",""materials/imgs/D78.png""]","false","random","","",""
"","","","","","html-keyboard-response","207","341691","0.0-15.0-1.3-0.3","b3x64et4jd","","b3x64et4jd","""2024-11-12T18:52:58.206Z""","null","+","null","","","","","","",""
"","","","","","image-keyboard-response","208","342386","0.0-15.0-1.3-1.3","b3x64et4jd","","b3x64et4jd","""2024-11-12T18:52:58.206Z""","685","materials/imgs/D64.png","arrowleft","","[""materials/imgs/D64.png"",""materials/imgs/D53.png""]","","check","materials/imgs/D64.png","0","true"
"","","","","","html-keyboard-response","209","342887","0.0-15.0-2.3-0.6","b3x64et4jd","","b3x64et4jd","""2024-11-12T18:52:58.206Z""","null","+","null","","","","","","",""
"","","","","","image-keyboard-response","210","344052","0.0-15.0-2.3-1.6","b3x64et4jd","","b3x64et4jd","""2024-11-12T18:52:58.206Z""","1163","materials/imgs/D79.png","arrowleft","","[""materials/imgs/D51.png"",""materials/imgs/D64.png""]","false","validation","","",""
"","","","","","html-keyboard-response","211","344553","0.0-15.0-2.3-0.7","b3x64et4jd","","b3x64et4jd","""2024-11-12T18:52:58.206Z""","null","+","null","","","","","","",""
"","","","","","image-keyboard-response","212","346636","0.0-15.0-2.3-1.7","b3x64et4jd","","b3x64et4jd","""2024-11-12T18:52:58.206Z""","2081","materials/imgs/D26.png","arrowleft","","[""materials/imgs/D36.png"",""materials/imgs/D92.png""]","false","validation","","",""
"","","","","","html-keyboard-response","213","347138","0.0-15.0-0.4-0.28","b3x64et4jd","","b3x64et4jd","""2024-11-12T18:52:58.206Z""","null","+","null","","","","","","",""
"","","","","","image-keyboard-response","214","348388","0.0-15.0-0.4-1.28","b3x64et4jd","","b3x64et4jd","""2024-11-12T18:52:58.206Z""","1248","materials/imgs/D47.png","arrowleft","","[""materials/imgs/D18.png"",""materials/imgs/D4.png""]","false","random","","",""
"","","","","","html-keyboard-response","215","348889","0.0-15.0-0.4-0.29","b3x64et4jd","","b3x64et4jd","""2024-11-12T18:52:58.206Z""","null","+","null","","","","","","",""
"","","","","","image-keyboard-response","216","350806","0.0-15.0-0.4-1.29","b3x64et4jd","","b3x64et4jd","""2024-11-12T18:52:58.206Z""","1915","materials/imgs/D37.png","arrowleft","","[""materials/imgs/D84.png"",""materials/imgs/D74.png""]","false","random","","",""
"","","","","","html-keyboard-response","217","351308","0.0-15.0-0.4-0.30","b3x64et4jd","","b3x64et4jd","""2024-11-12T18:52:58.206Z""","null","+","null","","","","","","",""
"","","","","","image-keyboard-response","218","357502","0.0-15.0-0.4-1.30","b3x64et4jd","","b3x64et4jd","""2024-11-12T18:52:58.206Z""","6193","materials/imgs/D94.png","arrowleft","","[""materials/imgs/D105.png"",""materials/imgs/D29.png""]","false","random","","",""
"","","","","","html-keyboard-response","219","358003","0.0-15.0-0.4-0.31","b3x64et4jd","","b3x64et4jd","""2024-11-12T18:52:58.206Z""","null","+","null","","","","","","",""
"","","","","","image-keyboard-response","220","359423","0.0-15.0-0.4-1.31","b3x64et4jd","","b3x64et4jd","""2024-11-12T18:52:58.206Z""","1418","materials/imgs/D84.png","arrowright","","[""materials/imgs/D83.png"",""materials/imgs/D68.png""]","false","random","","",""
"","","","","","html-keyboard-response","221","359925","0.0-15.0-0.4-0.32","b3x64et4jd","","b3x64et4jd","""2024-11-12T18:52:58.206Z""","null","+","null","","","","","","",""
"","","","","","image-keyboard-response","222","361421","0.0-15.0-0.4-1.32","b3x64et4jd","","b3x64et4jd","""2024-11-12T18:52:58.206Z""","1494","materials/imgs/D17.png","arrowright","","[""materials/imgs/D82.png"",""materials/imgs/D68.png""]","false","random","","",""
"","","","","","html-keyboard-response","223","361922","0.0-15.0-0.4-0.33","b3x64et4jd","","b3x64et4jd","""2024-11-12T18:52:58.206Z""","null","+","null","","","","","","",""
"","","","","","image-keyboard-response","224","363605","0.0-15.0-0.4-1.33","b3x64et4jd","","b3x64et4jd","""2024-11-12T18:52:58.206Z""","1681","materials/imgs/D66.png","arrowright","","[""materials/imgs/D68.png"",""materials/imgs/D16.png""]","false","random","","",""
"","","","","","html-keyboard-response","225","364105","0.0-15.0-0.4-0.34","b3x64et4jd","","b3x64et4jd","""2024-11-12T18:52:58.206Z""","null","+","null","","","","","","",""
"","","","","","image-keyboard-response","226","365291","0.0-15.0-0.4-1.34","b3x64et4jd","","b3x64et4jd","""2024-11-12T18:52:58.206Z""","1184","materials/imgs/D79.png","arrowright","","[""materials/imgs/D111.png"",""materials/imgs/D80.png""]","false","random","","",""
"","","","","","html-keyboard-response","227","365793","0.0-15.0-1.4-0.4","b3x64et4jd","","b3x64et4jd","""2024-11-12T18:52:58.206Z""","null","+","null","","","","","","",""
"","","","","","image-keyboard-response","228","366389","0.0-15.0-1.4-1.4","b3x64et4jd","","b3x64et4jd","""2024-11-12T18:52:58.206Z""","595","materials/imgs/D101.png","arrowright","","[""materials/imgs/D106.png"",""materials/imgs/D101.png""]","","check","materials/imgs/D101.png","1","true"
"","","","","","html-keyboard-response","229","366891","0.0-15.0-2.4-0.8","b3x64et4jd","","b3x64et4jd","""2024-11-12T18:52:58.206Z""","null","+","null","","","","","","",""
"","","","","","image-keyboard-response","230","368956","0.0-15.0-2.4-1.8","b3x64et4jd","","b3x64et4jd","""2024-11-12T18:52:58.206Z""","2063","materials/imgs/D65.png","arrowleft","","[""materials/imgs/D4.png"",""materials/imgs/D16.png""]","false","validation","","",""
"","","","","","html-keyboard-response","231","369458","0.0-15.0-2.4-0.9","b3x64et4jd","","b3x64et4jd","""2024-11-12T18:52:58.206Z""","null","+","null","","","","","","",""
"","","","","","image-keyboard-response","232","370521","0.0-15.0-2.4-1.9","b3x64et4jd","","b3x64et4jd","""2024-11-12T18:52:58.206Z""","1062","materials/imgs/D9.png","arrowright","","[""materials/imgs/D103.png"",""materials/imgs/D4.png""]","false","validation","","",""
"","","","","","html-button-response","233","377583","0.0-16.0","b3x64et4jd","","b3x64et4jd","""2024-11-12T18:52:58.206Z""","7061","You have completed 50% of the trials. Please click 'Continue' when you are ready proceed.","0","","","","","","",""
"","","","","","html-keyboard-response","234","378085","0.0-17.0-0.0-0.0","b3x64et4jd","","b3x64et4jd","""2024-11-12T18:52:58.206Z""","null","+","null","","","","","","",""
"","","","","","image-keyboard-response","235","379666","0.0-17.0-0.0-1.0","b3x64et4jd","","b3x64et4jd","""2024-11-12T18:52:58.206Z""","1579","materials/imgs/D32.png","arrowright","","[""materials/imgs/D76.png"",""materials/imgs/D22.png""]","false","random","","",""
"","","","","","html-keyboard-response","236","380168","0.0-17.0-0.0-0.1","b3x64et4jd","","b3x64et4jd","""2024-11-12T18:52:58.206Z""","null","+","null","","","","","","",""
"","","","","","image-keyboard-response","237","380895","0.0-17.0-0.0-1.1","b3x64et4jd","","b3x64et4jd","""2024-11-12T18:52:58.206Z""","724","materials/imgs/D56.png","arrowright","","[""materials/imgs/D66.png"",""materials/imgs/D104.png""]","false","random","","",""
"","","","","","html-keyboard-response","238","381396","0.0-17.0-0.0-0.2","b3x64et4jd","","b3x64et4jd","""2024-11-12T18:52:58.206Z""","null","+","null","","","","","","",""
"","","","","","image-keyboard-response","239","382648","0.0-17.0-0.0-1.2","b3x64et4jd","","b3x64et4jd","""2024-11-12T18:52:58.206Z""","1251","materials/imgs/D101.png","arrowleft","","[""materials/imgs/D36.png"",""materials/imgs/D85.png""]","false","random","","",""
"","","","","","html-keyboard-response","240","383150","0.0-17.0-0.0-0.3","b3x64et4jd","","b3x64et4jd","""2024-11-12T18:52:58.206Z""","null","+","null","","","","","","",""
"","","","","","image-keyboard-response","241","385024","0.0-17.0-0.0-1.3","b3x64et4jd","","b3x64et4jd","""2024-11-12T18:52:58.206Z""","1873","materials/imgs/D9.png","arrowleft","","[""materials/imgs/D35.png"",""materials/imgs/D21.png""]","false","random","","",""
"","","","","","html-keyboard-response","242","385526","0.0-17.0-0.0-0.4","b3x64et4jd","","b3x64et4jd","""2024-11-12T18:52:58.206Z""","null","+","null","","","","","","",""
"","","","","","image-keyboard-response","243","386271","0.0-17.0-0.0-1.4","b3x64et4jd","","b3x64et4jd","""2024-11-12T18:52:58.206Z""","743","materials/imgs/D84.png","arrowright","","[""materials/imgs/D6.png"",""materials/imgs/D92.png""]","false","random","","",""
"","","","","","html-keyboard-response","244","386773","0.0-17.0-0.0-0.5","b3x64et4jd","","b3x64et4jd","""2024-11-12T18:52:58.206Z""","null","+","null","","","","","","",""
"","","","","","image-keyboard-response","245","387430","0.0-17.0-0.0-1.5","b3x64et4jd","","b3x64et4jd","""2024-11-12T18:52:58.206Z""","655","materials/imgs/D6.png","arrowright","","[""materials/imgs/D64.png"",""materials/imgs/D77.png""]","false","random","","",""
"","","","","","html-keyboard-response","246","387932","0.0-17.0-0.0-0.6","b3x64et4jd","","b3x64et4jd","""2024-11-12T18:52:58.206Z""","null","+","null","","","","","","",""
"","","","","","image-keyboard-response","247","390797","0.0-17.0-0.0-1.6","b3x64et4jd","","b3x64et4jd","""2024-11-12T18:52:58.206Z""","2863","materials/imgs/D20.png","arrowleft","","[""materials/imgs/D83.png"",""materials/imgs/D8.png""]","false","random","","",""
"","","","","","html-keyboard-response","248","391298","0.0-17.0-1.0-0.0","b3x64et4jd","","b3x64et4jd","""2024-11-12T18:52:58.206Z""","null","+","null","","","","","","",""
"","","","","","image-keyboard-response","249","391863","0.0-17.0-1.0-1.0","b3x64et4jd","","b3x64et4jd","""2024-11-12T18:52:58.206Z""","563","materials/imgs/D101.png","arrowright","","[""materials/imgs/D106.png"",""materials/imgs/D101.png""]","","check","materials/imgs/D101.png","1","true"
"","","","","","html-keyboard-response","250","392364","0.0-17.0-2.0-0.0","b3x64et4jd","","b3x64et4jd","""2024-11-12T18:52:58.206Z""","null","+","null","","","","","","",""
"","","","","","image-keyboard-response","251","393207","0.0-17.0-2.0-1.0","b3x64et4jd","","b3x64et4jd","""2024-11-12T18:52:58.206Z""","841","materials/imgs/D92.png","arrowleft","","[""materials/imgs/D56.png"",""materials/imgs/D77.png""]","false","validation","","",""
"","","","","","html-keyboard-response","252","393709","0.0-17.0-2.0-0.1","b3x64et4jd","","b3x64et4jd","""2024-11-12T18:52:58.206Z""","null","+","null","","","","","","",""
"","","","","","image-keyboard-response","253","394975","0.0-17.0-2.0-1.1","b3x64et4jd","","b3x64et4jd","""2024-11-12T18:52:58.206Z""","1265","materials/imgs/D66.png","arrowright","","[""materials/imgs/D85.png"",""materials/imgs/D25.png""]","false","validation","","",""
"","","","","","html-keyboard-response","254","395476","0.0-17.0-0.1-0.7","b3x64et4jd","","b3x64et4jd","""2024-11-12T18:52:58.206Z""","null","+","null","","","","","","",""
"","","","","","image-keyboard-response","255","396633","0.0-17.0-0.1-1.7","b3x64et4jd","","b3x64et4jd","""2024-11-12T18:52:58.206Z""","1156","materials/imgs/D1.png","arrowright","","[""materials/imgs/D68.png"",""materials/imgs/D51.png""]","false","random","","",""
"","","","","","html-keyboard-response","256","397135","0.0-17.0-0.1-0.8","b3x64et4jd","","b3x64et4jd","""2024-11-12T18:52:58.206Z""","null","+","null","","","","","","",""
"","","","","","image-keyboard-response","257","397996","0.0-17.0-0.1-1.8","b3x64et4jd","","b3x64et4jd","""2024-11-12T18:52:58.206Z""","858","materials/imgs/D80.png","arrowright","","[""materials/imgs/D74.png"",""materials/imgs/D53.png""]","false","random","","",""
"","","","","","html-keyboard-response","258","398497","0.0-17.0-0.1-0.9","b3x64et4jd","","b3x64et4jd","""2024-11-12T18:52:58.206Z""","null","+","null","","","","","","",""
"","","","","","image-keyboard-response","259","399397","0.0-17.0-0.1-1.9","b3x64et4jd","","b3x64et4jd","""2024-11-12T18:52:58.206Z""","897","materials/imgs/D76.png","arrowleft","","[""materials/imgs/D9.png"",""materials/imgs/D83.png""]","false","random","","",""
"","","","","","html-keyboard-response","260","399898","0.0-17.0-0.1-0.10","b3x64et4jd","","b3x64et4jd","""2024-11-12T18:52:58.206Z""","null","+","null","","","","","","",""
"","","","","","image-keyboard-response","261","401521","0.0-17.0-0.1-1.10","b3x64et4jd","","b3x64et4jd","""2024-11-12T18:52:58.206Z""","1621","materials/imgs/D82.png","arrowright","","[""materials/imgs/D85.png"",""materials/imgs/D32.png""]","false","random","","",""
"","","","","","html-keyboard-response","262","402022","0.0-17.0-0.1-0.11","b3x64et4jd","","b3x64et4jd","""2024-11-12T18:52:58.206Z""","null","+","null","","","","","","",""
"","","","","","image-keyboard-response","263","402992","0.0-17.0-0.1-1.11","b3x64et4jd","","b3x64et4jd","""2024-11-12T18:52:58.206Z""","968","materials/imgs/D102.png","arrowright","","[""materials/imgs/D35.png"",""materials/imgs/D52.png""]","false","random","","",""
"","","","","","html-keyboard-response","264","403494","0.0-17.0-0.1-0.12","b3x64et4jd","","b3x64et4jd","""2024-11-12T18:52:58.206Z""","null","+","null","","","","","","",""
"","","","","","image-keyboard-response","265","405348","0.0-17.0-0.1-1.12","b3x64et4jd","","b3x64et4jd","""2024-11-12T18:52:58.206Z""","1853","materials/imgs/D3.png","arrowleft","","[""materials/imgs/D6.png"",""materials/imgs/D9.png""]","false","random","","",""
"","","","","","html-keyboard-response","266","405850","0.0-17.0-0.1-0.13","b3x64et4jd","","b3x64et4jd","""2024-11-12T18:52:58.206Z""","null","+","null","","","","","","",""
"","","","","","image-keyboard-response","267","408461","0.0-17.0-0.1-1.13","b3x64et4jd","","b3x64et4jd","""2024-11-12T18:52:58.206Z""","2609","materials/imgs/D55.png","arrowright","","[""materials/imgs/D49.png"",""materials/imgs/D56.png""]","false","random","","",""
"","","","","","html-keyboard-response","268","408962","0.0-17.0-1.1-0.1","b3x64et4jd","","b3x64et4jd","""2024-11-12T18:52:58.206Z""","null","+","null","","","","","","",""
"","","","","","image-keyboard-response","269","409514","0.0-17.0-1.1-1.1","b3x64et4jd","","b3x64et4jd","""2024-11-12T18:52:58.206Z""","550","materials/imgs/D53.png","arrowright","","[""materials/imgs/D64.png"",""materials/imgs/D53.png""]","","check","materials/imgs/D53.png","1","true"
"","","","","","html-keyboard-response","270","410015","0.0-17.0-2.1-0.2","b3x64et4jd","","b3x64et4jd","""2024-11-12T18:52:58.206Z""","null","+","null","","","","","","",""
"","","","","","image-keyboard-response","271","410630","0.0-17.0-2.1-1.2","b3x64et4jd","","b3x64et4jd","""2024-11-12T18:52:58.206Z""","613","materials/imgs/D47.png","arrowleft","","[""materials/imgs/D1.png"",""materials/imgs/D52.png""]","false","validation","","",""
"","","","","","html-keyboard-response","272","411131","0.0-17.0-2.1-0.3","b3x64et4jd","","b3x64et4jd","""2024-11-12T18:52:58.206Z""","null","+","null","","","","","","",""
"","","","","","image-keyboard-response","273","411737","0.0-17.0-2.1-1.3","b3x64et4jd","","b3x64et4jd","""2024-11-12T18:52:58.206Z""","604","materials/imgs/D105.png","arrowleft","","[""materials/imgs/D106.png"",""materials/imgs/D52.png""]","false","validation","","",""
"","","","","","html-keyboard-response","274","412238","0.0-17.0-0.2-0.14","b3x64et4jd","","b3x64et4jd","""2024-11-12T18:52:58.206Z""","null","+","null","","","","","","",""
"","","","","","image-keyboard-response","275","412960","0.0-17.0-0.2-1.14","b3x64et4jd","","b3x64et4jd","""2024-11-12T18:52:58.206Z""","720","materials/imgs/D20.png","arrowright","","[""materials/imgs/D49.png"",""materials/imgs/D19.png""]","false","random","","",""
"","","","","","html-keyboard-response","276","413461","0.0-17.0-0.2-0.15","b3x64et4jd","","b3x64et4jd","""2024-11-12T18:52:58.206Z""","null","+","null","","","","","","",""
"","","","","","image-keyboard-response","277","414923","0.0-17.0-0.2-1.15","b3x64et4jd","","b3x64et4jd","""2024-11-12T18:52:58.206Z""","1459","materials/imgs/D11.png","arrowright","","[""materials/imgs/D32.png"",""materials/imgs/D75.png""]","false","random","","",""
"","","","","","html-keyboard-response","278","415425","0.0-17.0-0.2-0.16","b3x64et4jd","","b3x64et4jd","""2024-11-12T18:52:58.206Z""","null","+","null","","","","","","",""
"","","","","","image-keyboard-response","279","416638","0.0-17.0-0.2-1.16","b3x64et4jd","","b3x64et4jd","""2024-11-12T18:52:58.206Z""","1211","materials/imgs/D111.png","arrowleft","","[""materials/imgs/D32.png"",""materials/imgs/D4.png""]","false","random","","",""
"","","","","","html-keyboard-response","280","417139","0.0-17.0-0.2-0.17","b3x64et4jd","","b3x64et4jd","""2024-11-12T18:52:58.206Z""","null","+","null","","","","","","",""
"","","","","","image-keyboard-response","281","418196","0.0-17.0-0.2-1.17","b3x64et4jd","","b3x64et4jd","""2024-11-12T18:52:58.206Z""","1054","materials/imgs/D53.png","arrowleft","","[""materials/imgs/D106.png"",""materials/imgs/D94.png""]","false","random","","",""
"","","","","","html-keyboard-response","282","418697","0.0-17.0-0.2-0.18","b3x64et4jd","","b3x64et4jd","""2024-11-12T18:52:58.206Z""","null","+","null","","","","","","",""
"","","","","","image-keyboard-response","283","420604","0.0-17.0-0.2-1.18","b3x64et4jd","","b3x64et4jd","""2024-11-12T18:52:58.206Z""","1904","materials/imgs/D101.png","arrowleft","","[""materials/imgs/D35.png"",""materials/imgs/D24.png""]","false","random","","",""
"","","","","","html-keyboard-response","284","421105","0.0-17.0-0.2-0.19","b3x64et4jd","","b3x64et4jd","""2024-11-12T18:52:58.206Z""","null","+","null","","","","","","",""
"","","","","","image-keyboard-response","285","422520","0.0-17.0-0.2-1.19","b3x64et4jd","","b3x64et4jd","""2024-11-12T18:52:58.206Z""","1413","materials/imgs/D77.png","arrowleft","","[""materials/imgs/D19.png"",""materials/imgs/D95.png""]","false","random","","",""
"","","","","","html-keyboard-response","286","423021","0.0-17.0-0.2-0.20","b3x64et4jd","","b3x64et4jd","""2024-11-12T18:52:58.206Z""","null","+","null","","","","","","",""
"","","","","","image-keyboard-response","287","424074","0.0-17.0-0.2-1.20","b3x64et4jd","","b3x64et4jd","""2024-11-12T18:52:58.206Z""","1051","materials/imgs/D20.png","arrowright","","[""materials/imgs/D11.png"",""materials/imgs/D18.png""]","false","random","","",""
"","","","","","html-keyboard-response","288","424576","0.0-17.0-1.2-0.2","b3x64et4jd","","b3x64et4jd","""2024-11-12T18:52:58.206Z""","null","+","null","","","","","","",""
"","","","","","image-keyboard-response","289","425260","0.0-17.0-1.2-1.2","b3x64et4jd","","b3x64et4jd","""2024-11-12T18:52:58.206Z""","683","materials/imgs/D76.png","arrowleft","","[""materials/imgs/D76.png"",""materials/imgs/D78.png""]","","check","materials/imgs/D76.png","0","true"
"","","","","","html-keyboard-response","290","425762","0.0-17.0-2.2-0.4","b3x64et4jd","","b3x64et4jd","""2024-11-12T18:52:58.206Z""","null","+","null","","","","","","",""
"","","","","","image-keyboard-response","291","426748","0.0-17.0-2.2-1.4","b3x64et4jd","","b3x64et4jd","""2024-11-12T18:52:58.206Z""","984","materials/imgs/D26.png","arrowright","","[""materials/imgs/D36.png"",""materials/imgs/D92.png""]","false","validation","","",""
"","","","","","html-keyboard-response","292","427248","0.0-17.0-2.2-0.5","b3x64et4jd","","b3x64et4jd","""2024-11-12T18:52:58.206Z""","null","+","null","","","","","","",""
"","","","","","image-keyboard-response","293","428567","0.0-17.0-2.2-1.5","b3x64et4jd","","b3x64et4jd","""2024-11-12T18:52:58.206Z""","1316","materials/imgs/D76.png","arrowleft","","[""materials/imgs/D83.png"",""materials/imgs/D6.png""]","false","validation","","",""
"","","","","","html-keyboard-response","294","429068","0.0-17.0-0.3-0.21","b3x64et4jd","","b3x64et4jd","""2024-11-12T18:52:58.206Z""","null","+","null","","","","","","",""
"","","","","","image-keyboard-response","295","429964","0.0-17.0-0.3-1.21","b3x64et4jd","","b3x64et4jd","""2024-11-12T18:52:58.206Z""","894","materials/imgs/D55.png","arrowleft","","[""materials/imgs/D22.png"",""materials/imgs/D74.png""]","false","random","","",""
"","","","","","html-keyboard-response","296","430466","0.0-17.0-0.3-0.22","b3x64et4jd","","b3x64et4jd","""2024-11-12T18:52:58.206Z""","null","+","null","","","","","","",""
"","","","","","image-keyboard-response","297","432291","0.0-17.0-0.3-1.22","b3x64et4jd","","b3x64et4jd","""2024-11-12T18:52:58.206Z""","1823","materials/imgs/D81.png","arrowleft","","[""materials/imgs/D51.png"",""materials/imgs/D48.png""]","false","random","","",""
"","","","","","html-keyboard-response","298","432792","0.0-17.0-0.3-0.23","b3x64et4jd","","b3x64et4jd","""2024-11-12T18:52:58.206Z""","null","+","null","","","","","","",""
"","","","","","image-keyboard-response","299","433624","0.0-17.0-0.3-1.23","b3x64et4jd","","b3x64et4jd","""2024-11-12T18:52:58.206Z""","829","materials/imgs/D3.png","arrowright","","[""materials/imgs/D47.png"",""materials/imgs/D22.png""]","false","random","","",""
"","","","","","html-keyboard-response","300","434125","0.0-17.0-0.3-0.24","b3x64et4jd","","b3x64et4jd","""2024-11-12T18:52:58.206Z""","null","+","null","","","","","","",""
"","","","","","image-keyboard-response","301","435913","0.0-17.0-0.3-1.24","b3x64et4jd","","b3x64et4jd","""2024-11-12T18:52:58.206Z""","1787","materials/imgs/D52.png","arrowright","","[""materials/imgs/D76.png"",""materials/imgs/D53.png""]","false","random","","",""
"","","","","","html-keyboard-response","302","436414","0.0-17.0-0.3-0.25","b3x64et4jd","","b3x64et4jd","""2024-11-12T18:52:58.206Z""","null","+","null","","","","","","",""
"","","","","","image-keyboard-response","303","438249","0.0-17.0-0.3-1.25","b3x64et4jd","","b3x64et4jd","""2024-11-12T18:52:58.206Z""","1832","materials/imgs/D3.png","arrowright","","[""materials/imgs/D101.png"",""materials/imgs/D68.png""]","false","random","","",""
"","","","","","html-keyboard-response","304","438750","0.0-17.0-0.3-0.26","b3x64et4jd","","b3x64et4jd","""2024-11-12T18:52:58.206Z""","null","+","null","","","","","","",""
"","","","","","image-keyboard-response","305","439705","0.0-17.0-0.3-1.26","b3x64et4jd","","b3x64et4jd","""2024-11-12T18:52:58.206Z""","953","materials/imgs/D9.png","arrowright","","[""materials/imgs/D48.png"",""materials/imgs/D49.png""]","false","random","","",""
"","","","","","html-keyboard-response","306","440207","0.0-17.0-0.3-0.27","b3x64et4jd","","b3x64et4jd","""2024-11-12T18:52:58.206Z""","null","+","null","","","","","","",""
"","","","","","image-keyboard-response","307","442146","0.0-17.0-0.3-1.27","b3x64et4jd","","b3x64et4jd","""2024-11-12T18:52:58.206Z""","1937","materials/imgs/D82.png","arrowright","","[""materials/imgs/D74.png"",""materials/imgs/D18.png""]","false","random","","",""
"","","","","","html-keyboard-response","308","442647","0.0-17.0-1.3-0.3","b3x64et4jd","","b3x64et4jd","""2024-11-12T18:52:58.206Z""","null","+","null","","","","","","",""
"","","","","","image-keyboard-response","309","443274","0.0-17.0-1.3-1.3","b3x64et4jd","","b3x64et4jd","""2024-11-12T18:52:58.206Z""","626","materials/imgs/D78.png","arrowright","","[""materials/imgs/D76.png"",""materials/imgs/D78.png""]","","check","materials/imgs/D78.png","1","true"
"","","","","","html-keyboard-response","310","443776","0.0-17.0-2.3-0.6","b3x64et4jd","","b3x64et4jd","""2024-11-12T18:52:58.206Z""","null","+","null","","","","","","",""
"","","","","","image-keyboard-response","311","445730","0.0-17.0-2.3-1.6","b3x64et4jd","","b3x64et4jd","""2024-11-12T18:52:58.206Z""","1952","materials/imgs/D37.png","arrowleft","","[""materials/imgs/D84.png"",""materials/imgs/D111.png""]","false","validation","","",""
"","","","","","html-keyboard-response","312","446231","0.0-17.0-2.3-0.7","b3x64et4jd","","b3x64et4jd","""2024-11-12T18:52:58.206Z""","null","+","null","","","","","","",""
"","","","","","image-keyboard-response","313","447688","0.0-17.0-2.3-1.7","b3x64et4jd","","b3x64et4jd","""2024-11-12T18:52:58.206Z""","1455","materials/imgs/D102.png","arrowright","","[""materials/imgs/D32.png"",""materials/imgs/D111.png""]","false","validation","","",""
"","","","","","html-keyboard-response","314","448189","0.0-17.0-0.4-0.28","b3x64et4jd","","b3x64et4jd","""2024-11-12T18:52:58.206Z""","null","+","null","","","","","","",""
"","","","","","image-keyboard-response","315","449976","0.0-17.0-0.4-1.28","b3x64et4jd","","b3x64et4jd","""2024-11-12T18:52:58.206Z""","1785","materials/imgs/D95.png","arrowleft","","[""materials/imgs/D17.png"",""materials/imgs/D77.png""]","false","random","","",""
"","","","","","html-keyboard-response","316","450477","0.0-17.0-0.4-0.29","b3x64et4jd","","b3x64et4jd","""2024-11-12T18:52:58.206Z""","null","+","null","","","","","","",""
"","","","","","image-keyboard-response","317","451404","0.0-17.0-0.4-1.29","b3x64et4jd","","b3x64et4jd","""2024-11-12T18:52:58.206Z""","924","materials/imgs/D103.png","arrowright","","[""materials/imgs/D49.png"",""materials/imgs/D55.png""]","false","random","","",""
"","","","","","html-keyboard-response","318","451905","0.0-17.0-0.4-0.30","b3x64et4jd","","b3x64et4jd","""2024-11-12T18:52:58.206Z""","null","+","null","","","","","","",""
"","","","","","image-keyboard-response","319","452907","0.0-17.0-0.4-1.30","b3x64et4jd","","b3x64et4jd","""2024-11-12T18:52:58.206Z""","1000","materials/imgs/D6.png","arrowleft","","[""materials/imgs/D83.png"",""materials/imgs/D56.png""]","false","random","","",""
"","","","","","html-keyboard-response","320","453408","0.0-17.0-0.4-0.31","b3x64et4jd","","b3x64et4jd","""2024-11-12T18:52:58.206Z""","null","+","null","","","","","","",""
"","","","","","image-keyboard-response","321","454532","0.0-17.0-0.4-1.31","b3x64et4jd","","b3x64et4jd","""2024-11-12T18:52:58.206Z""","1122","materials/imgs/D104.png","arrowleft","","[""materials/imgs/D68.png"",""materials/imgs/D95.png""]","false","random","","",""
"","","","","","html-keyboard-response","322","455034","0.0-17.0-0.4-0.32","b3x64et4jd","","b3x64et4jd","""2024-11-12T18:52:58.206Z""","null","+","null","","","","","","",""
"","","","","","image-keyboard-response","323","455705","0.0-17.0-0.4-1.32","b3x64et4jd","","b3x64et4jd","""2024-11-12T18:52:58.206Z""","669","materials/imgs/D53.png","arrowright","","[""materials/imgs/D9.png"",""materials/imgs/D52.png""]","false","random","","",""
"","","","","","html-keyboard-response","324","456207","0.0-17.0-0.4-0.33","b3x64et4jd","","b3x64et4jd","""2024-11-12T18:52:58.206Z""","null","+","null","","","","","","",""
"","","","","","image-keyboard-response","325","457778","0.0-17.0-0.4-1.33","b3x64et4jd","","b3x64et4jd","""2024-11-12T18:52:58.206Z""","1569","materials/imgs/D65.png","arrowright","","[""materials/imgs/D21.png"",""materials/imgs/D94.png""]","false","random","","",""
"","","","","","html-keyboard-response","326","458280","0.0-17.0-0.4-0.34","b3x64et4jd","","b3x64et4jd","""2024-11-12T18:52:58.206Z""","null","+","null","","","","","","",""
"","","","","","image-keyboard-response","327","459462","0.0-17.0-0.4-1.34","b3x64et4jd","","b3x64et4jd","""2024-11-12T18:52:58.206Z""","1180","materials/imgs/D74.png","arrowright","","[""materials/imgs/D9.png"",""materials/imgs/D37.png""]","false","random","","",""
"","","","","","html-keyboard-response","328","459963","0.0-17.0-1.4-0.4","b3x64et4jd","","b3x64et4jd","""2024-11-12T18:52:58.206Z""","null","+","null","","","","","","",""
"","","","","","image-keyboard-response","329","460747","0.0-17.0-1.4-1.4","b3x64et4jd","","b3x64et4jd","""2024-11-12T18:52:58.206Z""","782","materials/imgs/D46.png","arrowleft","","[""materials/imgs/D46.png"",""materials/imgs/D26.png""]","","check","materials/imgs/D46.png","0","true"
"","","","","","html-keyboard-response","330","461249","0.0-17.0-2.4-0.8","b3x64et4jd","","b3x64et4jd","""2024-11-12T18:52:58.206Z""","null","+","null","","","","","","",""
"","","","","","image-keyboard-response","331","462340","0.0-17.0-2.4-1.8","b3x64et4jd","","b3x64et4jd","""2024-11-12T18:52:58.206Z""","1089","materials/imgs/D16.png","arrowleft","","[""materials/imgs/D52.png"",""materials/imgs/D25.png""]","false","validation","","",""
"","","","","","html-keyboard-response","332","462841","0.0-17.0-2.4-0.9","b3x64et4jd","","b3x64et4jd","""2024-11-12T18:52:58.206Z""","null","+","null","","","","","","",""
"","","","","","image-keyboard-response","333","463516","0.0-17.0-2.4-1.9","b3x64et4jd","","b3x64et4jd","""2024-11-12T18:52:58.206Z""","673","materials/imgs/D47.png","arrowleft","","[""materials/imgs/D1.png"",""materials/imgs/D52.png""]","false","validation","","",""
"","","","","","html-button-response","334","464671","0.0-18.0","b3x64et4jd","","b3x64et4jd","""2024-11-12T18:52:58.206Z""","1153","You have completed 75% of the trials. Please click 'Continue' when you are ready proceed.","0","","","","","","",""
"","","","","","html-keyboard-response","335","465172","0.0-19.0-0.0-0.0","b3x64et4jd","","b3x64et4jd","""2024-11-12T18:52:58.206Z""","null","+","null","","","","","","",""
"","","","","","image-keyboard-response","336","466197","0.0-19.0-0.0-1.0","b3x64et4jd","","b3x64et4jd","""2024-11-12T18:52:58.206Z""","1015","materials/imgs/D84.png","arrowleft","","[""materials/imgs/D77.png"",""materials/imgs/D76.png""]","false","random","","",""
"","","","","","html-keyboard-response","337","466699","0.0-19.0-0.0-0.1","b3x64et4jd","","b3x64et4jd","""2024-11-12T18:52:58.206Z""","null","+","null","","","","","","",""
"","","","","","image-keyboard-response","338","467836","0.0-19.0-0.0-1.1","b3x64et4jd","","b3x64et4jd","""2024-11-12T18:52:58.206Z""","1135","materials/imgs/D84.png","arrowleft","","[""materials/imgs/D24.png"",""materials/imgs/D79.png""]","false","random","","",""
"","","","","","html-keyboard-response","339","468338","0.0-19.0-0.0-0.2","b3x64et4jd","","b3x64et4jd","""2024-11-12T18:52:58.206Z""","null","+","null","","","","","","",""
"","","","","","image-keyboard-response","340","469646","0.0-19.0-0.0-1.2","b3x64et4jd","","b3x64et4jd","""2024-11-12T18:52:58.206Z""","1306","materials/imgs/D48.png","arrowleft","","[""materials/imgs/D25.png"",""materials/imgs/D4.png""]","false","random","","",""
"","","","","","html-keyboard-response","341","470147","0.0-19.0-0.0-0.3","b3x64et4jd","","b3x64et4jd","""2024-11-12T18:52:58.206Z""","null","+","null","","","","","","",""
"","","","","","image-keyboard-response","342","471699","0.0-19.0-0.0-1.3","b3x64et4jd","","b3x64et4jd","""2024-11-12T18:52:58.206Z""","1550","materials/imgs/D1.png","arrowleft","","[""materials/imgs/D29.png"",""materials/imgs/D16.png""]","false","random","","",""
"","","","","","html-keyboard-response","343","472200","0.0-19.0-0.0-0.4","b3x64et4jd","","b3x64et4jd","""2024-11-12T18:52:58.206Z""","null","+","null","","","","","","",""
"","","","","","image-keyboard-response","344","473843","0.0-19.0-0.0-1.4","b3x64et4jd","","b3x64et4jd","""2024-11-12T18:52:58.206Z""","1641","materials/imgs/D102.png","arrowleft","","[""materials/imgs/D95.png"",""materials/imgs/D17.png""]","false","random","","",""
"","","","","","html-keyboard-response","345","474345","0.0-19.0-0.0-0.5","b3x64et4jd","","b3x64et4jd","""2024-11-12T18:52:58.206Z""","null","+","null","","","","","","",""
"","","","","","image-keyboard-response","346","475894","0.0-19.0-0.0-1.5","b3x64et4jd","","b3x64et4jd","""2024-11-12T18:52:58.206Z""","1547","materials/imgs/D53.png","arrowright","","[""materials/imgs/D56.png"",""materials/imgs/D87.png""]","false","random","","",""
"","","","","","html-keyboard-response","347","476395","0.0-19.0-0.0-0.6","b3x64et4jd","","b3x64et4jd","""2024-11-12T18:52:58.206Z""","null","+","null","","","","","","",""
"","","","","","image-keyboard-response","348","477788","0.0-19.0-0.0-1.6","b3x64et4jd","","b3x64et4jd","""2024-11-12T18:52:58.206Z""","1391","materials/imgs/D46.png","arrowright","","[""materials/imgs/D25.png"",""materials/imgs/D64.png""]","false","random","","",""
"","","","","","html-keyboard-response","349","478289","0.0-19.0-1.0-0.0","b3x64et4jd","","b3x64et4jd","""2024-11-12T18:52:58.206Z""","null","+","null","","","","","","",""
"","","","","","image-keyboard-response","350","478845","0.0-19.0-1.0-1.0","b3x64et4jd","","b3x64et4jd","""2024-11-12T18:52:58.206Z""","555","materials/imgs/D106.png","arrowleft","","[""materials/imgs/D106.png"",""materials/imgs/D101.png""]","","check","materials/imgs/D106.png","0","true"
"","","","","","html-keyboard-response","351","479346","0.0-19.0-2.0-0.0","b3x64et4jd","","b3x64et4jd","""2024-11-12T18:52:58.206Z""","null","+","null","","","","","","",""
"","","","","","image-keyboard-response","352","480813","0.0-19.0-2.0-1.0","b3x64et4jd","","b3x64et4jd","""2024-11-12T18:52:58.206Z""","1465","materials/imgs/D11.png","arrowleft","","[""materials/imgs/D83.png"",""materials/imgs/D48.png""]","false","validation","","",""
"","","","","","html-keyboard-response","353","481314","0.0-19.0-2.0-0.1","b3x64et4jd","","b3x64et4jd","""2024-11-12T18:52:58.206Z""","null","+","null","","","","","","",""
"","","","","","image-keyboard-response","354","482463","0.0-19.0-2.0-1.1","b3x64et4jd","","b3x64et4jd","""2024-11-12T18:52:58.206Z""","1146","materials/imgs/D77.png","arrowright","","[""materials/imgs/D102.png"",""materials/imgs/D65.png""]","false","validation","","",""
"","","","","","html-keyboard-response","355","482964","0.0-19.0-0.1-0.7","b3x64et4jd","","b3x64et4jd","""2024-11-12T18:52:58.206Z""","null","+","null","","","","","","",""
"","","","","","image-keyboard-response","356","483796","0.0-19.0-0.1-1.7","b3x64et4jd","","b3x64et4jd","""2024-11-12T18:52:58.206Z""","830","materials/imgs/D32.png","arrowleft","","[""materials/imgs/D80.png"",""materials/imgs/D66.png""]","false","random","","",""
"","","","","","html-keyboard-response","357","484297","0.0-19.0-0.1-0.8","b3x64et4jd","","b3x64et4jd","""2024-11-12T18:52:58.206Z""","null","+","null","","","","","","",""
"","","","","","image-keyboard-response","358","484991","0.0-19.0-0.1-1.8","b3x64et4jd","","b3x64et4jd","""2024-11-12T18:52:58.206Z""","693","materials/imgs/D17.png","arrowleft","","[""materials/imgs/D14.png"",""materials/imgs/D47.png""]","false","random","","",""
"","","","","","html-keyboard-response","359","485493","0.0-19.0-0.1-0.9","b3x64et4jd","","b3x64et4jd","""2024-11-12T18:52:58.206Z""","null","+","null","","","","","","",""
"","","","","","image-keyboard-response","360","486836","0.0-19.0-0.1-1.9","b3x64et4jd","","b3x64et4jd","""2024-11-12T18:52:58.206Z""","1342","materials/imgs/D101.png","arrowright","","[""materials/imgs/D4.png"",""materials/imgs/D84.png""]","false","random","","",""
"","","","","","html-keyboard-response","361","487337","0.0-19.0-0.1-0.10","b3x64et4jd","","b3x64et4jd","""2024-11-12T18:52:58.206Z""","null","+","null","","","","","","",""
"","","","","","image-keyboard-response","362","489179","0.0-19.0-0.1-1.10","b3x64et4jd","","b3x64et4jd","""2024-11-12T18:52:58.206Z""","1839","materials/imgs/D21.png","arrowright","","[""materials/imgs/D75.png"",""materials/imgs/D57.png""]","false","random","","",""
"","","","","","html-keyboard-response","363","489680","0.0-19.0-0.1-0.11","b3x64et4jd","","b3x64et4jd","""2024-11-12T18:52:58.206Z""","null","+","null","","","","","","",""
"","","","","","image-keyboard-response","364","490859","0.0-19.0-0.1-1.11","b3x64et4jd","","b3x64et4jd","""2024-11-12T18:52:58.206Z""","1176","materials/imgs/D75.png","arrowleft","","[""materials/imgs/D46.png"",""materials/imgs/D104.png""]","false","random","","",""
"","","","","","html-keyboard-response","365","491361","0.0-19.0-0.1-0.12","b3x64et4jd","","b3x64et4jd","""2024-11-12T18:52:58.206Z""","null","+","null","","","","","","",""
"","","","","","image-keyboard-response","366","492292","0.0-19.0-0.1-1.12","b3x64et4jd","","b3x64et4jd","""2024-11-12T18:52:58.206Z""","929","materials/imgs/D29.png","arrowright","","[""materials/imgs/D96.png"",""materials/imgs/D6.png""]","false","random","","",""
"","","","","","html-keyboard-response","367","492794","0.0-19.0-0.1-0.13","b3x64et4jd","","b3x64et4jd","""2024-11-12T18:52:58.206Z""","null","+","null","","","","","","",""
"","","","","","image-keyboard-response","368","493676","0.0-19.0-0.1-1.13","b3x64et4jd","","b3x64et4jd","""2024-11-12T18:52:58.206Z""","880","materials/imgs/D49.png","arrowleft","","[""materials/imgs/D82.png"",""materials/imgs/D32.png""]","false","random","","",""
"","","","","","html-keyboard-response","369","494178","0.0-19.0-1.1-0.1","b3x64et4jd","","b3x64et4jd","""2024-11-12T18:52:58.206Z""","null","+","null","","","","","","",""
"","","","","","image-keyboard-response","370","494785","0.0-19.0-1.1-1.1","b3x64et4jd","","b3x64et4jd","""2024-11-12T18:52:58.206Z""","606","materials/imgs/D76.png","arrowleft","","[""materials/imgs/D76.png"",""materials/imgs/D78.png""]","","check","materials/imgs/D76.png","0","true"
"","","","","","html-keyboard-response","371","495287","0.0-19.0-2.1-0.2","b3x64et4jd","","b3x64et4jd","""2024-11-12T18:52:58.206Z""","null","+","null","","","","","","",""
"","","","","","image-keyboard-response","372","496806","0.0-19.0-2.1-1.2","b3x64et4jd","","b3x64et4jd","""2024-11-12T18:52:58.206Z""","1518","materials/imgs/D46.png","arrowright","","[""materials/imgs/D92.png"",""materials/imgs/D77.png""]","false","validation","","",""
"","","","","","html-keyboard-response","373","497307","0.0-19.0-2.1-0.3","b3x64et4jd","","b3x64et4jd","""2024-11-12T18:52:58.206Z""","null","+","null","","","","","","",""
"","","","","","image-keyboard-response","374","498280","0.0-19.0-2.1-1.3","b3x64et4jd","","b3x64et4jd","""2024-11-12T18:52:58.206Z""","971","materials/imgs/D52.png","arrowleft","","[""materials/imgs/D9.png"",""materials/imgs/D19.png""]","false","validation","","",""
"","","","","","html-keyboard-response","375","498781","0.0-19.0-0.2-0.14","b3x64et4jd","","b3x64et4jd","""2024-11-12T18:52:58.206Z""","null","+","null","","","","","","",""
"","","","","","image-keyboard-response","376","499682","0.0-19.0-0.2-1.14","b3x64et4jd","","b3x64et4jd","""2024-11-12T18:52:58.206Z""","899","materials/imgs/D9.png","arrowleft","","[""materials/imgs/D82.png"",""materials/imgs/D65.png""]","false","random","","",""
"","","","","","html-keyboard-response","377","500183","0.0-19.0-0.2-0.15","b3x64et4jd","","b3x64et4jd","""2024-11-12T18:52:58.206Z""","null","+","null","","","","","","",""
"","","","","","image-keyboard-response","378","501030","0.0-19.0-0.2-1.15","b3x64et4jd","","b3x64et4jd","""2024-11-12T18:52:58.206Z""","845","materials/imgs/D17.png","arrowright","","[""materials/imgs/D83.png"",""materials/imgs/D103.png""]","false","random","","",""
"","","","","","html-keyboard-response","379","501532","0.0-19.0-0.2-0.16","b3x64et4jd","","b3x64et4jd","""2024-11-12T18:52:58.206Z""","null","+","null","","","","","","",""
"","","","","","image-keyboard-response","380","505175","0.0-19.0-0.2-1.16","b3x64et4jd","","b3x64et4jd","""2024-11-12T18:52:58.206Z""","3641","materials/imgs/D6.png","arrowright","","[""materials/imgs/D4.png"",""materials/imgs/D14.png""]","false","random","","",""
"","","","","","html-keyboard-response","381","505676","0.0-19.0-0.2-0.17","b3x64et4jd","","b3x64et4jd","""2024-11-12T18:52:58.206Z""","null","+","null","","","","","","",""
"","","","","","image-keyboard-response","382","507165","0.0-19.0-0.2-1.17","b3x64et4jd","","b3x64et4jd","""2024-11-12T18:52:58.206Z""","1487","materials/imgs/D35.png","arrowleft","","[""materials/imgs/D32.png"",""materials/imgs/D79.png""]","false","random","","",""
"","","","","","html-keyboard-response","383","507666","0.0-19.0-0.2-0.18","b3x64et4jd","","b3x64et4jd","""2024-11-12T18:52:58.206Z""","null","+","null","","","","","","",""
"","","","","","image-keyboard-response","384","508729","0.0-19.0-0.2-1.18","b3x64et4jd","","b3x64et4jd","""2024-11-12T18:52:58.206Z""","1061","materials/imgs/D104.png","arrowright","","[""materials/imgs/D94.png"",""materials/imgs/D3.png""]","false","random","","",""
"","","","","","html-keyboard-response","385","509230","0.0-19.0-0.2-0.19","b3x64et4jd","","b3x64et4jd","""2024-11-12T18:52:58.206Z""","null","+","null","","","","","","",""
"","","","","","image-keyboard-response","386","511556","0.0-19.0-0.2-1.19","b3x64et4jd","","b3x64et4jd","""2024-11-12T18:52:58.206Z""","2324","materials/imgs/D92.png","arrowright","","[""materials/imgs/D106.png"",""materials/imgs/D3.png""]","false","random","","",""
"","","","","","html-keyboard-response","387","512058","0.0-19.0-0.2-0.20","b3x64et4jd","","b3x64et4jd","""2024-11-12T18:52:58.206Z""","null","+","null","","","","","","",""
"","","","","","image-keyboard-response","388","513038","0.0-19.0-0.2-1.20","b3x64et4jd","","b3x64et4jd","""2024-11-12T18:52:58.206Z""","978","materials/imgs/D53.png","arrowleft","","[""materials/imgs/D37.png"",""materials/imgs/D8.png""]","false","random","","",""
"","","","","","html-keyboard-response","389","513539","0.0-19.0-1.2-0.2","b3x64et4jd","","b3x64et4jd","""2024-11-12T18:52:58.206Z""","null","+","null","","","","","","",""
"","","","","","image-keyboard-response","390","514236","0.0-19.0-1.2-1.2","b3x64et4jd","","b3x64et4jd","""2024-11-12T18:52:58.206Z""","695","materials/imgs/D76.png","arrowleft","","[""materials/imgs/D76.png"",""materials/imgs/D78.png""]","","check","materials/imgs/D76.png","0","true"
"","","","","","html-keyboard-response","391","514738","0.0-19.0-2.2-0.4","b3x64et4jd","","b3x64et4jd","""2024-11-12T18:52:58.206Z""","null","+","null","","","","","","",""
"","","","","","image-keyboard-response","392","518565","0.0-19.0-2.2-1.4","b3x64et4jd","","b3x64et4jd","""2024-11-12T18:52:58.206Z""","3825","materials/imgs/D102.png","arrowright","","[""materials/imgs/D32.png"",""materials/imgs/D111.png""]","false","validation","","",""
"","","","","","html-keyboard-response","393","519066","0.0-19.0-2.2-0.5","b3x64et4jd","","b3x64et4jd","""2024-11-12T18:52:58.206Z""","null","+","null","","","","","","",""
"","","","","","image-keyboard-response","394","520537","0.0-19.0-2.2-1.5","b3x64et4jd","","b3x64et4jd","""2024-11-12T18:52:58.206Z""","1470","materials/imgs/D106.png","arrowleft","","[""materials/imgs/D57.png"",""materials/imgs/D18.png""]","false","validation","","",""
"","","","","","html-keyboard-response","395","521039","0.0-19.0-0.3-0.21","b3x64et4jd","","b3x64et4jd","""2024-11-12T18:52:58.206Z""","null","+","null","","","","","","",""
"","","","","","image-keyboard-response","396","522373","0.0-19.0-0.3-1.21","b3x64et4jd","","b3x64et4jd","""2024-11-12T18:52:58.206Z""","1332","materials/imgs/D78.png","arrowleft","","[""materials/imgs/D6.png"",""materials/imgs/D35.png""]","false","random","","",""
"","","","","","html-keyboard-response","397","522874","0.0-19.0-0.3-0.22","b3x64et4jd","","b3x64et4jd","""2024-11-12T18:52:58.206Z""","null","+","null","","","","","","",""
"","","","","","image-keyboard-response","398","524395","0.0-19.0-0.3-1.22","b3x64et4jd","","b3x64et4jd","""2024-11-12T18:52:58.206Z""","1518","materials/imgs/D85.png","arrowright","","[""materials/imgs/D94.png"",""materials/imgs/D92.png""]","false","random","","",""
"","","","","","html-keyboard-response","399","524896","0.0-19.0-0.3-0.23","b3x64et4jd","","b3x64et4jd","""2024-11-12T18:52:58.206Z""","null","+","null","","","","","","",""
"","","","","","image-keyboard-response","400","525649","0.0-19.0-0.3-1.23","b3x64et4jd","","b3x64et4jd","""2024-11-12T18:52:58.206Z""","751","materials/imgs/D77.png","arrowright","","[""materials/imgs/D80.png"",""materials/imgs/D16.png""]","false","random","","",""
"","","","","","html-keyboard-response","401","526150","0.0-19.0-0.3-0.24","b3x64et4jd","","b3x64et4jd","""2024-11-12T18:52:58.206Z""","null","+","null","","","","","","",""
"","","","","","image-keyboard-response","402","526933","0.0-19.0-0.3-1.24","b3x64et4jd","","b3x64et4jd","""2024-11-12T18:52:58.206Z""","781","materials/imgs/D24.png","arrowright","","[""materials/imgs/D74.png"",""materials/imgs/D55.png""]","false","random","","",""
"","","","","","html-keyboard-response","403","527434","0.0-19.0-0.3-0.25","b3x64et4jd","","b3x64et4jd","""2024-11-12T18:52:58.206Z""","null","+","null","","","","","","",""
"","","","","","image-keyboard-response","404","528574","0.0-19.0-0.3-1.25","b3x64et4jd","","b3x64et4jd","""2024-11-12T18:52:58.206Z""","1138","materials/imgs/D104.png","arrowleft","","[""materials/imgs/D111.png"",""materials/imgs/D95.png""]","false","random","","",""
"","","","","","html-keyboard-response","405","529075","0.0-19.0-0.3-0.26","b3x64et4jd","","b3x64et4jd","""2024-11-12T18:52:58.206Z""","null","+","null","","","","","","",""
"","","","","","image-keyboard-response","406","530311","0.0-19.0-0.3-1.26","b3x64et4jd","","b3x64et4jd","""2024-11-12T18:52:58.206Z""","1234","materials/imgs/D104.png","arrowleft","","[""materials/imgs/D14.png"",""materials/imgs/D34.png""]","false","random","","",""
"","","","","","html-keyboard-response","407","530812","0.0-19.0-0.3-0.27","b3x64et4jd","","b3x64et4jd","""2024-11-12T18:52:58.206Z""","null","+","null","","","","","","",""
"","","","","","image-keyboard-response","408","532391","0.0-19.0-0.3-1.27","b3x64et4jd","","b3x64et4jd","""2024-11-12T18:52:58.206Z""","1577","materials/imgs/D78.png","arrowright","","[""materials/imgs/D49.png"",""materials/imgs/D34.png""]","false","random","","",""
"","","","","","html-keyboard-response","409","532893","0.0-19.0-1.3-0.3","b3x64et4jd","","b3x64et4jd","""2024-11-12T18:52:58.206Z""","null","+","null","","","","","","",""
"","","","","","image-keyboard-response","410","533445","0.0-19.0-1.3-1.3","b3x64et4jd","","b3x64et4jd","""2024-11-12T18:52:58.206Z""","550","materials/imgs/D78.png","arrowright","","[""materials/imgs/D76.png"",""materials/imgs/D78.png""]","","check","materials/imgs/D78.png","1","true"
"","","","","","html-keyboard-response","411","533946","0.0-19.0-2.3-0.6","b3x64et4jd","","b3x64et4jd","""2024-11-12T18:52:58.206Z""","null","+","null","","","","","","",""
"","","","","","image-keyboard-response","412","535036","0.0-19.0-2.3-1.6","b3x64et4jd","","b3x64et4jd","""2024-11-12T18:52:58.206Z""","1089","materials/imgs/D75.png","arrowleft","","[""materials/imgs/D96.png"",""materials/imgs/D4.png""]","false","validation","","",""
"","","","","","html-keyboard-response","413","535538","0.0-19.0-2.3-0.7","b3x64et4jd","","b3x64et4jd","""2024-11-12T18:52:58.206Z""","null","+","null","","","","","","",""
"","","","","","image-keyboard-response","414","536516","0.0-19.0-2.3-1.7","b3x64et4jd","","b3x64et4jd","""2024-11-12T18:52:58.206Z""","976","materials/imgs/D48.png","arrowleft","","[""materials/imgs/D4.png"",""materials/imgs/D37.png""]","false","validation","","",""
"","","","","","html-keyboard-response","415","537016","0.0-19.0-0.4-0.28","b3x64et4jd","","b3x64et4jd","""2024-11-12T18:52:58.206Z""","null","+","null","","","","","","",""
"","","","","","image-keyboard-response","416","537781","0.0-19.0-0.4-1.28","b3x64et4jd","","b3x64et4jd","""2024-11-12T18:52:58.206Z""","763","materials/imgs/D95.png","arrowright","","[""materials/imgs/D92.png"",""materials/imgs/D102.png""]","false","random","","",""
"","","","","","html-keyboard-response","417","538283","0.0-19.0-0.4-0.29","b3x64et4jd","","b3x64et4jd","""2024-11-12T18:52:58.206Z""","null","+","null","","","","","","",""
"","","","","","image-keyboard-response","418","539626","0.0-19.0-0.4-1.29","b3x64et4jd","","b3x64et4jd","""2024-11-12T18:52:58.206Z""","1341","materials/imgs/D19.png","arrowright","","[""materials/imgs/D24.png"",""materials/imgs/D49.png""]","false","random","","",""
"","","","","","html-keyboard-response","419","540127","0.0-19.0-0.4-0.30","b3x64et4jd","","b3x64et4jd","""2024-11-12T18:52:58.206Z""","null","+","null","","","","","","",""
"","","","","","image-keyboard-response","420","541247","0.0-19.0-0.4-1.30","b3x64et4jd","","b3x64et4jd","""2024-11-12T18:52:58.206Z""","1118","materials/imgs/D52.png","arrowright","","[""materials/imgs/D46.png"",""materials/imgs/D1.png""]","false","random","","",""
"","","","","","html-keyboard-response","421","541749","0.0-19.0-0.4-0.31","b3x64et4jd","","b3x64et4jd","""2024-11-12T18:52:58.206Z""","null","+","null","","","","","","",""
"","","","","","image-keyboard-response","422","542940","0.0-19.0-0.4-1.31","b3x64et4jd","","b3x64et4jd","""2024-11-12T18:52:58.206Z""","1189","materials/imgs/D65.png","arrowright","","[""materials/imgs/D57.png"",""materials/imgs/D94.png""]","false","random","","",""
"","","","","","html-keyboard-response","423","543442","0.0-19.0-0.4-0.32","b3x64et4jd","","b3x64et4jd","""2024-11-12T18:52:58.206Z""","null","+","null","","","","","","",""
"","","","","","image-keyboard-response","424","544275","0.0-19.0-0.4-1.32","b3x64et4jd","","b3x64et4jd","""2024-11-12T18:52:58.206Z""","831","materials/imgs/D103.png","arrowright","","[""materials/imgs/D64.png"",""materials/imgs/D55.png""]","false","random","","",""
"","","","","","html-keyboard-response","425","544776","0.0-19.0-0.4-0.33","b3x64et4jd","","b3x64et4jd","""2024-11-12T18:52:58.206Z""","null","+","null","","","","","","",""
"","","","","","image-keyboard-response","426","546093","0.0-19.0-0.4-1.33","b3x64et4jd","","b3x64et4jd","""2024-11-12T18:52:58.206Z""","1315","materials/imgs/D106.png","arrowleft","","[""materials/imgs/D21.png"",""materials/imgs/D56.png""]","false","random","","",""
"","","","","","html-keyboard-response","427","546594","0.0-19.0-0.4-0.34","b3x64et4jd","","b3x64et4jd","""2024-11-12T18:52:58.206Z""","null","+","null","","","","","","",""
"","","","","","image-keyboard-response","428","548604","0.0-19.0-0.4-1.34","b3x64et4jd","","b3x64et4jd","""2024-11-12T18:52:58.206Z""","2008","materials/imgs/D37.png","arrowleft","","[""materials/imgs/D34.png"",""materials/imgs/D75.png""]","false","random","","",""
"","","","","","html-keyboard-response","429","549106","0.0-19.0-1.4-0.4","b3x64et4jd","","b3x64et4jd","""2024-11-12T18:52:58.206Z""","null","+","null","","","","","","",""
"","","","","","image-keyboard-response","430","550101","0.0-19.0-1.4-1.4","b3x64et4jd","","b3x64et4jd","""2024-11-12T18:52:58.206Z""","993","materials/imgs/D26.png","arrowleft","","[""materials/imgs/D26.png"",""materials/imgs/D46.png""]","","check","materials/imgs/D26.png","0","true"
"","","","","","html-keyboard-response","431","550602","0.0-19.0-2.4-0.8","b3x64et4jd","","b3x64et4jd","""2024-11-12T18:52:58.206Z""","null","+","null","","","","","","",""
"","","","","","image-keyboard-response","432","551796","0.0-19.0-2.4-1.8","b3x64et4jd","","b3x64et4jd","""2024-11-12T18:52:58.206Z""","1192","materials/imgs/D8.png","arrowleft","","[""materials/imgs/D101.png"",""materials/imgs/D52.png""]","false","validation","","",""
"","","","","","html-keyboard-response","433","552297","0.0-19.0-2.4-0.9","b3x64et4jd","","b3x64et4jd","""2024-11-12T18:52:58.206Z""","null","+","null","","","","","","",""
"","","","","","image-keyboard-response","434","553980","0.0-19.0-2.4-1.9","b3x64et4jd","","b3x64et4jd","""2024-11-12T18:52:58.206Z""","1681","materials/imgs/D51.png","arrowleft","","[""materials/imgs/D92.png"",""materials/imgs/D20.png""]","false","validation","","",""
