"success","timeout","failed_images","failed_audio","failed_video","trial_type","trial_index","time_elapsed","internal_node_id","subject_id","sona_id","subjectID","dateInfo","rt","stimulus","response","question_order","choices","speedy","sampleAlg","selected_image","selected_index","correct"
"true","false","[]","[]","[]","preload","0","329","0.0-0.0","dbw5xt8qoo","","dbw5xt8qoo","""2024-11-12T18:37:57.096Z""","","","","","","","","","",""
"true","","","","","fullscreen","1","2794","0.0-1.0","dbw5xt8qoo","","dbw5xt8qoo","""2024-11-12T18:37:57.096Z""","","","","","","","","","",""
"","","","","","html-keyboard-response","2","2806","0.0-2.0","dbw5xt8qoo","","dbw5xt8qoo","""2024-11-12T18:37:57.096Z""","null","","null","","","","","","",""
"","","","","","html-button-response","3","5073","0.0-3.0","dbw5xt8qoo","","dbw5xt8qoo","""2024-11-12T18:37:57.096Z""","2266","<div style='text-align:center; font-size:20px; line-height:25px; width: 1200px;'>
                Welcome to our experiment! <br>
                <br>At the bottom of this screen, you will see a button that says 'Begin Experiment.
                <br>Please only click that button when you are ready to complete the 25 minute experiment in one sitting. <br>
                <br> Once you click that button, it will not be possible to restart the experiment. <br><br>","0","","","","","","",""
"true","","","","","fullscreen","4","7594","0.0-4.0","dbw5xt8qoo","","dbw5xt8qoo","""2024-11-12T18:37:57.096Z""","","","","","","","","","",""
"","","","","","survey-multi-select","5","13208","0.0-5.0","dbw5xt8qoo","","dbw5xt8qoo","""2024-11-12T18:37:57.096Z""","5611","","{""Consent"":[""<strong>I consent</strong>""]}","[0]","","","","","",""
"","","","","","html-button-response","6","21373","0.0-6.0","dbw5xt8qoo","","dbw5xt8qoo","""2024-11-12T18:37:57.096Z""","8162","Welcome! <p> This experiment involves two parts: demographic information, followed by the experimental task.<p> It will take about 25 minutes to complete both parts.","0","","","","","","",""
"","","","","","survey-text","7","33923","0.0-7.0","dbw5xt8qoo","","dbw5xt8qoo","""2024-11-12T18:37:57.096Z""","12511","","{""Age"":""19"",""Gender"":""Male"",""Race/ethnicity"":""Caucasian ""}","","","","","","",""
"","","","","","html-button-response","8","49405","0.0-8.0","dbw5xt8qoo","","dbw5xt8qoo","""2024-11-12T18:37:57.096Z""","15480","<div style='text-align: center;'>
      <p>In each trial of this task, you will see three texture images: one target item on top, and two choices beneath the target item.</p>
      <p><strong>Please select the item that is most like the target item.</strong></p>
      <p>To select the option on the <strong>LEFT</strong>, press the <strong>LEFT ARROW</strong> key. 
      To select the option on the <strong>RIGHT</strong>, press the <strong>RIGHT ARROW</strong> key.</p>
                  <!-- Target Image at the Top -->
      <div style='margin: 20px;'>
        <img src='materials/imgs/instruction_images/InstructionImg1D78.png' alt='Target Image' style='width:200px; height:auto;' />
        <p><em>Target Image</em></p>
      </div>

      <!-- Two Choice Images Below -->
      <div style='display: flex; justify-content: center;'>
        <div style='margin-right: 50px;'>
          <img src='materials/imgs/instruction_images/InstructionImg2D34.png' alt='Choice Image 1' style='width:150px; height:auto;' />
          <p><em><strong>LEFT ARROW</strong></em></p>
        </div>
        <div style='margin-left: 50px;'>
          <img src='materials/imgs/instruction_images/InstructionImg3D80.png' alt='Choice Image 2' style='width:150px; height:auto;' />
          <p><em><strong>RIGHT ARROW</strong></em></p>
        </div>
      </div>
    </div>

      <p>When you are ready to proceed, please click 'Continue' to begin practice.</p>","0","","","","","","",""
"","","","","","html-keyboard-response","9","51913","0.0-9.0","dbw5xt8qoo","","dbw5xt8qoo","""2024-11-12T18:37:57.096Z""","null","+","null","","","","","","",""
"","","","","","html-keyboard-response","10","52419","0.0-10.0-0.0-0.0","dbw5xt8qoo","","dbw5xt8qoo","""2024-11-12T18:37:57.096Z""","null","+","null","","","","","","",""
"","","","","","image-keyboard-response","11","55201","0.0-10.0-0.0-1.0","dbw5xt8qoo","","dbw5xt8qoo","""2024-11-12T18:37:57.096Z""","2775","materials/imgs/D83.png","arrowright","","[""materials/imgs/D6.png"",""materials/imgs/D22.png""]","false","random","","",""
"","","","","","html-keyboard-response","12","55707","0.0-10.0-0.0-0.1","dbw5xt8qoo","","dbw5xt8qoo","""2024-11-12T18:37:57.096Z""","null","+","null","","","","","","",""
"","","","","","image-keyboard-response","13","58162","0.0-10.0-0.0-1.1","dbw5xt8qoo","","dbw5xt8qoo","""2024-11-12T18:37:57.096Z""","2453","materials/imgs/D16.png","arrowright","","[""materials/imgs/D92.png"",""materials/imgs/D6.png""]","false","random","","",""
"","","","","","html-keyboard-response","14","58664","0.0-10.0-0.0-0.2","dbw5xt8qoo","","dbw5xt8qoo","""2024-11-12T18:37:57.096Z""","null","+","null","","","","","","",""
"","","","","","image-keyboard-response","15","60347","0.0-10.0-0.0-1.2","dbw5xt8qoo","","dbw5xt8qoo","""2024-11-12T18:37:57.096Z""","1678","materials/imgs/D51.png","arrowleft","","[""materials/imgs/D77.png"",""materials/imgs/D14.png""]","false","random","","",""
"","","","","","html-keyboard-response","16","60853","0.0-10.0-0.0-0.3","dbw5xt8qoo","","dbw5xt8qoo","""2024-11-12T18:37:57.096Z""","null","+","null","","","","","","",""
"","","","","","image-keyboard-response","17","62348","0.0-10.0-0.0-1.3","dbw5xt8qoo","","dbw5xt8qoo","""2024-11-12T18:37:57.096Z""","1490","materials/imgs/D82.png","arrowleft","","[""materials/imgs/D55.png"",""materials/imgs/D4.png""]","false","random","","",""
"","","","","","html-keyboard-response","18","62850","0.0-10.0-0.0-0.4","dbw5xt8qoo","","dbw5xt8qoo","""2024-11-12T18:37:57.096Z""","null","+","null","","","","","","",""
"","","","","","image-keyboard-response","19","64994","0.0-10.0-0.0-1.4","dbw5xt8qoo","","dbw5xt8qoo","""2024-11-12T18:37:57.096Z""","2139","materials/imgs/D56.png","arrowright","","[""materials/imgs/D68.png"",""materials/imgs/D95.png""]","false","random","","",""
"","","","","","html-keyboard-response","20","65495","0.0-10.0-0.0-0.5","dbw5xt8qoo","","dbw5xt8qoo","""2024-11-12T18:37:57.096Z""","null","+","null","","","","","","",""
"","","","","","image-keyboard-response","21","66349","0.0-10.0-0.0-1.5","dbw5xt8qoo","","dbw5xt8qoo","""2024-11-12T18:37:57.096Z""","850","materials/imgs/D104.png","arrowleft","","[""materials/imgs/D52.png"",""materials/imgs/D68.png""]","false","random","","",""
"","","","","","html-keyboard-response","22","66853","0.0-10.0-0.0-0.6","dbw5xt8qoo","","dbw5xt8qoo","""2024-11-12T18:37:57.096Z""","null","+","null","","","","","","",""
"","","","","","image-keyboard-response","23","67950","0.0-10.0-0.0-1.6","dbw5xt8qoo","","dbw5xt8qoo","""2024-11-12T18:37:57.096Z""","1095","materials/imgs/D82.png","arrowright","","[""materials/imgs/D37.png"",""materials/imgs/D3.png""]","false","random","","",""
"","","","","","html-keyboard-response","24","68511","0.0-10.0-0.0-0.7","dbw5xt8qoo","","dbw5xt8qoo","""2024-11-12T18:37:57.096Z""","null","+","null","","","","","","",""
"","","","","","image-keyboard-response","25","69139","0.0-10.0-0.0-1.7","dbw5xt8qoo","","dbw5xt8qoo","""2024-11-12T18:37:57.096Z""","625","materials/imgs/D78.png","arrowright","","[""materials/imgs/D56.png"",""materials/imgs/D53.png""]","false","random","","",""
"","","","","","html-keyboard-response","26","69644","0.0-10.0-0.0-0.8","dbw5xt8qoo","","dbw5xt8qoo","""2024-11-12T18:37:57.096Z""","null","+","null","","","","","","",""
"","","","","","image-keyboard-response","27","70239","0.0-10.0-0.0-1.8","dbw5xt8qoo","","dbw5xt8qoo","""2024-11-12T18:37:57.096Z""","594","materials/imgs/D77.png","arrowright","","[""materials/imgs/D1.png"",""materials/imgs/D95.png""]","false","random","","",""
"","","","","","html-keyboard-response","28","70740","0.0-10.0-0.0-0.9","dbw5xt8qoo","","dbw5xt8qoo","""2024-11-12T18:37:57.096Z""","null","+","null","","","","","","",""
"","","","","","image-keyboard-response","29","71000","0.0-10.0-0.0-1.9","dbw5xt8qoo","","dbw5xt8qoo","""2024-11-12T18:37:57.096Z""","258","materials/imgs/D78.png","arrowleft","","[""materials/imgs/D32.png"",""materials/imgs/D52.png""]","true","random","","",""
"","","","","","html-keyboard-response","30","74177","0.0-10.0-0.0-2.9-0.9","dbw5xt8qoo","","dbw5xt8qoo","""2024-11-12T18:37:57.096Z""","3175","<p><strong>You're going too fast.</strong><p>Please slow down and assess each triplet.<p>Press 'y' to continue.</p></p>","y","","","","","","",""
"","","","","","html-button-response","31","78937","0.0-11.0","dbw5xt8qoo","","dbw5xt8qoo","""2024-11-12T18:37:57.096Z""","4758","<p>Great job!</p>
      <p>You are now ready to begin the experiment.</p>
      <p>There will be around 200 trials. You will have opportunities to take breaks at three stages of the trials.</p>
      <p>When you are ready to begin please click 'Continue'.</p>","0","","","","","","",""
"","","","","","html-keyboard-response","32","81448","0.0-12.0","dbw5xt8qoo","","dbw5xt8qoo","""2024-11-12T18:37:57.096Z""","null","+","null","","","","","","",""
"","","","","","html-keyboard-response","33","81954","0.0-13.0-0.0-0.0","dbw5xt8qoo","","dbw5xt8qoo","""2024-11-12T18:37:57.096Z""","null","+","null","","","","","","",""
"","","","","","image-keyboard-response","34","82770","0.0-13.0-0.0-1.0","dbw5xt8qoo","","dbw5xt8qoo","""2024-11-12T18:37:57.096Z""","812","materials/imgs/D94.png","arrowleft","","[""materials/imgs/D32.png"",""materials/imgs/D48.png""]","false","random","","",""
"","","","","","html-keyboard-response","35","83276","0.0-13.0-0.0-0.1","dbw5xt8qoo","","dbw5xt8qoo","""2024-11-12T18:37:57.096Z""","null","+","null","","","","","","",""
"","","","","","image-keyboard-response","36","83915","0.0-13.0-0.0-1.1","dbw5xt8qoo","","dbw5xt8qoo","""2024-11-12T18:37:57.096Z""","634","materials/imgs/D8.png","arrowleft","","[""materials/imgs/D56.png"",""materials/imgs/D53.png""]","false","random","","",""
"","","","","","html-keyboard-response","37","84416","0.0-13.0-0.0-0.2","dbw5xt8qoo","","dbw5xt8qoo","""2024-11-12T18:37:57.096Z""","null","+","null","","","","","","",""
"","","","","","image-keyboard-response","38","85188","0.0-13.0-0.0-1.2","dbw5xt8qoo","","dbw5xt8qoo","""2024-11-12T18:37:57.096Z""","769","materials/imgs/D46.png","arrowright","","[""materials/imgs/D95.png"",""materials/imgs/D55.png""]","false","random","","",""
"","","","","","html-keyboard-response","39","85693","0.0-13.0-0.0-0.3","dbw5xt8qoo","","dbw5xt8qoo","""2024-11-12T18:37:57.096Z""","null","+","null","","","","","","",""
"","","","","","image-keyboard-response","40","86485","0.0-13.0-0.0-1.3","dbw5xt8qoo","","dbw5xt8qoo","""2024-11-12T18:37:57.096Z""","788","materials/imgs/D36.png","arrowleft","","[""materials/imgs/D14.png"",""materials/imgs/D18.png""]","false","random","","",""
"","","","","","html-keyboard-response","41","86989","0.0-13.0-0.0-0.4","dbw5xt8qoo","","dbw5xt8qoo","""2024-11-12T18:37:57.096Z""","null","+","null","","","","","","",""
"","","","","","image-keyboard-response","42","87937","0.0-13.0-0.0-1.4","dbw5xt8qoo","","dbw5xt8qoo","""2024-11-12T18:37:57.096Z""","944","materials/imgs/D80.png","arrowright","","[""materials/imgs/D79.png"",""materials/imgs/D82.png""]","false","random","","",""
"","","","","","html-keyboard-response","43","88490","0.0-13.0-0.0-0.5","dbw5xt8qoo","","dbw5xt8qoo","""2024-11-12T18:37:57.096Z""","null","+","null","","","","","","",""
"","","","","","image-keyboard-response","44","89384","0.0-13.0-0.0-1.5","dbw5xt8qoo","","dbw5xt8qoo","""2024-11-12T18:37:57.096Z""","888","materials/imgs/D96.png","arrowleft","","[""materials/imgs/D48.png"",""materials/imgs/D105.png""]","false","random","","",""
"","","","","","html-keyboard-response","45","89888","0.0-13.0-0.0-0.6","dbw5xt8qoo","","dbw5xt8qoo","""2024-11-12T18:37:57.096Z""","null","+","null","","","","","","",""
"","","","","","image-keyboard-response","46","90832","0.0-13.0-0.0-1.6","dbw5xt8qoo","","dbw5xt8qoo","""2024-11-12T18:37:57.096Z""","941","materials/imgs/D85.png","arrowleft","","[""materials/imgs/D78.png"",""materials/imgs/D111.png""]","false","random","","",""
"","","","","","html-keyboard-response","47","91336","0.0-13.0-1.0-0.0","dbw5xt8qoo","","dbw5xt8qoo","""2024-11-12T18:37:57.096Z""","null","+","null","","","","","","",""
"","","","","","image-keyboard-response","48","92120","0.0-13.0-1.0-1.0","dbw5xt8qoo","","dbw5xt8qoo","""2024-11-12T18:37:57.096Z""","780","materials/imgs/D26.png","arrowleft","","[""materials/imgs/D26.png"",""materials/imgs/D46.png""]","","check","materials/imgs/D26.png","0","true"
"","","","","","html-keyboard-response","49","92621","0.0-13.0-2.0-0.0","dbw5xt8qoo","","dbw5xt8qoo","""2024-11-12T18:37:57.096Z""","null","+","null","","","","","","",""
"","","","","","image-keyboard-response","50","93433","0.0-13.0-2.0-1.0","dbw5xt8qoo","","dbw5xt8qoo","""2024-11-12T18:37:57.096Z""","810","materials/imgs/D105.png","arrowleft","","[""materials/imgs/D106.png"",""materials/imgs/D52.png""]","false","validation","","",""
"","","","","","html-keyboard-response","51","93988","0.0-13.0-2.0-0.1","dbw5xt8qoo","","dbw5xt8qoo","""2024-11-12T18:37:57.096Z""","null","+","null","","","","","","",""
"","","","","","image-keyboard-response","52","95314","0.0-13.0-2.0-1.1","dbw5xt8qoo","","dbw5xt8qoo","""2024-11-12T18:37:57.096Z""","1325","materials/imgs/D51.png","arrowleft","","[""materials/imgs/D92.png"",""materials/imgs/D20.png""]","false","validation","","",""
"","","","","","html-keyboard-response","53","95818","0.0-13.0-0.1-0.7","dbw5xt8qoo","","dbw5xt8qoo","""2024-11-12T18:37:57.096Z""","null","+","null","","","","","","",""
"","","","","","image-keyboard-response","54","96521","0.0-13.0-0.1-1.7","dbw5xt8qoo","","dbw5xt8qoo","""2024-11-12T18:37:57.096Z""","697","materials/imgs/D76.png","arrowright","","[""materials/imgs/D6.png"",""materials/imgs/D106.png""]","false","random","","",""
"","","","","","html-keyboard-response","55","97025","0.0-13.0-0.1-0.8","dbw5xt8qoo","","dbw5xt8qoo","""2024-11-12T18:37:57.096Z""","null","+","null","","","","","","",""
"","","","","","image-keyboard-response","56","97840","0.0-13.0-0.1-1.8","dbw5xt8qoo","","dbw5xt8qoo","""2024-11-12T18:37:57.096Z""","813","materials/imgs/D1.png","arrowleft","","[""materials/imgs/D95.png"",""materials/imgs/D55.png""]","false","random","","",""
"","","","","","html-keyboard-response","57","98343","0.0-13.0-0.1-0.9","dbw5xt8qoo","","dbw5xt8qoo","""2024-11-12T18:37:57.096Z""","null","+","null","","","","","","",""
"","","","","","image-keyboard-response","58","99210","0.0-13.0-0.1-1.9","dbw5xt8qoo","","dbw5xt8qoo","""2024-11-12T18:37:57.096Z""","866","materials/imgs/D85.png","arrowleft","","[""materials/imgs/D104.png"",""materials/imgs/D22.png""]","false","random","","",""
"","","","","","html-keyboard-response","59","99712","0.0-13.0-0.1-0.10","dbw5xt8qoo","","dbw5xt8qoo","""2024-11-12T18:37:57.096Z""","null","+","null","","","","","","",""
"","","","","","image-keyboard-response","60","100531","0.0-13.0-0.1-1.10","dbw5xt8qoo","","dbw5xt8qoo","""2024-11-12T18:37:57.096Z""","818","materials/imgs/D82.png","arrowleft","","[""materials/imgs/D55.png"",""materials/imgs/D53.png""]","false","random","","",""
"","","","","","html-keyboard-response","61","101034","0.0-13.0-0.1-0.11","dbw5xt8qoo","","dbw5xt8qoo","""2024-11-12T18:37:57.096Z""","null","+","null","","","","","","",""
"","","","","","image-keyboard-response","62","101988","0.0-13.0-0.1-1.11","dbw5xt8qoo","","dbw5xt8qoo","""2024-11-12T18:37:57.096Z""","949","materials/imgs/D84.png","arrowright","","[""materials/imgs/D1.png"",""materials/imgs/D87.png""]","false","random","","",""
"","","","","","html-keyboard-response","63","102536","0.0-13.0-0.1-0.12","dbw5xt8qoo","","dbw5xt8qoo","""2024-11-12T18:37:57.096Z""","null","+","null","","","","","","",""
"","","","","","image-keyboard-response","64","103299","0.0-13.0-0.1-1.12","dbw5xt8qoo","","dbw5xt8qoo","""2024-11-12T18:37:57.096Z""","759","materials/imgs/D57.png","arrowright","","[""materials/imgs/D65.png"",""materials/imgs/D36.png""]","false","random","","",""
"","","","","","html-keyboard-response","65","103802","0.0-13.0-0.1-0.13","dbw5xt8qoo","","dbw5xt8qoo","""2024-11-12T18:37:57.096Z""","null","+","null","","","","","","",""
"","","","","","image-keyboard-response","66","104495","0.0-13.0-0.1-1.13","dbw5xt8qoo","","dbw5xt8qoo","""2024-11-12T18:37:57.096Z""","693","materials/imgs/D85.png","arrowleft","","[""materials/imgs/D68.png"",""materials/imgs/D8.png""]","false","random","","",""
"","","","","","html-keyboard-response","67","104998","0.0-13.0-1.1-0.1","dbw5xt8qoo","","dbw5xt8qoo","""2024-11-12T18:37:57.096Z""","null","+","null","","","","","","",""
"","","","","","image-keyboard-response","68","105642","0.0-13.0-1.1-1.1","dbw5xt8qoo","","dbw5xt8qoo","""2024-11-12T18:37:57.096Z""","643","materials/imgs/D26.png","arrowleft","","[""materials/imgs/D26.png"",""materials/imgs/D46.png""]","","check","materials/imgs/D26.png","0","true"
"","","","","","html-keyboard-response","69","106149","0.0-13.0-2.1-0.2","dbw5xt8qoo","","dbw5xt8qoo","""2024-11-12T18:37:57.096Z""","null","+","null","","","","","","",""
"","","","","","image-keyboard-response","70","106816","0.0-13.0-2.1-1.2","dbw5xt8qoo","","dbw5xt8qoo","""2024-11-12T18:37:57.096Z""","666","materials/imgs/D79.png","arrowright","","[""materials/imgs/D51.png"",""materials/imgs/D64.png""]","false","validation","","",""
"","","","","","html-keyboard-response","71","107319","0.0-13.0-2.1-0.3","dbw5xt8qoo","","dbw5xt8qoo","""2024-11-12T18:37:57.096Z""","null","+","null","","","","","","",""
"","","","","","image-keyboard-response","72","108215","0.0-13.0-2.1-1.3","dbw5xt8qoo","","dbw5xt8qoo","""2024-11-12T18:37:57.096Z""","894","materials/imgs/D82.png","arrowleft","","[""materials/imgs/D83.png"",""materials/imgs/D22.png""]","false","validation","","",""
"","","","","","html-keyboard-response","73","108721","0.0-13.0-0.2-0.14","dbw5xt8qoo","","dbw5xt8qoo","""2024-11-12T18:37:57.096Z""","null","+","null","","","","","","",""
"","","","","","image-keyboard-response","74","109351","0.0-13.0-0.2-1.14","dbw5xt8qoo","","dbw5xt8qoo","""2024-11-12T18:37:57.096Z""","629","materials/imgs/D48.png","arrowleft","","[""materials/imgs/D4.png"",""materials/imgs/D78.png""]","false","random","","",""
"","","","","","html-keyboard-response","75","109854","0.0-13.0-0.2-0.15","dbw5xt8qoo","","dbw5xt8qoo","""2024-11-12T18:37:57.096Z""","null","+","null","","","","","","",""
"","","","","","image-keyboard-response","76","110444","0.0-13.0-0.2-1.15","dbw5xt8qoo","","dbw5xt8qoo","""2024-11-12T18:37:57.096Z""","589","materials/imgs/D48.png","arrowleft","","[""materials/imgs/D82.png"",""materials/imgs/D80.png""]","false","random","","",""
"","","","","","html-keyboard-response","77","110950","0.0-13.0-0.2-0.16","dbw5xt8qoo","","dbw5xt8qoo","""2024-11-12T18:37:57.096Z""","null","+","null","","","","","","",""
"","","","","","image-keyboard-response","78","111885","0.0-13.0-0.2-1.16","dbw5xt8qoo","","dbw5xt8qoo","""2024-11-12T18:37:57.096Z""","929","materials/imgs/D81.png","arrowright","","[""materials/imgs/D11.png"",""materials/imgs/D36.png""]","false","random","","",""
"","","","","","html-keyboard-response","79","112389","0.0-13.0-0.2-0.17","dbw5xt8qoo","","dbw5xt8qoo","""2024-11-12T18:37:57.096Z""","null","+","null","","","","","","",""
"","","","","","image-keyboard-response","80","113453","0.0-13.0-0.2-1.17","dbw5xt8qoo","","dbw5xt8qoo","""2024-11-12T18:37:57.096Z""","1063","materials/imgs/D84.png","arrowright","","[""materials/imgs/D25.png"",""materials/imgs/D83.png""]","false","random","","",""
"","","","","","html-keyboard-response","81","113954","0.0-13.0-0.2-0.18","dbw5xt8qoo","","dbw5xt8qoo","""2024-11-12T18:37:57.096Z""","null","+","null","","","","","","",""
"","","","","","image-keyboard-response","82","114681","0.0-13.0-0.2-1.18","dbw5xt8qoo","","dbw5xt8qoo","""2024-11-12T18:37:57.096Z""","725","materials/imgs/D105.png","arrowright","","[""materials/imgs/D1.png"",""materials/imgs/D19.png""]","false","random","","",""
"","","","","","html-keyboard-response","83","115246","0.0-13.0-0.2-0.19","dbw5xt8qoo","","dbw5xt8qoo","""2024-11-12T18:37:57.096Z""","null","+","null","","","","","","",""
"","","","","","image-keyboard-response","84","116245","0.0-13.0-0.2-1.19","dbw5xt8qoo","","dbw5xt8qoo","""2024-11-12T18:37:57.096Z""","997","materials/imgs/D96.png","arrowleft","","[""materials/imgs/D51.png"",""materials/imgs/D83.png""]","false","random","","",""
"","","","","","html-keyboard-response","85","116751","0.0-13.0-0.2-0.20","dbw5xt8qoo","","dbw5xt8qoo","""2024-11-12T18:37:57.096Z""","null","+","null","","","","","","",""
"","","","","","image-keyboard-response","86","117503","0.0-13.0-0.2-1.20","dbw5xt8qoo","","dbw5xt8qoo","""2024-11-12T18:37:57.096Z""","751","materials/imgs/D22.png","arrowright","","[""materials/imgs/D95.png"",""materials/imgs/D49.png""]","false","random","","",""
"","","","","","html-keyboard-response","87","118007","0.0-13.0-1.2-0.2","dbw5xt8qoo","","dbw5xt8qoo","""2024-11-12T18:37:57.096Z""","null","+","null","","","","","","",""
"","","","","","image-keyboard-response","88","118806","0.0-13.0-1.2-1.2","dbw5xt8qoo","","dbw5xt8qoo","""2024-11-12T18:37:57.096Z""","798","materials/imgs/D64.png","arrowleft","","[""materials/imgs/D64.png"",""materials/imgs/D53.png""]","","check","materials/imgs/D64.png","0","true"
"","","","","","html-keyboard-response","89","119358","0.0-13.0-2.2-0.4","dbw5xt8qoo","","dbw5xt8qoo","""2024-11-12T18:37:57.096Z""","null","+","null","","","","","","",""
"","","","","","image-keyboard-response","90","120233","0.0-13.0-2.2-1.4","dbw5xt8qoo","","dbw5xt8qoo","""2024-11-12T18:37:57.096Z""","874","materials/imgs/D19.png","arrowright","","[""materials/imgs/D111.png"",""materials/imgs/D56.png""]","false","validation","","",""
"","","","","","html-keyboard-response","91","120736","0.0-13.0-2.2-0.5","dbw5xt8qoo","","dbw5xt8qoo","""2024-11-12T18:37:57.096Z""","null","+","null","","","","","","",""
"","","","","","image-keyboard-response","92","121592","0.0-13.0-2.2-1.5","dbw5xt8qoo","","dbw5xt8qoo","""2024-11-12T18:37:57.096Z""","856","materials/imgs/D46.png","arrowright","","[""materials/imgs/D92.png"",""materials/imgs/D77.png""]","false","validation","","",""
"","","","","","html-keyboard-response","93","122098","0.0-13.0-0.3-0.21","dbw5xt8qoo","","dbw5xt8qoo","""2024-11-12T18:37:57.096Z""","null","+","null","","","","","","",""
"","","","","","image-keyboard-response","94","122854","0.0-13.0-0.3-1.21","dbw5xt8qoo","","dbw5xt8qoo","""2024-11-12T18:37:57.096Z""","752","materials/imgs/D24.png","arrowleft","","[""materials/imgs/D14.png"",""materials/imgs/D68.png""]","false","random","","",""
"","","","","","html-keyboard-response","95","123354","0.0-13.0-0.3-0.22","dbw5xt8qoo","","dbw5xt8qoo","""2024-11-12T18:37:57.096Z""","null","+","null","","","","","","",""
"","","","","","image-keyboard-response","96","124367","0.0-13.0-0.3-1.22","dbw5xt8qoo","","dbw5xt8qoo","""2024-11-12T18:37:57.096Z""","1012","materials/imgs/D37.png","arrowleft","","[""materials/imgs/D84.png"",""materials/imgs/D77.png""]","false","random","","",""
"","","","","","html-keyboard-response","97","124868","0.0-13.0-0.3-0.23","dbw5xt8qoo","","dbw5xt8qoo","""2024-11-12T18:37:57.096Z""","null","+","null","","","","","","",""
"","","","","","image-keyboard-response","98","125597","0.0-13.0-0.3-1.23","dbw5xt8qoo","","dbw5xt8qoo","""2024-11-12T18:37:57.096Z""","726","materials/imgs/D9.png","arrowleft","","[""materials/imgs/D6.png"",""materials/imgs/D55.png""]","false","random","","",""
"","","","","","html-keyboard-response","99","126103","0.0-13.0-0.3-0.24","dbw5xt8qoo","","dbw5xt8qoo","""2024-11-12T18:37:57.096Z""","null","+","null","","","","","","",""
"","","","","","image-keyboard-response","100","126714","0.0-13.0-0.3-1.24","dbw5xt8qoo","","dbw5xt8qoo","""2024-11-12T18:37:57.096Z""","606","materials/imgs/D66.png","arrowleft","","[""materials/imgs/D81.png"",""materials/imgs/D11.png""]","false","random","","",""
"","","","","","html-keyboard-response","101","127217","0.0-13.0-0.3-0.25","dbw5xt8qoo","","dbw5xt8qoo","""2024-11-12T18:37:57.096Z""","null","+","null","","","","","","",""
"","","","","","image-keyboard-response","102","127744","0.0-13.0-0.3-1.25","dbw5xt8qoo","","dbw5xt8qoo","""2024-11-12T18:37:57.096Z""","524","materials/imgs/D29.png","arrowleft","","[""materials/imgs/D36.png"",""materials/imgs/D17.png""]","false","random","","",""
"","","","","","html-keyboard-response","103","128249","0.0-13.0-0.3-0.26","dbw5xt8qoo","","dbw5xt8qoo","""2024-11-12T18:37:57.096Z""","null","+","null","","","","","","",""
"","","","","","image-keyboard-response","104","128766","0.0-13.0-0.3-1.26","dbw5xt8qoo","","dbw5xt8qoo","""2024-11-12T18:37:57.096Z""","516","materials/imgs/D57.png","arrowright","","[""materials/imgs/D56.png"",""materials/imgs/D47.png""]","false","random","","",""
"","","","","","html-keyboard-response","105","129268","0.0-13.0-0.3-0.27","dbw5xt8qoo","","dbw5xt8qoo","""2024-11-12T18:37:57.096Z""","null","+","null","","","","","","",""
"","","","","","image-keyboard-response","106","129925","0.0-13.0-0.3-1.27","dbw5xt8qoo","","dbw5xt8qoo","""2024-11-12T18:37:57.096Z""","655","materials/imgs/D106.png","arrowright","","[""materials/imgs/D68.png"",""materials/imgs/D94.png""]","false","random","","",""
"","","","","","html-keyboard-response","107","130427","0.0-13.0-1.3-0.3","dbw5xt8qoo","","dbw5xt8qoo","""2024-11-12T18:37:57.096Z""","null","+","null","","","","","","",""
"","","","","","image-keyboard-response","108","131003","0.0-13.0-1.3-1.3","dbw5xt8qoo","","dbw5xt8qoo","""2024-11-12T18:37:57.096Z""","576","materials/imgs/D106.png","arrowleft","","[""materials/imgs/D106.png"",""materials/imgs/D101.png""]","","check","materials/imgs/D106.png","0","true"
"","","","","","html-keyboard-response","109","131506","0.0-13.0-2.3-0.6","dbw5xt8qoo","","dbw5xt8qoo","""2024-11-12T18:37:57.096Z""","null","+","null","","","","","","",""
"","","","","","image-keyboard-response","110","132174","0.0-13.0-2.3-1.6","dbw5xt8qoo","","dbw5xt8qoo","""2024-11-12T18:37:57.096Z""","667","materials/imgs/D22.png","arrowright","","[""materials/imgs/D4.png"",""materials/imgs/D25.png""]","false","validation","","",""
"","","","","","html-keyboard-response","111","132676","0.0-13.0-2.3-0.7","dbw5xt8qoo","","dbw5xt8qoo","""2024-11-12T18:37:57.096Z""","null","+","null","","","","","","",""
"","","","","","image-keyboard-response","112","133582","0.0-13.0-2.3-1.7","dbw5xt8qoo","","dbw5xt8qoo","""2024-11-12T18:37:57.096Z""","905","materials/imgs/D95.png","arrowleft","","[""materials/imgs/D36.png"",""materials/imgs/D4.png""]","false","validation","","",""
"","","","","","html-keyboard-response","113","134087","0.0-13.0-0.4-0.28","dbw5xt8qoo","","dbw5xt8qoo","""2024-11-12T18:37:57.096Z""","null","+","null","","","","","","",""
"","","","","","image-keyboard-response","114","134949","0.0-13.0-0.4-1.28","dbw5xt8qoo","","dbw5xt8qoo","""2024-11-12T18:37:57.096Z""","861","materials/imgs/D57.png","arrowleft","","[""materials/imgs/D85.png"",""materials/imgs/D18.png""]","false","random","","",""
"","","","","","html-keyboard-response","115","135454","0.0-13.0-0.4-0.29","dbw5xt8qoo","","dbw5xt8qoo","""2024-11-12T18:37:57.096Z""","null","+","null","","","","","","",""
"","","","","","image-keyboard-response","116","136340","0.0-13.0-0.4-1.29","dbw5xt8qoo","","dbw5xt8qoo","""2024-11-12T18:37:57.096Z""","885","materials/imgs/D52.png","arrowleft","","[""materials/imgs/D66.png"",""materials/imgs/D95.png""]","false","random","","",""
"","","","","","html-keyboard-response","117","136868","0.0-13.0-0.4-0.30","dbw5xt8qoo","","dbw5xt8qoo","""2024-11-12T18:37:57.096Z""","null","+","null","","","","","","",""
"","","","","","image-keyboard-response","118","137640","0.0-13.0-0.4-1.30","dbw5xt8qoo","","dbw5xt8qoo","""2024-11-12T18:37:57.096Z""","766","materials/imgs/D103.png","arrowleft","","[""materials/imgs/D9.png"",""materials/imgs/D24.png""]","false","random","","",""
"","","","","","html-keyboard-response","119","138147","0.0-13.0-0.4-0.31","dbw5xt8qoo","","dbw5xt8qoo","""2024-11-12T18:37:57.096Z""","null","+","null","","","","","","",""
"","","","","","image-keyboard-response","120","138651","0.0-13.0-0.4-1.31","dbw5xt8qoo","","dbw5xt8qoo","""2024-11-12T18:37:57.096Z""","502","materials/imgs/D19.png","arrowright","","[""materials/imgs/D64.png"",""materials/imgs/D47.png""]","false","random","","",""
"","","","","","html-keyboard-response","121","139156","0.0-13.0-0.4-0.32","dbw5xt8qoo","","dbw5xt8qoo","""2024-11-12T18:37:57.096Z""","null","+","null","","","","","","",""
"","","","","","image-keyboard-response","122","139983","0.0-13.0-0.4-1.32","dbw5xt8qoo","","dbw5xt8qoo","""2024-11-12T18:37:57.096Z""","823","materials/imgs/D96.png","arrowleft","","[""materials/imgs/D32.png"",""materials/imgs/D81.png""]","false","random","","",""
"","","","","","html-keyboard-response","123","140488","0.0-13.0-0.4-0.33","dbw5xt8qoo","","dbw5xt8qoo","""2024-11-12T18:37:57.096Z""","null","+","null","","","","","","",""
"","","","","","image-keyboard-response","124","141176","0.0-13.0-0.4-1.33","dbw5xt8qoo","","dbw5xt8qoo","""2024-11-12T18:37:57.096Z""","685","materials/imgs/D79.png","arrowleft","","[""materials/imgs/D57.png"",""materials/imgs/D48.png""]","false","random","","",""
"","","","","","html-keyboard-response","125","141679","0.0-13.0-0.4-0.34","dbw5xt8qoo","","dbw5xt8qoo","""2024-11-12T18:37:57.096Z""","null","+","null","","","","","","",""
"","","","","","image-keyboard-response","126","142504","0.0-13.0-0.4-1.34","dbw5xt8qoo","","dbw5xt8qoo","""2024-11-12T18:37:57.096Z""","823","materials/imgs/D36.png","arrowleft","","[""materials/imgs/D3.png"",""materials/imgs/D25.png""]","false","random","","",""
"","","","","","html-keyboard-response","127","143032","0.0-13.0-1.4-0.4","dbw5xt8qoo","","dbw5xt8qoo","""2024-11-12T18:37:57.096Z""","null","+","null","","","","","","",""
"","","","","","image-keyboard-response","128","143720","0.0-13.0-1.4-1.4","dbw5xt8qoo","","dbw5xt8qoo","""2024-11-12T18:37:57.096Z""","687","materials/imgs/D64.png","arrowleft","","[""materials/imgs/D64.png"",""materials/imgs/D53.png""]","","check","materials/imgs/D64.png","0","true"
"","","","","","html-keyboard-response","129","144226","0.0-13.0-2.4-0.8","dbw5xt8qoo","","dbw5xt8qoo","""2024-11-12T18:37:57.096Z""","null","+","null","","","","","","",""
"","","","","","image-keyboard-response","130","144750","0.0-13.0-2.4-1.8","dbw5xt8qoo","","dbw5xt8qoo","""2024-11-12T18:37:57.096Z""","524","materials/imgs/D8.png","arrowleft","","[""materials/imgs/D101.png"",""materials/imgs/D52.png""]","false","validation","","",""
"","","","","","html-keyboard-response","131","145253","0.0-13.0-2.4-0.9","dbw5xt8qoo","","dbw5xt8qoo","""2024-11-12T18:37:57.096Z""","null","+","null","","","","","","",""
"","","","","","image-keyboard-response","132","146066","0.0-13.0-2.4-1.9","dbw5xt8qoo","","dbw5xt8qoo","""2024-11-12T18:37:57.096Z""","814","materials/imgs/D32.png","arrowleft","","[""materials/imgs/D68.png"",""materials/imgs/D96.png""]","false","validation","","",""
"","","","","","html-button-response","133","148350","0.0-14.0","dbw5xt8qoo","","dbw5xt8qoo","""2024-11-12T18:37:57.096Z""","2283","You have completed 25% of the trials. Please click 'Continue' when you are ready proceed.","0","","","","","","",""
"","","","","","html-keyboard-response","134","148857","0.0-15.0-0.0-0.0","dbw5xt8qoo","","dbw5xt8qoo","""2024-11-12T18:37:57.096Z""","null","+","null","","","","","","",""
"","","","","","image-keyboard-response","135","149941","0.0-15.0-0.0-1.0","dbw5xt8qoo","","dbw5xt8qoo","""2024-11-12T18:37:57.096Z""","1083","materials/imgs/D37.png","arrowleft","","[""materials/imgs/D46.png"",""materials/imgs/D18.png""]","false","random","","",""
"","","","","","html-keyboard-response","136","150447","0.0-15.0-0.0-0.1","dbw5xt8qoo","","dbw5xt8qoo","""2024-11-12T18:37:57.096Z""","null","+","null","","","","","","",""
"","","","","","image-keyboard-response","137","151181","0.0-15.0-0.0-1.1","dbw5xt8qoo","","dbw5xt8qoo","""2024-11-12T18:37:57.096Z""","730","materials/imgs/D21.png","arrowleft","","[""materials/imgs/D34.png"",""materials/imgs/D95.png""]","false","random","","",""
"","","","","","html-keyboard-response","138","151685","0.0-15.0-0.0-0.2","dbw5xt8qoo","","dbw5xt8qoo","""2024-11-12T18:37:57.096Z""","null","+","null","","","","","","",""
"","","","","","image-keyboard-response","139","152365","0.0-15.0-0.0-1.2","dbw5xt8qoo","","dbw5xt8qoo","""2024-11-12T18:37:57.096Z""","679","materials/imgs/D57.png","arrowleft","","[""materials/imgs/D82.png"",""materials/imgs/D74.png""]","false","random","","",""
"","","","","","html-keyboard-response","140","152876","0.0-15.0-0.0-0.3","dbw5xt8qoo","","dbw5xt8qoo","""2024-11-12T18:37:57.096Z""","null","+","null","","","","","","",""
"","","","","","image-keyboard-response","141","153514","0.0-15.0-0.0-1.3","dbw5xt8qoo","","dbw5xt8qoo","""2024-11-12T18:37:57.096Z""","635","materials/imgs/D37.png","arrowleft","","[""materials/imgs/D85.png"",""materials/imgs/D103.png""]","false","random","","",""
"","","","","","html-keyboard-response","142","154020","0.0-15.0-0.0-0.4","dbw5xt8qoo","","dbw5xt8qoo","""2024-11-12T18:37:57.096Z""","null","+","null","","","","","","",""
"","","","","","image-keyboard-response","143","154753","0.0-15.0-0.0-1.4","dbw5xt8qoo","","dbw5xt8qoo","""2024-11-12T18:37:57.096Z""","732","materials/imgs/D104.png","arrowleft","","[""materials/imgs/D103.png"",""materials/imgs/D47.png""]","false","random","","",""
"","","","","","html-keyboard-response","144","155256","0.0-15.0-0.0-0.5","dbw5xt8qoo","","dbw5xt8qoo","""2024-11-12T18:37:57.096Z""","null","+","null","","","","","","",""
"","","","","","image-keyboard-response","145","155877","0.0-15.0-0.0-1.5","dbw5xt8qoo","","dbw5xt8qoo","""2024-11-12T18:37:57.096Z""","621","materials/imgs/D83.png","arrowleft","","[""materials/imgs/D65.png"",""materials/imgs/D106.png""]","false","random","","",""
"","","","","","html-keyboard-response","146","156383","0.0-15.0-0.0-0.6","dbw5xt8qoo","","dbw5xt8qoo","""2024-11-12T18:37:57.096Z""","null","+","null","","","","","","",""
"","","","","","image-keyboard-response","147","157234","0.0-15.0-0.0-1.6","dbw5xt8qoo","","dbw5xt8qoo","""2024-11-12T18:37:57.096Z""","847","materials/imgs/D102.png","arrowleft","","[""materials/imgs/D80.png"",""materials/imgs/D94.png""]","false","random","","",""
"","","","","","html-keyboard-response","148","157736","0.0-15.0-1.0-0.0","dbw5xt8qoo","","dbw5xt8qoo","""2024-11-12T18:37:57.096Z""","null","+","null","","","","","","",""
"","","","","","image-keyboard-response","149","158772","0.0-15.0-1.0-1.0","dbw5xt8qoo","","dbw5xt8qoo","""2024-11-12T18:37:57.096Z""","1035","materials/imgs/D8.png","arrowright","","[""materials/imgs/D18.png"",""materials/imgs/D8.png""]","","check","materials/imgs/D8.png","1","true"
"","","","","","html-keyboard-response","150","159275","0.0-15.0-2.0-0.0","dbw5xt8qoo","","dbw5xt8qoo","""2024-11-12T18:37:57.096Z""","null","+","null","","","","","","",""
"","","","","","image-keyboard-response","151","159909","0.0-15.0-2.0-1.0","dbw5xt8qoo","","dbw5xt8qoo","""2024-11-12T18:37:57.096Z""","632","materials/imgs/D75.png","arrowright","","[""materials/imgs/D96.png"",""materials/imgs/D4.png""]","false","validation","","",""
"","","","","","html-keyboard-response","152","160468","0.0-15.0-2.0-0.1","dbw5xt8qoo","","dbw5xt8qoo","""2024-11-12T18:37:57.096Z""","null","+","null","","","","","","",""
"","","","","","image-keyboard-response","153","161045","0.0-15.0-2.0-1.1","dbw5xt8qoo","","dbw5xt8qoo","""2024-11-12T18:37:57.096Z""","575","materials/imgs/D66.png","arrowright","","[""materials/imgs/D85.png"",""materials/imgs/D25.png""]","false","validation","","",""
"","","","","","html-keyboard-response","154","161550","0.0-15.0-0.1-0.7","dbw5xt8qoo","","dbw5xt8qoo","""2024-11-12T18:37:57.096Z""","null","+","null","","","","","","",""
"","","","","","image-keyboard-response","155","162445","0.0-15.0-0.1-1.7","dbw5xt8qoo","","dbw5xt8qoo","""2024-11-12T18:37:57.096Z""","893","materials/imgs/D29.png","arrowleft","","[""materials/imgs/D9.png"",""materials/imgs/D102.png""]","false","random","","",""
"","","","","","html-keyboard-response","156","162946","0.0-15.0-0.1-0.8","dbw5xt8qoo","","dbw5xt8qoo","""2024-11-12T18:37:57.096Z""","null","+","null","","","","","","",""
"","","","","","image-keyboard-response","157","163424","0.0-15.0-0.1-1.8","dbw5xt8qoo","","dbw5xt8qoo","""2024-11-12T18:37:57.096Z""","477","materials/imgs/D68.png","arrowleft","","[""materials/imgs/D103.png"",""materials/imgs/D77.png""]","true","random","","",""
"","","","","","html-keyboard-response","158","165586","0.0-15.0-0.1-2.8-0.8","dbw5xt8qoo","","dbw5xt8qoo","""2024-11-12T18:37:57.096Z""","2161","<p><strong>You're going too fast.</strong><p>Please slow down and assess each triplet.<p>Press 'y' to continue.</p></p>","y","","","","","","",""
"","","","","","html-keyboard-response","159","166109","0.0-15.0-0.1-0.9","dbw5xt8qoo","","dbw5xt8qoo","""2024-11-12T18:37:57.096Z""","null","+","null","","","","","","",""
"","","","","","image-keyboard-response","160","167485","0.0-15.0-0.1-1.9","dbw5xt8qoo","","dbw5xt8qoo","""2024-11-12T18:37:57.096Z""","1375","materials/imgs/D95.png","arrowleft","","[""materials/imgs/D57.png"",""materials/imgs/D36.png""]","false","random","","",""
"","","","","","html-keyboard-response","161","167990","0.0-15.0-0.1-0.10","dbw5xt8qoo","","dbw5xt8qoo","""2024-11-12T18:37:57.096Z""","null","+","null","","","","","","",""
"","","","","","image-keyboard-response","162","169177","0.0-15.0-0.1-1.10","dbw5xt8qoo","","dbw5xt8qoo","""2024-11-12T18:37:57.096Z""","1185","materials/imgs/D21.png","arrowleft","","[""materials/imgs/D32.png"",""materials/imgs/D57.png""]","false","random","","",""
"","","","","","html-keyboard-response","163","169679","0.0-15.0-0.1-0.11","dbw5xt8qoo","","dbw5xt8qoo","""2024-11-12T18:37:57.096Z""","null","+","null","","","","","","",""
"","","","","","image-keyboard-response","164","170799","0.0-15.0-0.1-1.11","dbw5xt8qoo","","dbw5xt8qoo","""2024-11-12T18:37:57.096Z""","1118","materials/imgs/D3.png","arrowleft","","[""materials/imgs/D68.png"",""materials/imgs/D29.png""]","false","random","","",""
"","","","","","html-keyboard-response","165","171302","0.0-15.0-0.1-0.12","dbw5xt8qoo","","dbw5xt8qoo","""2024-11-12T18:37:57.096Z""","null","+","null","","","","","","",""
"","","","","","image-keyboard-response","166","172248","0.0-15.0-0.1-1.12","dbw5xt8qoo","","dbw5xt8qoo","""2024-11-12T18:37:57.096Z""","944","materials/imgs/D1.png","arrowleft","","[""materials/imgs/D32.png"",""materials/imgs/D80.png""]","false","random","","",""
"","","","","","html-keyboard-response","167","172749","0.0-15.0-0.1-0.13","dbw5xt8qoo","","dbw5xt8qoo","""2024-11-12T18:37:57.096Z""","null","+","null","","","","","","",""
"","","","","","image-keyboard-response","168","173740","0.0-15.0-0.1-1.13","dbw5xt8qoo","","dbw5xt8qoo","""2024-11-12T18:37:57.096Z""","989","materials/imgs/D20.png","arrowleft","","[""materials/imgs/D35.png"",""materials/imgs/D74.png""]","false","random","","",""
"","","","","","html-keyboard-response","169","174245","0.0-15.0-1.1-0.1","dbw5xt8qoo","","dbw5xt8qoo","""2024-11-12T18:37:57.096Z""","null","+","null","","","","","","",""
"","","","","","image-keyboard-response","170","175551","0.0-15.0-1.1-1.1","dbw5xt8qoo","","dbw5xt8qoo","""2024-11-12T18:37:57.096Z""","1305","materials/imgs/D26.png","arrowleft","","[""materials/imgs/D26.png"",""materials/imgs/D46.png""]","","check","materials/imgs/D26.png","0","true"
"","","","","","html-keyboard-response","171","176058","0.0-15.0-2.1-0.2","dbw5xt8qoo","","dbw5xt8qoo","""2024-11-12T18:37:57.096Z""","null","+","null","","","","","","",""
"","","","","","image-keyboard-response","172","178352","0.0-15.0-2.1-1.2","dbw5xt8qoo","","dbw5xt8qoo","""2024-11-12T18:37:57.096Z""","2293","materials/imgs/D64.png","arrowright","","[""materials/imgs/D6.png"",""materials/imgs/D81.png""]","false","validation","","",""
"","","","","","html-keyboard-response","173","178858","0.0-15.0-2.1-0.3","dbw5xt8qoo","","dbw5xt8qoo","""2024-11-12T18:37:57.096Z""","null","+","null","","","","","","",""
"","","","","","image-keyboard-response","174","179820","0.0-15.0-2.1-1.3","dbw5xt8qoo","","dbw5xt8qoo","""2024-11-12T18:37:57.096Z""","961","materials/imgs/D1.png","arrowleft","","[""materials/imgs/D57.png"",""materials/imgs/D76.png""]","false","validation","","",""
"","","","","","html-keyboard-response","175","180323","0.0-15.0-0.2-0.14","dbw5xt8qoo","","dbw5xt8qoo","""2024-11-12T18:37:57.096Z""","null","+","null","","","","","","",""
"","","","","","image-keyboard-response","176","181402","0.0-15.0-0.2-1.14","dbw5xt8qoo","","dbw5xt8qoo","""2024-11-12T18:37:57.096Z""","1077","materials/imgs/D103.png","arrowleft","","[""materials/imgs/D20.png"",""materials/imgs/D19.png""]","false","random","","",""
"","","","","","html-keyboard-response","177","181907","0.0-15.0-0.2-0.15","dbw5xt8qoo","","dbw5xt8qoo","""2024-11-12T18:37:57.096Z""","null","+","null","","","","","","",""
"","","","","","image-keyboard-response","178","184931","0.0-15.0-0.2-1.15","dbw5xt8qoo","","dbw5xt8qoo","""2024-11-12T18:37:57.096Z""","3023","materials/imgs/D48.png","arrowright","","[""materials/imgs/D55.png"",""materials/imgs/D36.png""]","false","random","","",""
"","","","","","html-keyboard-response","179","185432","0.0-15.0-0.2-0.16","dbw5xt8qoo","","dbw5xt8qoo","""2024-11-12T18:37:57.096Z""","null","+","null","","","","","","",""
"","","","","","image-keyboard-response","180","186883","0.0-15.0-0.2-1.16","dbw5xt8qoo","","dbw5xt8qoo","""2024-11-12T18:37:57.096Z""","1450","materials/imgs/D25.png","arrowleft","","[""materials/imgs/D34.png"",""materials/imgs/D76.png""]","false","random","","",""
"","","","","","html-keyboard-response","181","187387","0.0-15.0-0.2-0.17","dbw5xt8qoo","","dbw5xt8qoo","""2024-11-12T18:37:57.096Z""","null","+","null","","","","","","",""
"","","","","","image-keyboard-response","182","188263","0.0-15.0-0.2-1.17","dbw5xt8qoo","","dbw5xt8qoo","""2024-11-12T18:37:57.096Z""","876","materials/imgs/D92.png","arrowleft","","[""materials/imgs/D4.png"",""materials/imgs/D85.png""]","false","random","","",""
"","","","","","html-keyboard-response","183","188769","0.0-15.0-0.2-0.18","dbw5xt8qoo","","dbw5xt8qoo","""2024-11-12T18:37:57.096Z""","null","+","null","","","","","","",""
"","","","","","image-keyboard-response","184","189877","0.0-15.0-0.2-1.18","dbw5xt8qoo","","dbw5xt8qoo","""2024-11-12T18:37:57.096Z""","1108","materials/imgs/D49.png","arrowright","","[""materials/imgs/D68.png"",""materials/imgs/D21.png""]","false","random","","",""
"","","","","","html-keyboard-response","185","190383","0.0-15.0-0.2-0.19","dbw5xt8qoo","","dbw5xt8qoo","""2024-11-12T18:37:57.096Z""","null","+","null","","","","","","",""
"","","","","","image-keyboard-response","186","192406","0.0-15.0-0.2-1.19","dbw5xt8qoo","","dbw5xt8qoo","""2024-11-12T18:37:57.096Z""","2021","materials/imgs/D92.png","arrowright","","[""materials/imgs/D66.png"",""materials/imgs/D34.png""]","false","random","","",""
"","","","","","html-keyboard-response","187","192911","0.0-15.0-0.2-0.20","dbw5xt8qoo","","dbw5xt8qoo","""2024-11-12T18:37:57.096Z""","null","+","null","","","","","","",""
"","","","","","image-keyboard-response","188","194633","0.0-15.0-0.2-1.20","dbw5xt8qoo","","dbw5xt8qoo","""2024-11-12T18:37:57.096Z""","1720","materials/imgs/D19.png","arrowleft","","[""materials/imgs/D34.png"",""materials/imgs/D57.png""]","false","random","","",""
"","","","","","html-keyboard-response","189","195137","0.0-15.0-1.2-0.2","dbw5xt8qoo","","dbw5xt8qoo","""2024-11-12T18:37:57.096Z""","null","+","null","","","","","","",""
"","","","","","image-keyboard-response","190","196457","0.0-15.0-1.2-1.2","dbw5xt8qoo","","dbw5xt8qoo","""2024-11-12T18:37:57.096Z""","1319","materials/imgs/D26.png","arrowleft","","[""materials/imgs/D26.png"",""materials/imgs/D46.png""]","","check","materials/imgs/D26.png","0","true"
"","","","","","html-keyboard-response","191","196963","0.0-15.0-2.2-0.4","dbw5xt8qoo","","dbw5xt8qoo","""2024-11-12T18:37:57.096Z""","null","+","null","","","","","","",""
"","","","","","image-keyboard-response","192","198379","0.0-15.0-2.2-1.4","dbw5xt8qoo","","dbw5xt8qoo","""2024-11-12T18:37:57.096Z""","1413","materials/imgs/D105.png","arrowleft","","[""materials/imgs/D106.png"",""materials/imgs/D52.png""]","false","validation","","",""
"","","","","","html-keyboard-response","193","198884","0.0-15.0-2.2-0.5","dbw5xt8qoo","","dbw5xt8qoo","""2024-11-12T18:37:57.096Z""","null","+","null","","","","","","",""
"","","","","","image-keyboard-response","194","201560","0.0-15.0-2.2-1.5","dbw5xt8qoo","","dbw5xt8qoo","""2024-11-12T18:37:57.096Z""","2675","materials/imgs/D101.png","arrowright","","[""materials/imgs/D76.png"",""materials/imgs/D47.png""]","false","validation","","",""
"","","","","","html-keyboard-response","195","202064","0.0-15.0-0.3-0.21","dbw5xt8qoo","","dbw5xt8qoo","""2024-11-12T18:37:57.096Z""","null","+","null","","","","","","",""
"","","","","","image-keyboard-response","196","203505","0.0-15.0-0.3-1.21","dbw5xt8qoo","","dbw5xt8qoo","""2024-11-12T18:37:57.096Z""","1437","materials/imgs/D37.png","arrowleft","","[""materials/imgs/D32.png"",""materials/imgs/D36.png""]","false","random","","",""
"","","","","","html-keyboard-response","197","204007","0.0-15.0-0.3-0.22","dbw5xt8qoo","","dbw5xt8qoo","""2024-11-12T18:37:57.096Z""","null","+","null","","","","","","",""
"","","","","","image-keyboard-response","198","206291","0.0-15.0-0.3-1.22","dbw5xt8qoo","","dbw5xt8qoo","""2024-11-12T18:37:57.096Z""","2282","materials/imgs/D105.png","arrowleft","","[""materials/imgs/D101.png"",""materials/imgs/D37.png""]","false","random","","",""
"","","","","","html-keyboard-response","199","206794","0.0-15.0-0.3-0.23","dbw5xt8qoo","","dbw5xt8qoo","""2024-11-12T18:37:57.096Z""","null","+","null","","","","","","",""
"","","","","","image-keyboard-response","200","208430","0.0-15.0-0.3-1.23","dbw5xt8qoo","","dbw5xt8qoo","""2024-11-12T18:37:57.096Z""","1633","materials/imgs/D75.png","arrowleft","","[""materials/imgs/D19.png"",""materials/imgs/D104.png""]","false","random","","",""
"","","","","","html-keyboard-response","201","208931","0.0-15.0-0.3-0.24","dbw5xt8qoo","","dbw5xt8qoo","""2024-11-12T18:37:57.096Z""","null","+","null","","","","","","",""
"","","","","","image-keyboard-response","202","211203","0.0-15.0-0.3-1.24","dbw5xt8qoo","","dbw5xt8qoo","""2024-11-12T18:37:57.096Z""","2270","materials/imgs/D9.png","arrowleft","","[""materials/imgs/D57.png"",""materials/imgs/D29.png""]","false","random","","",""
"","","","","","html-keyboard-response","203","211705","0.0-15.0-0.3-0.25","dbw5xt8qoo","","dbw5xt8qoo","""2024-11-12T18:37:57.096Z""","null","+","null","","","","","","",""
"","","","","","image-keyboard-response","204","214138","0.0-15.0-0.3-1.25","dbw5xt8qoo","","dbw5xt8qoo","""2024-11-12T18:37:57.096Z""","2432","materials/imgs/D55.png","arrowleft","","[""materials/imgs/D6.png"",""materials/imgs/D75.png""]","false","random","","",""
"","","","","","html-keyboard-response","205","214640","0.0-15.0-0.3-0.26","dbw5xt8qoo","","dbw5xt8qoo","""2024-11-12T18:37:57.096Z""","null","+","null","","","","","","",""
"","","","","","image-keyboard-response","206","216554","0.0-15.0-0.3-1.26","dbw5xt8qoo","","dbw5xt8qoo","""2024-11-12T18:37:57.096Z""","1908","materials/imgs/D56.png","arrowright","","[""materials/imgs/D37.png"",""materials/imgs/D52.png""]","false","random","","",""
"","","","","","html-keyboard-response","207","217058","0.0-15.0-0.3-0.27","dbw5xt8qoo","","dbw5xt8qoo","""2024-11-12T18:37:57.096Z""","null","+","null","","","","","","",""
"","","","","","image-keyboard-response","208","218989","0.0-15.0-0.3-1.27","dbw5xt8qoo","","dbw5xt8qoo","""2024-11-12T18:37:57.096Z""","1930","materials/imgs/D64.png","arrowright","","[""materials/imgs/D96.png"",""materials/imgs/D52.png""]","false","random","","",""
"","","","","","html-keyboard-response","209","219493","0.0-15.0-1.3-0.3","dbw5xt8qoo","","dbw5xt8qoo","""2024-11-12T18:37:57.096Z""","null","+","null","","","","","","",""
"","","","","","image-keyboard-response","210","220921","0.0-15.0-1.3-1.3","dbw5xt8qoo","","dbw5xt8qoo","""2024-11-12T18:37:57.096Z""","1423","materials/imgs/D53.png","arrowright","","[""materials/imgs/D64.png"",""materials/imgs/D53.png""]","","check","materials/imgs/D53.png","1","true"
"","","","","","html-keyboard-response","211","221424","0.0-15.0-2.3-0.6","dbw5xt8qoo","","dbw5xt8qoo","""2024-11-12T18:37:57.096Z""","null","+","null","","","","","","",""
"","","","","","image-keyboard-response","212","223051","0.0-15.0-2.3-1.6","dbw5xt8qoo","","dbw5xt8qoo","""2024-11-12T18:37:57.096Z""","1625","materials/imgs/D19.png","arrowleft","","[""materials/imgs/D111.png"",""materials/imgs/D56.png""]","false","validation","","",""
"","","","","","html-keyboard-response","213","223552","0.0-15.0-2.3-0.7","dbw5xt8qoo","","dbw5xt8qoo","""2024-11-12T18:37:57.096Z""","null","+","null","","","","","","",""
"","","","","","image-keyboard-response","214","226005","0.0-15.0-2.3-1.7","dbw5xt8qoo","","dbw5xt8qoo","""2024-11-12T18:37:57.096Z""","2452","materials/imgs/D8.png","arrowleft","","[""materials/imgs/D101.png"",""materials/imgs/D52.png""]","false","validation","","",""
"","","","","","html-keyboard-response","215","226560","0.0-15.0-0.4-0.28","dbw5xt8qoo","","dbw5xt8qoo","""2024-11-12T18:37:57.096Z""","null","+","null","","","","","","",""
"","","","","","image-keyboard-response","216","228029","0.0-15.0-0.4-1.28","dbw5xt8qoo","","dbw5xt8qoo","""2024-11-12T18:37:57.096Z""","1468","materials/imgs/D104.png","arrowright","","[""materials/imgs/D106.png"",""materials/imgs/D4.png""]","false","random","","",""
"","","","","","html-keyboard-response","217","228535","0.0-15.0-0.4-0.29","dbw5xt8qoo","","dbw5xt8qoo","""2024-11-12T18:37:57.096Z""","null","+","null","","","","","","",""
"","","","","","image-keyboard-response","218","230206","0.0-15.0-0.4-1.29","dbw5xt8qoo","","dbw5xt8qoo","""2024-11-12T18:37:57.096Z""","1671","materials/imgs/D81.png","arrowright","","[""materials/imgs/D74.png"",""materials/imgs/D77.png""]","false","random","","",""
"","","","","","html-keyboard-response","219","230711","0.0-15.0-0.4-0.30","dbw5xt8qoo","","dbw5xt8qoo","""2024-11-12T18:37:57.096Z""","null","+","null","","","","","","",""
"","","","","","image-keyboard-response","220","233003","0.0-15.0-0.4-1.30","dbw5xt8qoo","","dbw5xt8qoo","""2024-11-12T18:37:57.096Z""","2288","materials/imgs/D79.png","arrowright","","[""materials/imgs/D74.png"",""materials/imgs/D68.png""]","false","random","","",""
"","","","","","html-keyboard-response","221","233504","0.0-15.0-0.4-0.31","dbw5xt8qoo","","dbw5xt8qoo","""2024-11-12T18:37:57.096Z""","null","+","null","","","","","","",""
"","","","","","image-keyboard-response","222","235274","0.0-15.0-0.4-1.31","dbw5xt8qoo","","dbw5xt8qoo","""2024-11-12T18:37:57.096Z""","1769","materials/imgs/D111.png","arrowright","","[""materials/imgs/D52.png"",""materials/imgs/D80.png""]","false","random","","",""
"","","","","","html-keyboard-response","223","235781","0.0-15.0-0.4-0.32","dbw5xt8qoo","","dbw5xt8qoo","""2024-11-12T18:37:57.096Z""","null","+","null","","","","","","",""
"","","","","","image-keyboard-response","224","236628","0.0-15.0-0.4-1.32","dbw5xt8qoo","","dbw5xt8qoo","""2024-11-12T18:37:57.096Z""","845","materials/imgs/D96.png","arrowright","","[""materials/imgs/D47.png"",""materials/imgs/D82.png""]","false","random","","",""
"","","","","","html-keyboard-response","225","237133","0.0-15.0-0.4-0.33","dbw5xt8qoo","","dbw5xt8qoo","""2024-11-12T18:37:57.096Z""","null","+","null","","","","","","",""
"","","","","","image-keyboard-response","226","240600","0.0-15.0-0.4-1.33","dbw5xt8qoo","","dbw5xt8qoo","""2024-11-12T18:37:57.096Z""","3464","materials/imgs/D22.png","arrowleft","","[""materials/imgs/D11.png"",""materials/imgs/D47.png""]","false","random","","",""
"","","","","","html-keyboard-response","227","241105","0.0-15.0-0.4-0.34","dbw5xt8qoo","","dbw5xt8qoo","""2024-11-12T18:37:57.096Z""","null","+","null","","","","","","",""
"","","","","","image-keyboard-response","228","242754","0.0-15.0-0.4-1.34","dbw5xt8qoo","","dbw5xt8qoo","""2024-11-12T18:37:57.096Z""","1648","materials/imgs/D46.png","arrowleft","","[""materials/imgs/D32.png"",""materials/imgs/D34.png""]","false","random","","",""
"","","","","","html-keyboard-response","229","243255","0.0-15.0-1.4-0.4","dbw5xt8qoo","","dbw5xt8qoo","""2024-11-12T18:37:57.096Z""","null","+","null","","","","","","",""
"","","","","","image-keyboard-response","230","244567","0.0-15.0-1.4-1.4","dbw5xt8qoo","","dbw5xt8qoo","""2024-11-12T18:37:57.096Z""","1311","materials/imgs/D8.png","arrowright","","[""materials/imgs/D18.png"",""materials/imgs/D8.png""]","","check","materials/imgs/D8.png","1","true"
"","","","","","html-keyboard-response","231","245119","0.0-15.0-2.4-0.8","dbw5xt8qoo","","dbw5xt8qoo","""2024-11-12T18:37:57.096Z""","null","+","null","","","","","","",""
"","","","","","image-keyboard-response","232","246425","0.0-15.0-2.4-1.8","dbw5xt8qoo","","dbw5xt8qoo","""2024-11-12T18:37:57.096Z""","1305","materials/imgs/D3.png","arrowleft","","[""materials/imgs/D79.png"",""materials/imgs/D48.png""]","false","validation","","",""
"","","","","","html-keyboard-response","233","246930","0.0-15.0-2.4-0.9","dbw5xt8qoo","","dbw5xt8qoo","""2024-11-12T18:37:57.096Z""","null","+","null","","","","","","",""
"","","","","","image-keyboard-response","234","248404","0.0-15.0-2.4-1.9","dbw5xt8qoo","","dbw5xt8qoo","""2024-11-12T18:37:57.096Z""","1473","materials/imgs/D1.png","arrowleft","","[""materials/imgs/D57.png"",""materials/imgs/D76.png""]","false","validation","","",""
"","","","","","html-button-response","235","251529","0.0-16.0","dbw5xt8qoo","","dbw5xt8qoo","""2024-11-12T18:37:57.096Z""","3118","You have completed 50% of the trials. Please click 'Continue' when you are ready proceed.","0","","","","","","",""
"","","","","","html-keyboard-response","236","252036","0.0-17.0-0.0-0.0","dbw5xt8qoo","","dbw5xt8qoo","""2024-11-12T18:37:57.096Z""","null","+","null","","","","","","",""
"","","","","","image-keyboard-response","237","254222","0.0-17.0-0.0-1.0","dbw5xt8qoo","","dbw5xt8qoo","""2024-11-12T18:37:57.096Z""","2185","materials/imgs/D56.png","arrowleft","","[""materials/imgs/D46.png"",""materials/imgs/D76.png""]","false","random","","",""
"","","","","","html-keyboard-response","238","254727","0.0-17.0-0.0-0.1","dbw5xt8qoo","","dbw5xt8qoo","""2024-11-12T18:37:57.096Z""","null","+","null","","","","","","",""
"","","","","","image-keyboard-response","239","256675","0.0-17.0-0.0-1.1","dbw5xt8qoo","","dbw5xt8qoo","""2024-11-12T18:37:57.096Z""","1947","materials/imgs/D19.png","arrowleft","","[""materials/imgs/D95.png"",""materials/imgs/D37.png""]","false","random","","",""
"","","","","","html-keyboard-response","240","257177","0.0-17.0-0.0-0.2","dbw5xt8qoo","","dbw5xt8qoo","""2024-11-12T18:37:57.096Z""","null","+","null","","","","","","",""
"","","","","","image-keyboard-response","241","258912","0.0-17.0-0.0-1.2","dbw5xt8qoo","","dbw5xt8qoo","""2024-11-12T18:37:57.096Z""","1734","materials/imgs/D76.png","arrowleft","","[""materials/imgs/D1.png"",""materials/imgs/D48.png""]","false","random","","",""
"","","","","","html-keyboard-response","242","259418","0.0-17.0-0.0-0.3","dbw5xt8qoo","","dbw5xt8qoo","""2024-11-12T18:37:57.096Z""","null","+","null","","","","","","",""
"","","","","","image-keyboard-response","243","264674","0.0-17.0-0.0-1.3","dbw5xt8qoo","","dbw5xt8qoo","""2024-11-12T18:37:57.096Z""","5254","materials/imgs/D68.png","arrowright","","[""materials/imgs/D11.png"",""materials/imgs/D4.png""]","false","random","","",""
"","","","","","html-keyboard-response","244","265176","0.0-17.0-0.0-0.4","dbw5xt8qoo","","dbw5xt8qoo","""2024-11-12T18:37:57.096Z""","null","+","null","","","","","","",""
"","","","","","image-keyboard-response","245","267028","0.0-17.0-0.0-1.4","dbw5xt8qoo","","dbw5xt8qoo","""2024-11-12T18:37:57.096Z""","1850","materials/imgs/D36.png","arrowright","","[""materials/imgs/D8.png"",""materials/imgs/D81.png""]","false","random","","",""
"","","","","","html-keyboard-response","246","267534","0.0-17.0-0.0-0.5","dbw5xt8qoo","","dbw5xt8qoo","""2024-11-12T18:37:57.096Z""","null","+","null","","","","","","",""
"","","","","","image-keyboard-response","247","274459","0.0-17.0-0.0-1.5","dbw5xt8qoo","","dbw5xt8qoo","""2024-11-12T18:37:57.096Z""","6918","materials/imgs/D84.png","arrowleft","","[""materials/imgs/D77.png"",""materials/imgs/D34.png""]","false","random","","",""
"","","","","","html-keyboard-response","248","274968","0.0-17.0-0.0-0.6","dbw5xt8qoo","","dbw5xt8qoo","""2024-11-12T18:37:57.096Z""","null","+","null","","","","","","",""
"","","","","","image-keyboard-response","249","276518","0.0-17.0-0.0-1.6","dbw5xt8qoo","","dbw5xt8qoo","""2024-11-12T18:37:57.096Z""","1548","materials/imgs/D1.png","arrowright","","[""materials/imgs/D105.png"",""materials/imgs/D56.png""]","false","random","","",""
"","","","","","html-keyboard-response","250","277033","0.0-17.0-1.0-0.0","dbw5xt8qoo","","dbw5xt8qoo","""2024-11-12T18:37:57.096Z""","null","+","null","","","","","","",""
"","","","","","image-keyboard-response","251","278826","0.0-17.0-1.0-1.0","dbw5xt8qoo","","dbw5xt8qoo","""2024-11-12T18:37:57.096Z""","1792","materials/imgs/D101.png","arrowright","","[""materials/imgs/D106.png"",""materials/imgs/D101.png""]","","check","materials/imgs/D101.png","1","true"
"","","","","","html-keyboard-response","252","279328","0.0-17.0-2.0-0.0","dbw5xt8qoo","","dbw5xt8qoo","""2024-11-12T18:37:57.096Z""","null","+","null","","","","","","",""
"","","","","","image-keyboard-response","253","280382","0.0-17.0-2.0-1.0","dbw5xt8qoo","","dbw5xt8qoo","""2024-11-12T18:37:57.096Z""","1048","materials/imgs/D75.png","arrowright","","[""materials/imgs/D96.png"",""materials/imgs/D4.png""]","false","validation","","",""
"","","","","","html-keyboard-response","254","280884","0.0-17.0-2.0-0.1","dbw5xt8qoo","","dbw5xt8qoo","""2024-11-12T18:37:57.096Z""","null","+","null","","","","","","",""
"","","","","","image-keyboard-response","255","282876","0.0-17.0-2.0-1.1","dbw5xt8qoo","","dbw5xt8qoo","""2024-11-12T18:37:57.096Z""","1988","materials/imgs/D26.png","arrowleft","","[""materials/imgs/D36.png"",""materials/imgs/D92.png""]","false","validation","","",""
"","","","","","html-keyboard-response","256","283382","0.0-17.0-0.1-0.7","dbw5xt8qoo","","dbw5xt8qoo","""2024-11-12T18:37:57.096Z""","null","+","null","","","","","","",""
"","","","","","image-keyboard-response","257","284458","0.0-17.0-0.1-1.7","dbw5xt8qoo","","dbw5xt8qoo","""2024-11-12T18:37:57.096Z""","1072","materials/imgs/D87.png","arrowright","","[""materials/imgs/D1.png"",""materials/imgs/D82.png""]","false","random","","",""
"","","","","","html-keyboard-response","258","284981","0.0-17.0-0.1-0.8","dbw5xt8qoo","","dbw5xt8qoo","""2024-11-12T18:37:57.096Z""","null","+","null","","","","","","",""
"","","","","","image-keyboard-response","259","287011","0.0-17.0-0.1-1.8","dbw5xt8qoo","","dbw5xt8qoo","""2024-11-12T18:37:57.096Z""","2028","materials/imgs/D111.png","arrowright","","[""materials/imgs/D25.png"",""materials/imgs/D22.png""]","false","random","","",""
"","","","","","html-keyboard-response","260","287515","0.0-17.0-0.1-0.9","dbw5xt8qoo","","dbw5xt8qoo","""2024-11-12T18:37:57.096Z""","null","+","null","","","","","","",""
"","","","","","image-keyboard-response","261","288714","0.0-17.0-0.1-1.9","dbw5xt8qoo","","dbw5xt8qoo","""2024-11-12T18:37:57.096Z""","1195","materials/imgs/D14.png","arrowleft","","[""materials/imgs/D85.png"",""materials/imgs/D57.png""]","false","random","","",""
"","","","","","html-keyboard-response","262","289215","0.0-17.0-0.1-0.10","dbw5xt8qoo","","dbw5xt8qoo","""2024-11-12T18:37:57.096Z""","null","+","null","","","","","","",""
"","","","","","image-keyboard-response","263","291284","0.0-17.0-0.1-1.10","dbw5xt8qoo","","dbw5xt8qoo","""2024-11-12T18:37:57.096Z""","2067","materials/imgs/D47.png","arrowright","","[""materials/imgs/D106.png"",""materials/imgs/D8.png""]","false","random","","",""
"","","","","","html-keyboard-response","264","291786","0.0-17.0-0.1-0.11","dbw5xt8qoo","","dbw5xt8qoo","""2024-11-12T18:37:57.096Z""","null","+","null","","","","","","",""
"","","","","","image-keyboard-response","265","294280","0.0-17.0-0.1-1.11","dbw5xt8qoo","","dbw5xt8qoo","""2024-11-12T18:37:57.096Z""","2493","materials/imgs/D57.png","arrowleft","","[""materials/imgs/D34.png"",""materials/imgs/D18.png""]","false","random","","",""
"","","","","","html-keyboard-response","266","294783","0.0-17.0-0.1-0.12","dbw5xt8qoo","","dbw5xt8qoo","""2024-11-12T18:37:57.096Z""","null","+","null","","","","","","",""
"","","","","","image-keyboard-response","267","298698","0.0-17.0-0.1-1.12","dbw5xt8qoo","","dbw5xt8qoo","""2024-11-12T18:37:57.096Z""","3915","materials/imgs/D87.png","arrowright","","[""materials/imgs/D83.png"",""materials/imgs/D22.png""]","false","random","","",""
"","","","","","html-keyboard-response","268","299204","0.0-17.0-0.1-0.13","dbw5xt8qoo","","dbw5xt8qoo","""2024-11-12T18:37:57.096Z""","null","+","null","","","","","","",""
"","","","","","image-keyboard-response","269","302206","0.0-17.0-0.1-1.13","dbw5xt8qoo","","dbw5xt8qoo","""2024-11-12T18:37:57.096Z""","3002","materials/imgs/D14.png","arrowleft","","[""materials/imgs/D68.png"",""materials/imgs/D87.png""]","false","random","","",""
"","","","","","html-keyboard-response","270","302708","0.0-17.0-1.1-0.1","dbw5xt8qoo","","dbw5xt8qoo","""2024-11-12T18:37:57.096Z""","null","+","null","","","","","","",""
"","","","","","image-keyboard-response","271","303866","0.0-17.0-1.1-1.1","dbw5xt8qoo","","dbw5xt8qoo","""2024-11-12T18:37:57.096Z""","1157","materials/imgs/D53.png","arrowright","","[""materials/imgs/D64.png"",""materials/imgs/D53.png""]","","check","materials/imgs/D53.png","1","true"
"","","","","","html-keyboard-response","272","304371","0.0-17.0-2.1-0.2","dbw5xt8qoo","","dbw5xt8qoo","""2024-11-12T18:37:57.096Z""","null","+","null","","","","","","",""
"","","","","","image-keyboard-response","273","309246","0.0-17.0-2.1-1.2","dbw5xt8qoo","","dbw5xt8qoo","""2024-11-12T18:37:57.096Z""","4871","materials/imgs/D103.png","arrowleft","","[""materials/imgs/D76.png"",""materials/imgs/D106.png""]","false","validation","","",""
"","","","","","html-keyboard-response","274","309747","0.0-17.0-2.1-0.3","dbw5xt8qoo","","dbw5xt8qoo","""2024-11-12T18:37:57.096Z""","null","+","null","","","","","","",""
"","","","","","image-keyboard-response","275","314057","0.0-17.0-2.1-1.3","dbw5xt8qoo","","dbw5xt8qoo","""2024-11-12T18:37:57.096Z""","4308","materials/imgs/D79.png","arrowright","","[""materials/imgs/D51.png"",""materials/imgs/D64.png""]","false","validation","","",""
"","","","","","html-keyboard-response","276","314562","0.0-17.0-0.2-0.14","dbw5xt8qoo","","dbw5xt8qoo","""2024-11-12T18:37:57.096Z""","null","+","null","","","","","","",""
"","","","","","image-keyboard-response","277","316321","0.0-17.0-0.2-1.14","dbw5xt8qoo","","dbw5xt8qoo","""2024-11-12T18:37:57.096Z""","1757","materials/imgs/D22.png","arrowright","","[""materials/imgs/D82.png"",""materials/imgs/D103.png""]","false","random","","",""
"","","","","","html-keyboard-response","278","316826","0.0-17.0-0.2-0.15","dbw5xt8qoo","","dbw5xt8qoo","""2024-11-12T18:37:57.096Z""","null","+","null","","","","","","",""
"","","","","","image-keyboard-response","279","322002","0.0-17.0-0.2-1.15","dbw5xt8qoo","","dbw5xt8qoo","""2024-11-12T18:37:57.096Z""","5175","materials/imgs/D46.png","arrowleft","","[""materials/imgs/D56.png"",""materials/imgs/D14.png""]","false","random","","",""
"","","","","","html-keyboard-response","280","322504","0.0-17.0-0.2-0.16","dbw5xt8qoo","","dbw5xt8qoo","""2024-11-12T18:37:57.096Z""","null","+","null","","","","","","",""
"","","","","","image-keyboard-response","281","330988","0.0-17.0-0.2-1.16","dbw5xt8qoo","","dbw5xt8qoo","""2024-11-12T18:37:57.096Z""","8482","materials/imgs/D87.png","arrowright","","[""materials/imgs/D96.png"",""materials/imgs/D102.png""]","false","random","","",""
"","","","","","html-keyboard-response","282","331490","0.0-17.0-0.2-0.17","dbw5xt8qoo","","dbw5xt8qoo","""2024-11-12T18:37:57.096Z""","null","+","null","","","","","","",""
"","","","","","image-keyboard-response","283","335284","0.0-17.0-0.2-1.17","dbw5xt8qoo","","dbw5xt8qoo","""2024-11-12T18:37:57.096Z""","3787","materials/imgs/D64.png","arrowleft","","[""materials/imgs/D1.png"",""materials/imgs/D52.png""]","false","random","","",""
"","","","","","html-keyboard-response","284","335791","0.0-17.0-0.2-0.18","dbw5xt8qoo","","dbw5xt8qoo","""2024-11-12T18:37:57.096Z""","null","+","null","","","","","","",""
"","","","","","image-keyboard-response","285","341982","0.0-17.0-0.2-1.18","dbw5xt8qoo","","dbw5xt8qoo","""2024-11-12T18:37:57.096Z""","6185","materials/imgs/D16.png","arrowright","","[""materials/imgs/D4.png"",""materials/imgs/D78.png""]","false","random","","",""
"","","","","","html-keyboard-response","286","342485","0.0-17.0-0.2-0.19","dbw5xt8qoo","","dbw5xt8qoo","""2024-11-12T18:37:57.096Z""","null","+","null","","","","","","",""
"","","","","","image-keyboard-response","287","345743","0.0-17.0-0.2-1.19","dbw5xt8qoo","","dbw5xt8qoo","""2024-11-12T18:37:57.096Z""","3254","materials/imgs/D74.png","arrowright","","[""materials/imgs/D104.png"",""materials/imgs/D4.png""]","false","random","","",""
"","","","","","html-keyboard-response","288","346245","0.0-17.0-0.2-0.20","dbw5xt8qoo","","dbw5xt8qoo","""2024-11-12T18:37:57.096Z""","null","+","null","","","","","","",""
"","","","","","image-keyboard-response","289","347695","0.0-17.0-0.2-1.20","dbw5xt8qoo","","dbw5xt8qoo","""2024-11-12T18:37:57.096Z""","1448","materials/imgs/D36.png","arrowleft","","[""materials/imgs/D37.png"",""materials/imgs/D64.png""]","false","random","","",""
"","","","","","html-keyboard-response","290","348196","0.0-17.0-1.2-0.2","dbw5xt8qoo","","dbw5xt8qoo","""2024-11-12T18:37:57.096Z""","null","+","null","","","","","","",""
"","","","","","image-keyboard-response","291","350560","0.0-17.0-1.2-1.2","dbw5xt8qoo","","dbw5xt8qoo","""2024-11-12T18:37:57.096Z""","2362","materials/imgs/D46.png","arrowleft","","[""materials/imgs/D46.png"",""materials/imgs/D26.png""]","","check","materials/imgs/D46.png","0","true"
"","","","","","html-keyboard-response","292","351065","0.0-17.0-2.2-0.4","dbw5xt8qoo","","dbw5xt8qoo","""2024-11-12T18:37:57.096Z""","null","+","null","","","","","","",""
"","","","","","image-keyboard-response","293","352737","0.0-17.0-2.2-1.4","dbw5xt8qoo","","dbw5xt8qoo","""2024-11-12T18:37:57.096Z""","1669","materials/imgs/D65.png","arrowleft","","[""materials/imgs/D4.png"",""materials/imgs/D16.png""]","false","validation","","",""
"","","","","","html-keyboard-response","294","353241","0.0-17.0-2.2-0.5","dbw5xt8qoo","","dbw5xt8qoo","""2024-11-12T18:37:57.096Z""","null","+","null","","","","","","",""
"","","","","","image-keyboard-response","295","358606","0.0-17.0-2.2-1.5","dbw5xt8qoo","","dbw5xt8qoo","""2024-11-12T18:37:57.096Z""","5361","materials/imgs/D84.png","arrowleft","","[""materials/imgs/D106.png"",""materials/imgs/D37.png""]","false","validation","","",""
"","","","","","html-keyboard-response","296","359112","0.0-17.0-0.3-0.21","dbw5xt8qoo","","dbw5xt8qoo","""2024-11-12T18:37:57.096Z""","null","+","null","","","","","","",""
"","","","","","image-keyboard-response","297","362628","0.0-17.0-0.3-1.21","dbw5xt8qoo","","dbw5xt8qoo","""2024-11-12T18:37:57.096Z""","3515","materials/imgs/D1.png","arrowright","","[""materials/imgs/D11.png"",""materials/imgs/D29.png""]","false","random","","",""
"","","","","","html-keyboard-response","298","363131","0.0-17.0-0.3-0.22","dbw5xt8qoo","","dbw5xt8qoo","""2024-11-12T18:37:57.096Z""","null","+","null","","","","","","",""
"","","","","","image-keyboard-response","299","364584","0.0-17.0-0.3-1.22","dbw5xt8qoo","","dbw5xt8qoo","""2024-11-12T18:37:57.096Z""","1451","materials/imgs/D85.png","arrowright","","[""materials/imgs/D87.png"",""materials/imgs/D101.png""]","false","random","","",""
"","","","","","html-keyboard-response","300","365138","0.0-17.0-0.3-0.23","dbw5xt8qoo","","dbw5xt8qoo","""2024-11-12T18:37:57.096Z""","null","+","null","","","","","","",""
"","","","","","image-keyboard-response","301","367580","0.0-17.0-0.3-1.23","dbw5xt8qoo","","dbw5xt8qoo","""2024-11-12T18:37:57.096Z""","2440","materials/imgs/D52.png","arrowleft","","[""materials/imgs/D82.png"",""materials/imgs/D32.png""]","false","random","","",""
"","","","","","html-keyboard-response","302","368084","0.0-17.0-0.3-0.24","dbw5xt8qoo","","dbw5xt8qoo","""2024-11-12T18:37:57.096Z""","null","+","null","","","","","","",""
"","","","","","image-keyboard-response","303","370407","0.0-17.0-0.3-1.24","dbw5xt8qoo","","dbw5xt8qoo","""2024-11-12T18:37:57.096Z""","2321","materials/imgs/D53.png","arrowleft","","[""materials/imgs/D75.png"",""materials/imgs/D84.png""]","false","random","","",""
"","","","","","html-keyboard-response","304","370913","0.0-17.0-0.3-0.25","dbw5xt8qoo","","dbw5xt8qoo","""2024-11-12T18:37:57.096Z""","null","+","null","","","","","","",""
"","","","","","image-keyboard-response","305","374860","0.0-17.0-0.3-1.25","dbw5xt8qoo","","dbw5xt8qoo","""2024-11-12T18:37:57.096Z""","3940","materials/imgs/D20.png","arrowleft","","[""materials/imgs/D106.png"",""materials/imgs/D64.png""]","false","random","","",""
"","","","","","html-keyboard-response","306","375361","0.0-17.0-0.3-0.26","dbw5xt8qoo","","dbw5xt8qoo","""2024-11-12T18:37:57.096Z""","null","+","null","","","","","","",""
"","","","","","image-keyboard-response","307","378803","0.0-17.0-0.3-1.26","dbw5xt8qoo","","dbw5xt8qoo","""2024-11-12T18:37:57.096Z""","3440","materials/imgs/D11.png","arrowleft","","[""materials/imgs/D53.png"",""materials/imgs/D55.png""]","false","random","","",""
"","","","","","html-keyboard-response","308","379307","0.0-17.0-0.3-0.27","dbw5xt8qoo","","dbw5xt8qoo","""2024-11-12T18:37:57.096Z""","null","+","null","","","","","","",""
"","","","","","image-keyboard-response","309","381643","0.0-17.0-0.3-1.27","dbw5xt8qoo","","dbw5xt8qoo","""2024-11-12T18:37:57.096Z""","2333","materials/imgs/D66.png","arrowright","","[""materials/imgs/D57.png"",""materials/imgs/D64.png""]","false","random","","",""
"","","","","","html-keyboard-response","310","382144","0.0-17.0-1.3-0.3","dbw5xt8qoo","","dbw5xt8qoo","""2024-11-12T18:37:57.096Z""","null","+","null","","","","","","",""
"","","","","","image-keyboard-response","311","384123","0.0-17.0-1.3-1.3","dbw5xt8qoo","","dbw5xt8qoo","""2024-11-12T18:37:57.096Z""","1977","materials/imgs/D106.png","arrowright","","[""materials/imgs/D106.png"",""materials/imgs/D101.png""]","","check","materials/imgs/D101.png","1","false"
"","","","","","html-keyboard-response","312","387453","0.0-17.0-1.3-2.3-0.3","dbw5xt8qoo","","dbw5xt8qoo","""2024-11-12T18:37:57.096Z""","3329","<p><strong>Incorrect!</strong></p>That was an attention check. Please pay attention while completing this task.<p>Press 'y' to continue.</p>","y","","","","","","",""
"","","","","","html-keyboard-response","313","387958","0.0-17.0-2.3-0.6","dbw5xt8qoo","","dbw5xt8qoo","""2024-11-12T18:37:57.096Z""","null","+","null","","","","","","",""
"","","","","","image-keyboard-response","314","388854","0.0-17.0-2.3-1.6","dbw5xt8qoo","","dbw5xt8qoo","""2024-11-12T18:37:57.096Z""","895","materials/imgs/D106.png","arrowleft","","[""materials/imgs/D57.png"",""materials/imgs/D18.png""]","false","validation","","",""
"","","","","","html-keyboard-response","315","389354","0.0-17.0-2.3-0.7","dbw5xt8qoo","","dbw5xt8qoo","""2024-11-12T18:37:57.096Z""","null","+","null","","","","","","",""
"","","","","","image-keyboard-response","316","390103","0.0-17.0-2.3-1.7","dbw5xt8qoo","","dbw5xt8qoo","""2024-11-12T18:37:57.096Z""","749","materials/imgs/D96.png","arrowleft","","[""materials/imgs/D46.png"",""materials/imgs/D18.png""]","false","validation","","",""
"","","","","","html-keyboard-response","317","390605","0.0-17.0-0.4-0.28","dbw5xt8qoo","","dbw5xt8qoo","""2024-11-12T18:37:57.096Z""","null","+","null","","","","","","",""
"","","","","","image-keyboard-response","318","391342","0.0-17.0-0.4-1.28","dbw5xt8qoo","","dbw5xt8qoo","""2024-11-12T18:37:57.096Z""","732","materials/imgs/D80.png","arrowleft","","[""materials/imgs/D17.png"",""materials/imgs/D106.png""]","false","random","","",""
"","","","","","html-keyboard-response","319","391846","0.0-17.0-0.4-0.29","dbw5xt8qoo","","dbw5xt8qoo","""2024-11-12T18:37:57.096Z""","null","+","null","","","","","","",""
"","","","","","image-keyboard-response","320","392688","0.0-17.0-0.4-1.29","dbw5xt8qoo","","dbw5xt8qoo","""2024-11-12T18:37:57.096Z""","842","materials/imgs/D65.png","arrowleft","","[""materials/imgs/D17.png"",""materials/imgs/D53.png""]","false","random","","",""
"","","","","","html-keyboard-response","321","393190","0.0-17.0-0.4-0.30","dbw5xt8qoo","","dbw5xt8qoo","""2024-11-12T18:37:57.096Z""","null","+","null","","","","","","",""
"","","","","","image-keyboard-response","322","393880","0.0-17.0-0.4-1.30","dbw5xt8qoo","","dbw5xt8qoo","""2024-11-12T18:37:57.096Z""","685","materials/imgs/D21.png","arrowright","","[""materials/imgs/D92.png"",""materials/imgs/D82.png""]","false","random","","",""
"","","","","","html-keyboard-response","323","394385","0.0-17.0-0.4-0.31","dbw5xt8qoo","","dbw5xt8qoo","""2024-11-12T18:37:57.096Z""","null","+","null","","","","","","",""
"","","","","","image-keyboard-response","324","395197","0.0-17.0-0.4-1.31","dbw5xt8qoo","","dbw5xt8qoo","""2024-11-12T18:37:57.096Z""","810","materials/imgs/D16.png","arrowright","","[""materials/imgs/D106.png"",""materials/imgs/D77.png""]","false","random","","",""
"","","","","","html-keyboard-response","325","395701","0.0-17.0-0.4-0.32","dbw5xt8qoo","","dbw5xt8qoo","""2024-11-12T18:37:57.096Z""","null","+","null","","","","","","",""
"","","","","","image-keyboard-response","326","396508","0.0-17.0-0.4-1.32","dbw5xt8qoo","","dbw5xt8qoo","""2024-11-12T18:37:57.096Z""","803","materials/imgs/D16.png","arrowleft","","[""materials/imgs/D1.png"",""materials/imgs/D94.png""]","false","random","","",""
"","","","","","html-keyboard-response","327","397013","0.0-17.0-0.4-0.33","dbw5xt8qoo","","dbw5xt8qoo","""2024-11-12T18:37:57.096Z""","null","+","null","","","","","","",""
"","","","","","image-keyboard-response","328","397916","0.0-17.0-0.4-1.33","dbw5xt8qoo","","dbw5xt8qoo","""2024-11-12T18:37:57.096Z""","898","materials/imgs/D35.png","arrowright","","[""materials/imgs/D66.png"",""materials/imgs/D82.png""]","false","random","","",""
"","","","","","html-keyboard-response","329","398420","0.0-17.0-0.4-0.34","dbw5xt8qoo","","dbw5xt8qoo","""2024-11-12T18:37:57.096Z""","null","+","null","","","","","","",""
"","","","","","image-keyboard-response","330","401360","0.0-17.0-0.4-1.34","dbw5xt8qoo","","dbw5xt8qoo","""2024-11-12T18:37:57.096Z""","2939","materials/imgs/D4.png","arrowleft","","[""materials/imgs/D74.png"",""materials/imgs/D95.png""]","false","random","","",""
"","","","","","html-keyboard-response","331","401866","0.0-17.0-1.4-0.4","dbw5xt8qoo","","dbw5xt8qoo","""2024-11-12T18:37:57.096Z""","null","+","null","","","","","","",""
"","","","","","image-keyboard-response","332","402797","0.0-17.0-1.4-1.4","dbw5xt8qoo","","dbw5xt8qoo","""2024-11-12T18:37:57.096Z""","929","materials/imgs/D46.png","arrowleft","","[""materials/imgs/D46.png"",""materials/imgs/D26.png""]","","check","materials/imgs/D46.png","0","true"
"","","","","","html-keyboard-response","333","403300","0.0-17.0-2.4-0.8","dbw5xt8qoo","","dbw5xt8qoo","""2024-11-12T18:37:57.096Z""","null","+","null","","","","","","",""
"","","","","","image-keyboard-response","334","404380","0.0-17.0-2.4-1.8","dbw5xt8qoo","","dbw5xt8qoo","""2024-11-12T18:37:57.096Z""","1078","materials/imgs/D11.png","arrowleft","","[""materials/imgs/D83.png"",""materials/imgs/D48.png""]","false","validation","","",""
"","","","","","html-keyboard-response","335","404885","0.0-17.0-2.4-0.9","dbw5xt8qoo","","dbw5xt8qoo","""2024-11-12T18:37:57.096Z""","null","+","null","","","","","","",""
"","","","","","image-keyboard-response","336","407255","0.0-17.0-2.4-1.9","dbw5xt8qoo","","dbw5xt8qoo","""2024-11-12T18:37:57.096Z""","2369","materials/imgs/D48.png","arrowright","","[""materials/imgs/D4.png"",""materials/imgs/D37.png""]","false","validation","","",""
"","","","","","html-button-response","337","410024","0.0-18.0","dbw5xt8qoo","","dbw5xt8qoo","""2024-11-12T18:37:57.096Z""","2768","You have completed 75% of the trials. Please click 'Continue' when you are ready proceed.","0","","","","","","",""
"","","","","","html-keyboard-response","338","410530","0.0-19.0-0.0-0.0","dbw5xt8qoo","","dbw5xt8qoo","""2024-11-12T18:37:57.096Z""","null","+","null","","","","","","",""
"","","","","","image-keyboard-response","339","411889","0.0-19.0-0.0-1.0","dbw5xt8qoo","","dbw5xt8qoo","""2024-11-12T18:37:57.096Z""","1355","materials/imgs/D79.png","arrowleft","","[""materials/imgs/D68.png"",""materials/imgs/D80.png""]","false","random","","",""
"","","","","","html-keyboard-response","340","412390","0.0-19.0-0.0-0.1","dbw5xt8qoo","","dbw5xt8qoo","""2024-11-12T18:37:57.096Z""","null","+","null","","","","","","",""
"","","","","","image-keyboard-response","341","413422","0.0-19.0-0.0-1.1","dbw5xt8qoo","","dbw5xt8qoo","""2024-11-12T18:37:57.096Z""","1027","materials/imgs/D105.png","arrowleft","","[""materials/imgs/D32.png"",""materials/imgs/D92.png""]","false","random","","",""
"","","","","","html-keyboard-response","342","413928","0.0-19.0-0.0-0.2","dbw5xt8qoo","","dbw5xt8qoo","""2024-11-12T18:37:57.096Z""","null","+","null","","","","","","",""
"","","","","","image-keyboard-response","343","414823","0.0-19.0-0.0-1.2","dbw5xt8qoo","","dbw5xt8qoo","""2024-11-12T18:37:57.096Z""","891","materials/imgs/D47.png","arrowleft","","[""materials/imgs/D66.png"",""materials/imgs/D56.png""]","false","random","","",""
"","","","","","html-keyboard-response","344","415328","0.0-19.0-0.0-0.3","dbw5xt8qoo","","dbw5xt8qoo","""2024-11-12T18:37:57.096Z""","null","+","null","","","","","","",""
"","","","","","image-keyboard-response","345","416753","0.0-19.0-0.0-1.3","dbw5xt8qoo","","dbw5xt8qoo","""2024-11-12T18:37:57.096Z""","1420","materials/imgs/D102.png","arrowleft","","[""materials/imgs/D81.png"",""materials/imgs/D79.png""]","false","random","","",""
"","","","","","html-keyboard-response","346","417261","0.0-19.0-0.0-0.4","dbw5xt8qoo","","dbw5xt8qoo","""2024-11-12T18:37:57.096Z""","null","+","null","","","","","","",""
"","","","","","image-keyboard-response","347","418454","0.0-19.0-0.0-1.4","dbw5xt8qoo","","dbw5xt8qoo","""2024-11-12T18:37:57.096Z""","1187","materials/imgs/D9.png","arrowright","","[""materials/imgs/D26.png"",""materials/imgs/D80.png""]","false","random","","",""
"","","","","","html-keyboard-response","348","418956","0.0-19.0-0.0-0.5","dbw5xt8qoo","","dbw5xt8qoo","""2024-11-12T18:37:57.096Z""","null","+","null","","","","","","",""
"","","","","","image-keyboard-response","349","420465","0.0-19.0-0.0-1.5","dbw5xt8qoo","","dbw5xt8qoo","""2024-11-12T18:37:57.096Z""","1507","materials/imgs/D96.png","arrowright","","[""materials/imgs/D53.png"",""materials/imgs/D20.png""]","false","random","","",""
"","","","","","html-keyboard-response","350","420971","0.0-19.0-0.0-0.6","dbw5xt8qoo","","dbw5xt8qoo","""2024-11-12T18:37:57.096Z""","null","+","null","","","","","","",""
"","","","","","image-keyboard-response","351","422844","0.0-19.0-0.0-1.6","dbw5xt8qoo","","dbw5xt8qoo","""2024-11-12T18:37:57.096Z""","1799","materials/imgs/D21.png","arrowright","","[""materials/imgs/D51.png"",""materials/imgs/D68.png""]","false","random","","",""
"","","","","","html-keyboard-response","352","423350","0.0-19.0-1.0-0.0","dbw5xt8qoo","","dbw5xt8qoo","""2024-11-12T18:37:57.096Z""","null","+","null","","","","","","",""
"","","","","","image-keyboard-response","353","424959","0.0-19.0-1.0-1.0","dbw5xt8qoo","","dbw5xt8qoo","""2024-11-12T18:37:57.096Z""","1609","materials/imgs/D18.png","arrowright","","[""materials/imgs/D8.png"",""materials/imgs/D18.png""]","","check","materials/imgs/D18.png","1","true"
"","","","","","html-keyboard-response","354","425461","0.0-19.0-2.0-0.0","dbw5xt8qoo","","dbw5xt8qoo","""2024-11-12T18:37:57.096Z""","null","+","null","","","","","","",""
"","","","","","image-keyboard-response","355","426718","0.0-19.0-2.0-1.0","dbw5xt8qoo","","dbw5xt8qoo","""2024-11-12T18:37:57.096Z""","1257","materials/imgs/D37.png","arrowleft","","[""materials/imgs/D84.png"",""materials/imgs/D111.png""]","false","validation","","",""
"","","","","","html-keyboard-response","356","427220","0.0-19.0-2.0-0.1","dbw5xt8qoo","","dbw5xt8qoo","""2024-11-12T18:37:57.096Z""","null","+","null","","","","","","",""
"","","","","","image-keyboard-response","357","428876","0.0-19.0-2.0-1.1","dbw5xt8qoo","","dbw5xt8qoo","""2024-11-12T18:37:57.096Z""","1655","materials/imgs/D102.png","arrowright","","[""materials/imgs/D32.png"",""materials/imgs/D111.png""]","false","validation","","",""
"","","","","","html-keyboard-response","358","429378","0.0-19.0-0.1-0.7","dbw5xt8qoo","","dbw5xt8qoo","""2024-11-12T18:37:57.096Z""","null","+","null","","","","","","",""
"","","","","","image-keyboard-response","359","432520","0.0-19.0-0.1-1.7","dbw5xt8qoo","","dbw5xt8qoo","""2024-11-12T18:37:57.096Z""","3142","materials/imgs/D87.png","arrowright","","[""materials/imgs/D49.png"",""materials/imgs/D35.png""]","false","random","","",""
"","","","","","html-keyboard-response","360","433022","0.0-19.0-0.1-0.8","dbw5xt8qoo","","dbw5xt8qoo","""2024-11-12T18:37:57.096Z""","null","+","null","","","","","","",""
"","","","","","image-keyboard-response","361","435174","0.0-19.0-0.1-1.8","dbw5xt8qoo","","dbw5xt8qoo","""2024-11-12T18:37:57.096Z""","2147","materials/imgs/D22.png","arrowright","","[""materials/imgs/D94.png"",""materials/imgs/D14.png""]","false","random","","",""
"","","","","","html-keyboard-response","362","435674","0.0-19.0-0.1-0.9","dbw5xt8qoo","","dbw5xt8qoo","""2024-11-12T18:37:57.096Z""","null","+","null","","","","","","",""
"","","","","","image-keyboard-response","363","437564","0.0-19.0-0.1-1.9","dbw5xt8qoo","","dbw5xt8qoo","""2024-11-12T18:37:57.096Z""","1889","materials/imgs/D52.png","arrowleft","","[""materials/imgs/D105.png"",""materials/imgs/D47.png""]","false","random","","",""
"","","","","","html-keyboard-response","364","438069","0.0-19.0-0.1-0.10","dbw5xt8qoo","","dbw5xt8qoo","""2024-11-12T18:37:57.096Z""","null","+","null","","","","","","",""
"","","","","","image-keyboard-response","365","439479","0.0-19.0-0.1-1.10","dbw5xt8qoo","","dbw5xt8qoo","""2024-11-12T18:37:57.096Z""","1407","materials/imgs/D19.png","arrowright","","[""materials/imgs/D65.png"",""materials/imgs/D35.png""]","false","random","","",""
"","","","","","html-keyboard-response","366","440028","0.0-19.0-0.1-0.11","dbw5xt8qoo","","dbw5xt8qoo","""2024-11-12T18:37:57.096Z""","null","+","null","","","","","","",""
"","","","","","image-keyboard-response","367","441730","0.0-19.0-0.1-1.11","dbw5xt8qoo","","dbw5xt8qoo","""2024-11-12T18:37:57.096Z""","1700","materials/imgs/D22.png","arrowright","","[""materials/imgs/D52.png"",""materials/imgs/D17.png""]","false","random","","",""
"","","","","","html-keyboard-response","368","442232","0.0-19.0-0.1-0.12","dbw5xt8qoo","","dbw5xt8qoo","""2024-11-12T18:37:57.096Z""","null","+","null","","","","","","",""
"","","","","","image-keyboard-response","369","444241","0.0-19.0-0.1-1.12","dbw5xt8qoo","","dbw5xt8qoo","""2024-11-12T18:37:57.096Z""","2008","materials/imgs/D4.png","arrowleft","","[""materials/imgs/D92.png"",""materials/imgs/D83.png""]","false","random","","",""
"","","","","","html-keyboard-response","370","444746","0.0-19.0-0.1-0.13","dbw5xt8qoo","","dbw5xt8qoo","""2024-11-12T18:37:57.096Z""","null","+","null","","","","","","",""
"","","","","","image-keyboard-response","371","446689","0.0-19.0-0.1-1.13","dbw5xt8qoo","","dbw5xt8qoo","""2024-11-12T18:37:57.096Z""","1942","materials/imgs/D81.png","arrowright","","[""materials/imgs/D48.png"",""materials/imgs/D92.png""]","false","random","","",""
"","","","","","html-keyboard-response","372","447193","0.0-19.0-1.1-0.1","dbw5xt8qoo","","dbw5xt8qoo","""2024-11-12T18:37:57.096Z""","null","+","null","","","","","","",""
"","","","","","image-keyboard-response","373","448194","0.0-19.0-1.1-1.1","dbw5xt8qoo","","dbw5xt8qoo","""2024-11-12T18:37:57.096Z""","998","materials/imgs/D101.png","arrowright","","[""materials/imgs/D106.png"",""materials/imgs/D101.png""]","","check","materials/imgs/D101.png","1","true"
"","","","","","html-keyboard-response","374","448694","0.0-19.0-2.1-0.2","dbw5xt8qoo","","dbw5xt8qoo","""2024-11-12T18:37:57.096Z""","null","+","null","","","","","","",""
"","","","","","image-keyboard-response","375","449687","0.0-19.0-2.1-1.2","dbw5xt8qoo","","dbw5xt8qoo","""2024-11-12T18:37:57.096Z""","990","materials/imgs/D57.png","arrowright","","[""materials/imgs/D111.png"",""materials/imgs/D4.png""]","false","validation","","",""
"","","","","","html-keyboard-response","376","450191","0.0-19.0-2.1-0.3","dbw5xt8qoo","","dbw5xt8qoo","""2024-11-12T18:37:57.096Z""","null","+","null","","","","","","",""
"","","","","","image-keyboard-response","377","451735","0.0-19.0-2.1-1.3","dbw5xt8qoo","","dbw5xt8qoo","""2024-11-12T18:37:57.096Z""","1543","materials/imgs/D64.png","arrowleft","","[""materials/imgs/D6.png"",""materials/imgs/D81.png""]","false","validation","","",""
"","","","","","html-keyboard-response","378","452241","0.0-19.0-0.2-0.14","dbw5xt8qoo","","dbw5xt8qoo","""2024-11-12T18:37:57.096Z""","null","+","null","","","","","","",""
"","","","","","image-keyboard-response","379","454595","0.0-19.0-0.2-1.14","dbw5xt8qoo","","dbw5xt8qoo","""2024-11-12T18:37:57.096Z""","2354","materials/imgs/D65.png","arrowright","","[""materials/imgs/D96.png"",""materials/imgs/D17.png""]","false","random","","",""
"","","","","","html-keyboard-response","380","455101","0.0-19.0-0.2-0.15","dbw5xt8qoo","","dbw5xt8qoo","""2024-11-12T18:37:57.096Z""","null","+","null","","","","","","",""
"","","","","","image-keyboard-response","381","456717","0.0-19.0-0.2-1.15","dbw5xt8qoo","","dbw5xt8qoo","""2024-11-12T18:37:57.096Z""","1615","materials/imgs/D48.png","arrowleft","","[""materials/imgs/D55.png"",""materials/imgs/D75.png""]","false","random","","",""
"","","","","","html-keyboard-response","382","457262","0.0-19.0-0.2-0.16","dbw5xt8qoo","","dbw5xt8qoo","""2024-11-12T18:37:57.096Z""","null","+","null","","","","","","",""
"","","","","","image-keyboard-response","383","458071","0.0-19.0-0.2-1.16","dbw5xt8qoo","","dbw5xt8qoo","""2024-11-12T18:37:57.096Z""","808","materials/imgs/D47.png","arrowright","","[""materials/imgs/D19.png"",""materials/imgs/D34.png""]","false","random","","",""
"","","","","","html-keyboard-response","384","458572","0.0-19.0-0.2-0.17","dbw5xt8qoo","","dbw5xt8qoo","""2024-11-12T18:37:57.096Z""","null","+","null","","","","","","",""
"","","","","","image-keyboard-response","385","460721","0.0-19.0-0.2-1.17","dbw5xt8qoo","","dbw5xt8qoo","""2024-11-12T18:37:57.096Z""","2147","materials/imgs/D51.png","arrowright","","[""materials/imgs/D9.png"",""materials/imgs/D18.png""]","false","random","","",""
"","","","","","html-keyboard-response","386","461276","0.0-19.0-0.2-0.18","dbw5xt8qoo","","dbw5xt8qoo","""2024-11-12T18:37:57.096Z""","null","+","null","","","","","","",""
"","","","","","image-keyboard-response","387","462645","0.0-19.0-0.2-1.18","dbw5xt8qoo","","dbw5xt8qoo","""2024-11-12T18:37:57.096Z""","1366","materials/imgs/D105.png","arrowleft","","[""materials/imgs/D79.png"",""materials/imgs/D18.png""]","false","random","","",""
"","","","","","html-keyboard-response","388","463147","0.0-19.0-0.2-0.19","dbw5xt8qoo","","dbw5xt8qoo","""2024-11-12T18:37:57.096Z""","null","+","null","","","","","","",""
"","","","","","image-keyboard-response","389","466310","0.0-19.0-0.2-1.19","dbw5xt8qoo","","dbw5xt8qoo","""2024-11-12T18:37:57.096Z""","3158","materials/imgs/D104.png","arrowleft","","[""materials/imgs/D6.png"",""materials/imgs/D25.png""]","false","random","","",""
"","","","","","html-keyboard-response","390","466816","0.0-19.0-0.2-0.20","dbw5xt8qoo","","dbw5xt8qoo","""2024-11-12T18:37:57.096Z""","null","+","null","","","","","","",""
"","","","","","image-keyboard-response","391","468389","0.0-19.0-0.2-1.20","dbw5xt8qoo","","dbw5xt8qoo","""2024-11-12T18:37:57.096Z""","1571","materials/imgs/D74.png","arrowright","","[""materials/imgs/D52.png"",""materials/imgs/D106.png""]","false","random","","",""
"","","","","","html-keyboard-response","392","468893","0.0-19.0-1.2-0.2","dbw5xt8qoo","","dbw5xt8qoo","""2024-11-12T18:37:57.096Z""","null","+","null","","","","","","",""
"","","","","","image-keyboard-response","393","470519","0.0-19.0-1.2-1.2","dbw5xt8qoo","","dbw5xt8qoo","""2024-11-12T18:37:57.096Z""","1621","materials/imgs/D76.png","arrowleft","","[""materials/imgs/D76.png"",""materials/imgs/D78.png""]","","check","materials/imgs/D76.png","0","true"
"","","","","","html-keyboard-response","394","471026","0.0-19.0-2.2-0.4","dbw5xt8qoo","","dbw5xt8qoo","""2024-11-12T18:37:57.096Z""","null","+","null","","","","","","",""
"","","","","","image-keyboard-response","395","492043","0.0-19.0-2.2-1.4","dbw5xt8qoo","","dbw5xt8qoo","""2024-11-12T18:37:57.096Z""","21013","materials/imgs/D35.png","arrowright","","[""materials/imgs/D83.png"",""materials/imgs/D24.png""]","false","validation","","",""
"","","","","","html-keyboard-response","396","492547","0.0-19.0-2.2-0.5","dbw5xt8qoo","","dbw5xt8qoo","""2024-11-12T18:37:57.096Z""","null","+","null","","","","","","",""
"","","","","","image-keyboard-response","397","494218","0.0-19.0-2.2-1.5","dbw5xt8qoo","","dbw5xt8qoo","""2024-11-12T18:37:57.096Z""","1670","materials/imgs/D49.png","arrowright","","[""materials/imgs/D8.png"",""materials/imgs/D101.png""]","false","validation","","",""
"","","","","","html-keyboard-response","398","494719","0.0-19.0-0.3-0.21","dbw5xt8qoo","","dbw5xt8qoo","""2024-11-12T18:37:57.096Z""","null","+","null","","","","","","",""
"","","","","","image-keyboard-response","399","497246","0.0-19.0-0.3-1.21","dbw5xt8qoo","","dbw5xt8qoo","""2024-11-12T18:37:57.096Z""","2521","materials/imgs/D103.png","arrowright","","[""materials/imgs/D8.png"",""materials/imgs/D16.png""]","false","random","","",""
"","","","","","html-keyboard-response","400","497749","0.0-19.0-0.3-0.22","dbw5xt8qoo","","dbw5xt8qoo","""2024-11-12T18:37:57.096Z""","null","+","null","","","","","","",""
"","","","","","image-keyboard-response","401","526685","0.0-19.0-0.3-1.22","dbw5xt8qoo","","dbw5xt8qoo","""2024-11-12T18:37:57.096Z""","28931","materials/imgs/D75.png","arrowright","","[""materials/imgs/D102.png"",""materials/imgs/D34.png""]","false","random","","",""
"","","","","","html-keyboard-response","402","527191","0.0-19.0-0.3-0.23","dbw5xt8qoo","","dbw5xt8qoo","""2024-11-12T18:37:57.096Z""","null","+","null","","","","","","",""
"","","","","","image-keyboard-response","403","529810","0.0-19.0-0.3-1.23","dbw5xt8qoo","","dbw5xt8qoo","""2024-11-12T18:37:57.096Z""","2616","materials/imgs/D20.png","arrowright","","[""materials/imgs/D14.png"",""materials/imgs/D55.png""]","false","random","","",""
"","","","","","html-keyboard-response","404","530317","0.0-19.0-0.3-0.24","dbw5xt8qoo","","dbw5xt8qoo","""2024-11-12T18:37:57.096Z""","null","+","null","","","","","","",""
"","","","","","image-keyboard-response","405","532022","0.0-19.0-0.3-1.24","dbw5xt8qoo","","dbw5xt8qoo","""2024-11-12T18:37:57.096Z""","1702","materials/imgs/D48.png","arrowright","","[""materials/imgs/D66.png"",""materials/imgs/D46.png""]","false","random","","",""
"","","","","","html-keyboard-response","406","532524","0.0-19.0-0.3-0.25","dbw5xt8qoo","","dbw5xt8qoo","""2024-11-12T18:37:57.096Z""","null","+","null","","","","","","",""
"","","","","","image-keyboard-response","407","538512","0.0-19.0-0.3-1.25","dbw5xt8qoo","","dbw5xt8qoo","""2024-11-12T18:37:57.096Z""","5986","materials/imgs/D24.png","arrowright","","[""materials/imgs/D103.png"",""materials/imgs/D81.png""]","false","random","","",""
"","","","","","html-keyboard-response","408","539016","0.0-19.0-0.3-0.26","dbw5xt8qoo","","dbw5xt8qoo","""2024-11-12T18:37:57.096Z""","null","+","null","","","","","","",""
"","","","","","image-keyboard-response","409","541757","0.0-19.0-0.3-1.26","dbw5xt8qoo","","dbw5xt8qoo","""2024-11-12T18:37:57.096Z""","2736","materials/imgs/D37.png","arrowright","","[""materials/imgs/D76.png"",""materials/imgs/D96.png""]","false","random","","",""
"","","","","","html-keyboard-response","410","542263","0.0-19.0-0.3-0.27","dbw5xt8qoo","","dbw5xt8qoo","""2024-11-12T18:37:57.096Z""","null","+","null","","","","","","",""
"","","","","","image-keyboard-response","411","553173","0.0-19.0-0.3-1.27","dbw5xt8qoo","","dbw5xt8qoo","""2024-11-12T18:37:57.096Z""","10900","materials/imgs/D77.png","arrowright","","[""materials/imgs/D94.png"",""materials/imgs/D52.png""]","false","random","","",""
"","","","","","html-keyboard-response","412","553679","0.0-19.0-1.3-0.3","dbw5xt8qoo","","dbw5xt8qoo","""2024-11-12T18:37:57.096Z""","null","+","null","","","","","","",""
"","","","","","image-keyboard-response","413","555105","0.0-19.0-1.3-1.3","dbw5xt8qoo","","dbw5xt8qoo","""2024-11-12T18:37:57.096Z""","1424","materials/imgs/D18.png","arrowright","","[""materials/imgs/D8.png"",""materials/imgs/D18.png""]","","check","materials/imgs/D18.png","1","true"
"","","","","","html-keyboard-response","414","555607","0.0-19.0-2.3-0.6","dbw5xt8qoo","","dbw5xt8qoo","""2024-11-12T18:37:57.096Z""","null","+","null","","","","","","",""
"","","","","","image-keyboard-response","415","558610","0.0-19.0-2.3-1.6","dbw5xt8qoo","","dbw5xt8qoo","""2024-11-12T18:37:57.096Z""","2997","materials/imgs/D85.png","arrowleft","","[""materials/imgs/D6.png"",""materials/imgs/D111.png""]","false","validation","","",""
"","","","","","html-keyboard-response","416","559112","0.0-19.0-2.3-0.7","dbw5xt8qoo","","dbw5xt8qoo","""2024-11-12T18:37:57.096Z""","null","+","null","","","","","","",""
"","","","","","image-keyboard-response","417","564254","0.0-19.0-2.3-1.7","dbw5xt8qoo","","dbw5xt8qoo","""2024-11-12T18:37:57.096Z""","5141","materials/imgs/D101.png","arrowright","","[""materials/imgs/D76.png"",""materials/imgs/D47.png""]","false","validation","","",""
"","","","","","html-keyboard-response","418","564760","0.0-19.0-0.4-0.28","dbw5xt8qoo","","dbw5xt8qoo","""2024-11-12T18:37:57.096Z""","null","+","null","","","","","","",""
"","","","","","image-keyboard-response","419","568331","0.0-19.0-0.4-1.28","dbw5xt8qoo","","dbw5xt8qoo","""2024-11-12T18:37:57.096Z""","3567","materials/imgs/D17.png","arrowleft","","[""materials/imgs/D65.png"",""materials/imgs/D55.png""]","false","random","","",""
"","","","","","html-keyboard-response","420","568833","0.0-19.0-0.4-0.29","dbw5xt8qoo","","dbw5xt8qoo","""2024-11-12T18:37:57.096Z""","null","+","null","","","","","","",""
"","","","","","image-keyboard-response","421","572946","0.0-19.0-0.4-1.29","dbw5xt8qoo","","dbw5xt8qoo","""2024-11-12T18:37:57.096Z""","4111","materials/imgs/D14.png","arrowright","","[""materials/imgs/D64.png"",""materials/imgs/D79.png""]","false","random","","",""
"","","","","","html-keyboard-response","422","573448","0.0-19.0-0.4-0.30","dbw5xt8qoo","","dbw5xt8qoo","""2024-11-12T18:37:57.096Z""","null","+","null","","","","","","",""
"","","","","","image-keyboard-response","423","575287","0.0-19.0-0.4-1.30","dbw5xt8qoo","","dbw5xt8qoo","""2024-11-12T18:37:57.096Z""","1834","materials/imgs/D36.png","arrowleft","","[""materials/imgs/D55.png"",""materials/imgs/D83.png""]","false","random","","",""
"","","","","","html-keyboard-response","424","575792","0.0-19.0-0.4-0.31","dbw5xt8qoo","","dbw5xt8qoo","""2024-11-12T18:37:57.096Z""","null","+","null","","","","","","",""
"","","","","","image-keyboard-response","425","576872","0.0-19.0-0.4-1.31","dbw5xt8qoo","","dbw5xt8qoo","""2024-11-12T18:37:57.096Z""","1077","materials/imgs/D3.png","arrowleft","","[""materials/imgs/D66.png"",""materials/imgs/D48.png""]","false","random","","",""
"","","","","","html-keyboard-response","426","577375","0.0-19.0-0.4-0.32","dbw5xt8qoo","","dbw5xt8qoo","""2024-11-12T18:37:57.096Z""","null","+","null","","","","","","",""
"","","","","","image-keyboard-response","427","580671","0.0-19.0-0.4-1.32","dbw5xt8qoo","","dbw5xt8qoo","""2024-11-12T18:37:57.096Z""","3290","materials/imgs/D29.png","arrowleft","","[""materials/imgs/D11.png"",""materials/imgs/D77.png""]","false","random","","",""
"","","","","","html-keyboard-response","428","581176","0.0-19.0-0.4-0.33","dbw5xt8qoo","","dbw5xt8qoo","""2024-11-12T18:37:57.096Z""","null","+","null","","","","","","",""
"","","","","","image-keyboard-response","429","582666","0.0-19.0-0.4-1.33","dbw5xt8qoo","","dbw5xt8qoo","""2024-11-12T18:37:57.096Z""","1488","materials/imgs/D96.png","arrowright","","[""materials/imgs/D75.png"",""materials/imgs/D3.png""]","false","random","","",""
"","","","","","html-keyboard-response","430","583194","0.0-19.0-0.4-0.34","dbw5xt8qoo","","dbw5xt8qoo","""2024-11-12T18:37:57.096Z""","null","+","null","","","","","","",""
"","","","","","image-keyboard-response","431","590894","0.0-19.0-0.4-1.34","dbw5xt8qoo","","dbw5xt8qoo","""2024-11-12T18:37:57.096Z""","7698","materials/imgs/D8.png","arrowright","","[""materials/imgs/D19.png"",""materials/imgs/D11.png""]","false","random","","",""
"","","","","","html-keyboard-response","432","591395","0.0-19.0-1.4-0.4","dbw5xt8qoo","","dbw5xt8qoo","""2024-11-12T18:37:57.096Z""","null","+","null","","","","","","",""
"","","","","","image-keyboard-response","433","592441","0.0-19.0-1.4-1.4","dbw5xt8qoo","","dbw5xt8qoo","""2024-11-12T18:37:57.096Z""","1045","materials/imgs/D64.png","arrowleft","","[""materials/imgs/D64.png"",""materials/imgs/D53.png""]","","check","materials/imgs/D64.png","0","true"
"","","","","","html-keyboard-response","434","592945","0.0-19.0-2.4-0.8","dbw5xt8qoo","","dbw5xt8qoo","""2024-11-12T18:37:57.096Z""","null","+","null","","","","","","",""
"","","","","","image-keyboard-response","435","594467","0.0-19.0-2.4-1.8","dbw5xt8qoo","","dbw5xt8qoo","""2024-11-12T18:37:57.096Z""","1517","materials/imgs/D84.png","arrowleft","","[""materials/imgs/D106.png"",""materials/imgs/D37.png""]","false","validation","","",""
"","","","","","html-keyboard-response","436","594971","0.0-19.0-2.4-0.9","dbw5xt8qoo","","dbw5xt8qoo","""2024-11-12T18:37:57.096Z""","null","+","null","","","","","","",""
"","","","","","image-keyboard-response","437","634504","0.0-19.0-2.4-1.9","dbw5xt8qoo","","dbw5xt8qoo","""2024-11-12T18:37:57.096Z""","39528","materials/imgs/D81.png","arrowright","","[""materials/imgs/D105.png"",""materials/imgs/D24.png""]","false","validation","","",""
