"success","timeout","failed_images","failed_audio","failed_video","trial_type","trial_index","time_elapsed","internal_node_id","subject_id","sona_id","subjectID","dateInfo","rt","stimulus","response","question_order","choices","speedy","sampleAlg","selected_image","selected_index","correct"
"true","false","[]","[]","[]","preload","0","1158","0.0-0.0","dd3wpe2el1","","dd3wpe2el1","""2024-11-13T15:31:27.968Z""","","","","","","","","","",""
"true","","","","","fullscreen","1","2973","0.0-1.0","dd3wpe2el1","","dd3wpe2el1","""2024-11-13T15:31:27.968Z""","","","","","","","","","",""
"","","","","","html-keyboard-response","2","2985","0.0-2.0","dd3wpe2el1","","dd3wpe2el1","""2024-11-13T15:31:27.968Z""","null","","null","","","","","","",""
"","","","","","html-button-response","3","3812","0.0-3.0","dd3wpe2el1","","dd3wpe2el1","""2024-11-13T15:31:27.968Z""","825","<div style='text-align:center; font-size:20px; line-height:25px; width: 1200px;'>
                Welcome to our experiment! <br>
                <br>At the bottom of this screen, you will see a button that says 'Begin Experiment.
                <br>Please only click that button when you are ready to complete the 25 minute experiment in one sitting. <br>
                <br> Once you click that button, it will not be possible to restart the experiment. <br><br>","0","","","","","","",""
"true","","","","","fullscreen","4","6337","0.0-4.0","dd3wpe2el1","","dd3wpe2el1","""2024-11-13T15:31:27.968Z""","","","","","","","","","",""
"","","","","","survey-multi-select","5","10010","0.0-5.0","dd3wpe2el1","","dd3wpe2el1","""2024-11-13T15:31:27.968Z""","3671","","{""Consent"":[""<strong>I consent</strong>""]}","[0]","","","","","",""
"","","","","","html-button-response","6","13089","0.0-6.0","dd3wpe2el1","","dd3wpe2el1","""2024-11-13T15:31:27.968Z""","3077","Welcome! <p> This experiment involves two parts: demographic information, followed by the experimental task.<p> It will take about 25 minutes to complete both parts.","0","","","","","","",""
"","","","","","survey-text","7","25774","0.0-7.0","dd3wpe2el1","","dd3wpe2el1","""2024-11-13T15:31:27.968Z""","12682","","{""Age"":""19"",""Gender"":""female"",""Race/ethnicity"":""white""}","","","","","","",""
"","","","","","html-button-response","8","34834","0.0-8.0","dd3wpe2el1","","dd3wpe2el1","""2024-11-13T15:31:27.968Z""","9059","<div style='text-align: center;'>
      <p>In each trial of this task, you will see three texture images: one target item on top, and two choices beneath the target item.</p>
      <p><strong>Please select the item that is most like the target item.</strong></p>
      <p>To select the option on the <strong>LEFT</strong>, press the <strong>LEFT ARROW</strong> key. 
      To select the option on the <strong>RIGHT</strong>, press the <strong>RIGHT ARROW</strong> key.</p>
                  <!-- Target Image at the Top -->
      <div style='margin: 20px;'>
        <img src='materials/imgs/instruction_images/InstructionImg1D78.png' alt='Target Image' style='width:200px; height:auto;' />
        <p><em>Target Image</em></p>
      </div>

      <!-- Two Choice Images Below -->
      <div style='display: flex; justify-content: center;'>
        <div style='margin-right: 50px;'>
          <img src='materials/imgs/instruction_images/InstructionImg2D34.png' alt='Choice Image 1' style='width:150px; height:auto;' />
          <p><em><strong>LEFT ARROW</strong></em></p>
        </div>
        <div style='margin-left: 50px;'>
          <img src='materials/imgs/instruction_images/InstructionImg3D80.png' alt='Choice Image 2' style='width:150px; height:auto;' />
          <p><em><strong>RIGHT ARROW</strong></em></p>
        </div>
      </div>
    </div>

      <p>When you are ready to proceed, please click 'Continue' to begin practice.</p>","0","","","","","","",""
"","","","","","html-keyboard-response","9","37337","0.0-9.0","dd3wpe2el1","","dd3wpe2el1","""2024-11-13T15:31:27.968Z""","null","+","null","","","","","","",""
"","","","","","html-keyboard-response","10","37838","0.0-10.0-0.0-0.0","dd3wpe2el1","","dd3wpe2el1","""2024-11-13T15:31:27.968Z""","null","+","null","","","","","","",""
"","","","","","image-keyboard-response","11","39338","0.0-10.0-0.0-1.0","dd3wpe2el1","","dd3wpe2el1","""2024-11-13T15:31:27.968Z""","1466","materials/imgs/D1.png","arrowleft","","[""materials/imgs/D52.png"",""materials/imgs/D37.png""]","false","random","","",""
"","","","","","html-keyboard-response","12","39839","0.0-10.0-0.0-0.1","dd3wpe2el1","","dd3wpe2el1","""2024-11-13T15:31:27.968Z""","null","+","null","","","","","","",""
"","","","","","image-keyboard-response","13","40379","0.0-10.0-0.0-1.1","dd3wpe2el1","","dd3wpe2el1","""2024-11-13T15:31:27.968Z""","539","materials/imgs/D36.png","arrowright","","[""materials/imgs/D49.png"",""materials/imgs/D85.png""]","false","random","","",""
"","","","","","html-keyboard-response","14","40880","0.0-10.0-0.0-0.2","dd3wpe2el1","","dd3wpe2el1","""2024-11-13T15:31:27.968Z""","null","+","null","","","","","","",""
"","","","","","image-keyboard-response","15","41153","0.0-10.0-0.0-1.2","dd3wpe2el1","","dd3wpe2el1","""2024-11-13T15:31:27.968Z""","272","materials/imgs/D49.png","arrowleft","","[""materials/imgs/D57.png"",""materials/imgs/D78.png""]","true","random","","",""
"","","","","","html-keyboard-response","16","43963","0.0-10.0-0.0-2.2-0.2","dd3wpe2el1","","dd3wpe2el1","""2024-11-13T15:31:27.968Z""","2810","<p><strong>You're going too fast.</strong><p>Please slow down and assess each triplet.<p>Press 'y' to continue.</p></p>","y","","","","","","",""
"","","","","","html-keyboard-response","17","44464","0.0-10.0-0.0-0.3","dd3wpe2el1","","dd3wpe2el1","""2024-11-13T15:31:27.968Z""","null","+","null","","","","","","",""
"","","","","","image-keyboard-response","18","45777","0.0-10.0-0.0-1.3","dd3wpe2el1","","dd3wpe2el1","""2024-11-13T15:31:27.968Z""","1312","materials/imgs/D85.png","arrowleft","","[""materials/imgs/D4.png"",""materials/imgs/D74.png""]","false","random","","",""
"","","","","","html-keyboard-response","19","46278","0.0-10.0-0.0-0.4","dd3wpe2el1","","dd3wpe2el1","""2024-11-13T15:31:27.968Z""","null","+","null","","","","","","",""
"","","","","","image-keyboard-response","20","47718","0.0-10.0-0.0-1.4","dd3wpe2el1","","dd3wpe2el1","""2024-11-13T15:31:27.968Z""","1439","materials/imgs/D51.png","arrowright","","[""materials/imgs/D66.png"",""materials/imgs/D29.png""]","false","random","","",""
"","","","","","html-keyboard-response","21","48219","0.0-10.0-0.0-0.5","dd3wpe2el1","","dd3wpe2el1","""2024-11-13T15:31:27.968Z""","null","+","null","","","","","","",""
"","","","","","image-keyboard-response","22","50148","0.0-10.0-0.0-1.5","dd3wpe2el1","","dd3wpe2el1","""2024-11-13T15:31:27.968Z""","1928","materials/imgs/D103.png","arrowright","","[""materials/imgs/D106.png"",""materials/imgs/D55.png""]","false","random","","",""
"","","","","","html-keyboard-response","23","50648","0.0-10.0-0.0-0.6","dd3wpe2el1","","dd3wpe2el1","""2024-11-13T15:31:27.968Z""","null","+","null","","","","","","",""
"","","","","","image-keyboard-response","24","51860","0.0-10.0-0.0-1.6","dd3wpe2el1","","dd3wpe2el1","""2024-11-13T15:31:27.968Z""","1211","materials/imgs/D1.png","arrowright","","[""materials/imgs/D48.png"",""materials/imgs/D19.png""]","false","random","","",""
"","","","","","html-keyboard-response","25","52361","0.0-10.0-0.0-0.7","dd3wpe2el1","","dd3wpe2el1","""2024-11-13T15:31:27.968Z""","null","+","null","","","","","","",""
"","","","","","image-keyboard-response","26","53914","0.0-10.0-0.0-1.7","dd3wpe2el1","","dd3wpe2el1","""2024-11-13T15:31:27.968Z""","1553","materials/imgs/D104.png","arrowleft","","[""materials/imgs/D79.png"",""materials/imgs/D53.png""]","false","random","","",""
"","","","","","html-keyboard-response","27","54416","0.0-10.0-0.0-0.8","dd3wpe2el1","","dd3wpe2el1","""2024-11-13T15:31:27.968Z""","null","+","null","","","","","","",""
"","","","","","image-keyboard-response","28","55403","0.0-10.0-0.0-1.8","dd3wpe2el1","","dd3wpe2el1","""2024-11-13T15:31:27.968Z""","987","materials/imgs/D32.png","arrowleft","","[""materials/imgs/D29.png"",""materials/imgs/D1.png""]","false","random","","",""
"","","","","","html-keyboard-response","29","55904","0.0-10.0-0.0-0.9","dd3wpe2el1","","dd3wpe2el1","""2024-11-13T15:31:27.968Z""","null","+","null","","","","","","",""
"","","","","","image-keyboard-response","30","57381","0.0-10.0-0.0-1.9","dd3wpe2el1","","dd3wpe2el1","""2024-11-13T15:31:27.968Z""","1475","materials/imgs/D51.png","arrowright","","[""materials/imgs/D34.png"",""materials/imgs/D11.png""]","false","random","","",""
"","","","","","html-button-response","31","65411","0.0-11.0","dd3wpe2el1","","dd3wpe2el1","""2024-11-13T15:31:27.968Z""","8030","<p>Great job!</p>
      <p>You are now ready to begin the experiment.</p>
      <p>There will be around 200 trials. You will have opportunities to take breaks at three stages of the trials.</p>
      <p>When you are ready to begin please click 'Continue'.</p>","0","","","","","","",""
"","","","","","html-keyboard-response","32","67913","0.0-12.0","dd3wpe2el1","","dd3wpe2el1","""2024-11-13T15:31:27.968Z""","null","+","null","","","","","","",""
"","","","","","html-keyboard-response","33","68415","0.0-13.0-0.0-0.0","dd3wpe2el1","","dd3wpe2el1","""2024-11-13T15:31:27.968Z""","null","+","null","","","","","","",""
"","","","","","image-keyboard-response","34","69659","0.0-13.0-0.0-1.0","dd3wpe2el1","","dd3wpe2el1","""2024-11-13T15:31:27.968Z""","1243","materials/imgs/D65.png","arrowright","","[""materials/imgs/D37.png"",""materials/imgs/D1.png""]","false","random","","",""
"","","","","","html-keyboard-response","35","70161","0.0-13.0-0.0-0.1","dd3wpe2el1","","dd3wpe2el1","""2024-11-13T15:31:27.968Z""","null","+","null","","","","","","",""
"","","","","","image-keyboard-response","36","70851","0.0-13.0-0.0-1.1","dd3wpe2el1","","dd3wpe2el1","""2024-11-13T15:31:27.968Z""","689","materials/imgs/D111.png","arrowleft","","[""materials/imgs/D18.png"",""materials/imgs/D75.png""]","false","random","","",""
"","","","","","html-keyboard-response","37","71352","0.0-13.0-0.0-0.2","dd3wpe2el1","","dd3wpe2el1","""2024-11-13T15:31:27.968Z""","null","+","null","","","","","","",""
"","","","","","image-keyboard-response","38","72247","0.0-13.0-0.0-1.2","dd3wpe2el1","","dd3wpe2el1","""2024-11-13T15:31:27.968Z""","894","materials/imgs/D1.png","arrowright","","[""materials/imgs/D76.png"",""materials/imgs/D82.png""]","false","random","","",""
"","","","","","html-keyboard-response","39","72748","0.0-13.0-0.0-0.3","dd3wpe2el1","","dd3wpe2el1","""2024-11-13T15:31:27.968Z""","null","+","null","","","","","","",""
"","","","","","image-keyboard-response","40","73843","0.0-13.0-0.0-1.3","dd3wpe2el1","","dd3wpe2el1","""2024-11-13T15:31:27.968Z""","1094","materials/imgs/D104.png","arrowright","","[""materials/imgs/D56.png"",""materials/imgs/D68.png""]","false","random","","",""
"","","","","","html-keyboard-response","41","74344","0.0-13.0-0.0-0.4","dd3wpe2el1","","dd3wpe2el1","""2024-11-13T15:31:27.968Z""","null","+","null","","","","","","",""
"","","","","","image-keyboard-response","42","75551","0.0-13.0-0.0-1.4","dd3wpe2el1","","dd3wpe2el1","""2024-11-13T15:31:27.968Z""","1206","materials/imgs/D48.png","arrowleft","","[""materials/imgs/D104.png"",""materials/imgs/D11.png""]","false","random","","",""
"","","","","","html-keyboard-response","43","76051","0.0-13.0-0.0-0.5","dd3wpe2el1","","dd3wpe2el1","""2024-11-13T15:31:27.968Z""","null","+","null","","","","","","",""
"","","","","","image-keyboard-response","44","77132","0.0-13.0-0.0-1.5","dd3wpe2el1","","dd3wpe2el1","""2024-11-13T15:31:27.968Z""","1080","materials/imgs/D49.png","arrowright","","[""materials/imgs/D106.png"",""materials/imgs/D36.png""]","false","random","","",""
"","","","","","html-keyboard-response","45","77633","0.0-13.0-0.0-0.6","dd3wpe2el1","","dd3wpe2el1","""2024-11-13T15:31:27.968Z""","null","+","null","","","","","","",""
"","","","","","image-keyboard-response","46","78507","0.0-13.0-0.0-1.6","dd3wpe2el1","","dd3wpe2el1","""2024-11-13T15:31:27.968Z""","873","materials/imgs/D24.png","arrowleft","","[""materials/imgs/D53.png"",""materials/imgs/D75.png""]","false","random","","",""
"","","","","","html-keyboard-response","47","79009","0.0-13.0-1.0-0.0","dd3wpe2el1","","dd3wpe2el1","""2024-11-13T15:31:27.968Z""","null","+","null","","","","","","",""
"","","","","","image-keyboard-response","48","79836","0.0-13.0-1.0-1.0","dd3wpe2el1","","dd3wpe2el1","""2024-11-13T15:31:27.968Z""","827","materials/imgs/D53.png","arrowright","","[""materials/imgs/D64.png"",""materials/imgs/D53.png""]","","check","materials/imgs/D53.png","1","true"
"","","","","","html-keyboard-response","49","80337","0.0-13.0-2.0-0.0","dd3wpe2el1","","dd3wpe2el1","""2024-11-13T15:31:27.968Z""","null","+","null","","","","","","",""
"","","","","","image-keyboard-response","50","81345","0.0-13.0-2.0-1.0","dd3wpe2el1","","dd3wpe2el1","""2024-11-13T15:31:27.968Z""","1007","materials/imgs/D65.png","arrowleft","","[""materials/imgs/D4.png"",""materials/imgs/D16.png""]","false","validation","","",""
"","","","","","html-keyboard-response","51","81846","0.0-13.0-2.0-0.1","dd3wpe2el1","","dd3wpe2el1","""2024-11-13T15:31:27.968Z""","null","+","null","","","","","","",""
"","","","","","image-keyboard-response","52","82756","0.0-13.0-2.0-1.1","dd3wpe2el1","","dd3wpe2el1","""2024-11-13T15:31:27.968Z""","909","materials/imgs/D11.png","arrowleft","","[""materials/imgs/D83.png"",""materials/imgs/D48.png""]","false","validation","","",""
"","","","","","html-keyboard-response","53","83257","0.0-13.0-0.1-0.7","dd3wpe2el1","","dd3wpe2el1","""2024-11-13T15:31:27.968Z""","null","+","null","","","","","","",""
"","","","","","image-keyboard-response","54","84256","0.0-13.0-0.1-1.7","dd3wpe2el1","","dd3wpe2el1","""2024-11-13T15:31:27.968Z""","998","materials/imgs/D85.png","arrowleft","","[""materials/imgs/D49.png"",""materials/imgs/D1.png""]","false","random","","",""
"","","","","","html-keyboard-response","55","84757","0.0-13.0-0.1-0.8","dd3wpe2el1","","dd3wpe2el1","""2024-11-13T15:31:27.968Z""","null","+","null","","","","","","",""
"","","","","","image-keyboard-response","56","85836","0.0-13.0-0.1-1.8","dd3wpe2el1","","dd3wpe2el1","""2024-11-13T15:31:27.968Z""","1078","materials/imgs/D24.png","arrowleft","","[""materials/imgs/D52.png"",""materials/imgs/D68.png""]","false","random","","",""
"","","","","","html-keyboard-response","57","86337","0.0-13.0-0.1-0.9","dd3wpe2el1","","dd3wpe2el1","""2024-11-13T15:31:27.968Z""","null","+","null","","","","","","",""
"","","","","","image-keyboard-response","58","87026","0.0-13.0-0.1-1.9","dd3wpe2el1","","dd3wpe2el1","""2024-11-13T15:31:27.968Z""","688","materials/imgs/D77.png","arrowright","","[""materials/imgs/D85.png"",""materials/imgs/D6.png""]","false","random","","",""
"","","","","","html-keyboard-response","59","87527","0.0-13.0-0.1-0.10","dd3wpe2el1","","dd3wpe2el1","""2024-11-13T15:31:27.968Z""","null","+","null","","","","","","",""
"","","","","","image-keyboard-response","60","88975","0.0-13.0-0.1-1.10","dd3wpe2el1","","dd3wpe2el1","""2024-11-13T15:31:27.968Z""","1448","materials/imgs/D104.png","arrowright","","[""materials/imgs/D20.png"",""materials/imgs/D16.png""]","false","random","","",""
"","","","","","html-keyboard-response","61","89477","0.0-13.0-0.1-0.11","dd3wpe2el1","","dd3wpe2el1","""2024-11-13T15:31:27.968Z""","null","+","null","","","","","","",""
"","","","","","image-keyboard-response","62","90413","0.0-13.0-0.1-1.11","dd3wpe2el1","","dd3wpe2el1","""2024-11-13T15:31:27.968Z""","935","materials/imgs/D8.png","arrowright","","[""materials/imgs/D46.png"",""materials/imgs/D26.png""]","false","random","","",""
"","","","","","html-keyboard-response","63","90913","0.0-13.0-0.1-0.12","dd3wpe2el1","","dd3wpe2el1","""2024-11-13T15:31:27.968Z""","null","+","null","","","","","","",""
"","","","","","image-keyboard-response","64","91794","0.0-13.0-0.1-1.12","dd3wpe2el1","","dd3wpe2el1","""2024-11-13T15:31:27.968Z""","880","materials/imgs/D85.png","arrowright","","[""materials/imgs/D53.png"",""materials/imgs/D94.png""]","false","random","","",""
"","","","","","html-keyboard-response","65","92295","0.0-13.0-0.1-0.13","dd3wpe2el1","","dd3wpe2el1","""2024-11-13T15:31:27.968Z""","null","+","null","","","","","","",""
"","","","","","image-keyboard-response","66","93657","0.0-13.0-0.1-1.13","dd3wpe2el1","","dd3wpe2el1","""2024-11-13T15:31:27.968Z""","1361","materials/imgs/D14.png","arrowright","","[""materials/imgs/D96.png"",""materials/imgs/D26.png""]","false","random","","",""
"","","","","","html-keyboard-response","67","94158","0.0-13.0-1.1-0.1","dd3wpe2el1","","dd3wpe2el1","""2024-11-13T15:31:27.968Z""","null","+","null","","","","","","",""
"","","","","","image-keyboard-response","68","94816","0.0-13.0-1.1-1.1","dd3wpe2el1","","dd3wpe2el1","""2024-11-13T15:31:27.968Z""","657","materials/imgs/D76.png","arrowleft","","[""materials/imgs/D76.png"",""materials/imgs/D78.png""]","","check","materials/imgs/D76.png","0","true"
"","","","","","html-keyboard-response","69","95317","0.0-13.0-2.1-0.2","dd3wpe2el1","","dd3wpe2el1","""2024-11-13T15:31:27.968Z""","null","+","null","","","","","","",""
"","","","","","image-keyboard-response","70","96068","0.0-13.0-2.1-1.2","dd3wpe2el1","","dd3wpe2el1","""2024-11-13T15:31:27.968Z""","750","materials/imgs/D9.png","arrowright","","[""materials/imgs/D103.png"",""materials/imgs/D4.png""]","false","validation","","",""
"","","","","","html-keyboard-response","71","96569","0.0-13.0-2.1-0.3","dd3wpe2el1","","dd3wpe2el1","""2024-11-13T15:31:27.968Z""","null","+","null","","","","","","",""
"","","","","","image-keyboard-response","72","97204","0.0-13.0-2.1-1.3","dd3wpe2el1","","dd3wpe2el1","""2024-11-13T15:31:27.968Z""","634","materials/imgs/D57.png","arrowright","","[""materials/imgs/D111.png"",""materials/imgs/D4.png""]","false","validation","","",""
"","","","","","html-keyboard-response","73","97705","0.0-13.0-0.2-0.14","dd3wpe2el1","","dd3wpe2el1","""2024-11-13T15:31:27.968Z""","null","+","null","","","","","","",""
"","","","","","image-keyboard-response","74","98474","0.0-13.0-0.2-1.14","dd3wpe2el1","","dd3wpe2el1","""2024-11-13T15:31:27.968Z""","767","materials/imgs/D94.png","arrowleft","","[""materials/imgs/D35.png"",""materials/imgs/D48.png""]","false","random","","",""
"","","","","","html-keyboard-response","75","98975","0.0-13.0-0.2-0.15","dd3wpe2el1","","dd3wpe2el1","""2024-11-13T15:31:27.968Z""","null","+","null","","","","","","",""
"","","","","","image-keyboard-response","76","100668","0.0-13.0-0.2-1.15","dd3wpe2el1","","dd3wpe2el1","""2024-11-13T15:31:27.968Z""","1692","materials/imgs/D92.png","arrowright","","[""materials/imgs/D55.png"",""materials/imgs/D79.png""]","false","random","","",""
"","","","","","html-keyboard-response","77","101169","0.0-13.0-0.2-0.16","dd3wpe2el1","","dd3wpe2el1","""2024-11-13T15:31:27.968Z""","null","+","null","","","","","","",""
"","","","","","image-keyboard-response","78","102328","0.0-13.0-0.2-1.16","dd3wpe2el1","","dd3wpe2el1","""2024-11-13T15:31:27.968Z""","1157","materials/imgs/D64.png","arrowright","","[""materials/imgs/D68.png"",""materials/imgs/D101.png""]","false","random","","",""
"","","","","","html-keyboard-response","79","102829","0.0-13.0-0.2-0.17","dd3wpe2el1","","dd3wpe2el1","""2024-11-13T15:31:27.968Z""","null","+","null","","","","","","",""
"","","","","","image-keyboard-response","80","103571","0.0-13.0-0.2-1.17","dd3wpe2el1","","dd3wpe2el1","""2024-11-13T15:31:27.968Z""","740","materials/imgs/D35.png","arrowright","","[""materials/imgs/D75.png"",""materials/imgs/D84.png""]","false","random","","",""
"","","","","","html-keyboard-response","81","104072","0.0-13.0-0.2-0.18","dd3wpe2el1","","dd3wpe2el1","""2024-11-13T15:31:27.968Z""","null","+","null","","","","","","",""
"","","","","","image-keyboard-response","82","104780","0.0-13.0-0.2-1.18","dd3wpe2el1","","dd3wpe2el1","""2024-11-13T15:31:27.968Z""","706","materials/imgs/D85.png","arrowleft","","[""materials/imgs/D11.png"",""materials/imgs/D22.png""]","false","random","","",""
"","","","","","html-keyboard-response","83","105282","0.0-13.0-0.2-0.19","dd3wpe2el1","","dd3wpe2el1","""2024-11-13T15:31:27.968Z""","null","+","null","","","","","","",""
"","","","","","image-keyboard-response","84","106019","0.0-13.0-0.2-1.19","dd3wpe2el1","","dd3wpe2el1","""2024-11-13T15:31:27.968Z""","736","materials/imgs/D57.png","arrowleft","","[""materials/imgs/D68.png"",""materials/imgs/D56.png""]","false","random","","",""
"","","","","","html-keyboard-response","85","106520","0.0-13.0-0.2-0.20","dd3wpe2el1","","dd3wpe2el1","""2024-11-13T15:31:27.968Z""","null","+","null","","","","","","",""
"","","","","","image-keyboard-response","86","107245","0.0-13.0-0.2-1.20","dd3wpe2el1","","dd3wpe2el1","""2024-11-13T15:31:27.968Z""","723","materials/imgs/D65.png","arrowright","","[""materials/imgs/D74.png"",""materials/imgs/D26.png""]","false","random","","",""
"","","","","","html-keyboard-response","87","107746","0.0-13.0-1.2-0.2","dd3wpe2el1","","dd3wpe2el1","""2024-11-13T15:31:27.968Z""","null","+","null","","","","","","",""
"","","","","","image-keyboard-response","88","108374","0.0-13.0-1.2-1.2","dd3wpe2el1","","dd3wpe2el1","""2024-11-13T15:31:27.968Z""","626","materials/imgs/D18.png","arrowleft","","[""materials/imgs/D8.png"",""materials/imgs/D18.png""]","","check","materials/imgs/D8.png","0","false"
"","","","","","html-keyboard-response","89","113297","0.0-13.0-1.2-2.2-0.2","dd3wpe2el1","","dd3wpe2el1","""2024-11-13T15:31:27.968Z""","4922","<p><strong>Incorrect!</strong></p>That was an attention check. Please pay attention while completing this task.<p>Press 'y' to continue.</p>","y","","","","","","",""
"","","","","","html-keyboard-response","90","113799","0.0-13.0-2.2-0.4","dd3wpe2el1","","dd3wpe2el1","""2024-11-13T15:31:27.968Z""","null","+","null","","","","","","",""
"","","","","","image-keyboard-response","91","114868","0.0-13.0-2.2-1.4","dd3wpe2el1","","dd3wpe2el1","""2024-11-13T15:31:27.968Z""","1068","materials/imgs/D25.png","arrowleft","","[""materials/imgs/D103.png"",""materials/imgs/D64.png""]","false","validation","","",""
"","","","","","html-keyboard-response","92","115369","0.0-13.0-2.2-0.5","dd3wpe2el1","","dd3wpe2el1","""2024-11-13T15:31:27.968Z""","null","+","null","","","","","","",""
"","","","","","image-keyboard-response","93","116081","0.0-13.0-2.2-1.5","dd3wpe2el1","","dd3wpe2el1","""2024-11-13T15:31:27.968Z""","712","materials/imgs/D102.png","arrowright","","[""materials/imgs/D32.png"",""materials/imgs/D111.png""]","false","validation","","",""
"","","","","","html-keyboard-response","94","116583","0.0-13.0-0.3-0.21","dd3wpe2el1","","dd3wpe2el1","""2024-11-13T15:31:27.968Z""","null","+","null","","","","","","",""
"","","","","","image-keyboard-response","95","117159","0.0-13.0-0.3-1.21","dd3wpe2el1","","dd3wpe2el1","""2024-11-13T15:31:27.968Z""","576","materials/imgs/D76.png","arrowleft","","[""materials/imgs/D84.png"",""materials/imgs/D65.png""]","false","random","","",""
"","","","","","html-keyboard-response","96","117660","0.0-13.0-0.3-0.22","dd3wpe2el1","","dd3wpe2el1","""2024-11-13T15:31:27.968Z""","null","+","null","","","","","","",""
"","","","","","image-keyboard-response","97","118414","0.0-13.0-0.3-1.22","dd3wpe2el1","","dd3wpe2el1","""2024-11-13T15:31:27.968Z""","753","materials/imgs/D35.png","arrowleft","","[""materials/imgs/D64.png"",""materials/imgs/D26.png""]","false","random","","",""
"","","","","","html-keyboard-response","98","118916","0.0-13.0-0.3-0.23","dd3wpe2el1","","dd3wpe2el1","""2024-11-13T15:31:27.968Z""","null","+","null","","","","","","",""
"","","","","","image-keyboard-response","99","119830","0.0-13.0-0.3-1.23","dd3wpe2el1","","dd3wpe2el1","""2024-11-13T15:31:27.968Z""","913","materials/imgs/D85.png","arrowleft","","[""materials/imgs/D26.png"",""materials/imgs/D29.png""]","false","random","","",""
"","","","","","html-keyboard-response","100","120331","0.0-13.0-0.3-0.24","dd3wpe2el1","","dd3wpe2el1","""2024-11-13T15:31:27.968Z""","null","+","null","","","","","","",""
"","","","","","image-keyboard-response","101","121471","0.0-13.0-0.3-1.24","dd3wpe2el1","","dd3wpe2el1","""2024-11-13T15:31:27.968Z""","1139","materials/imgs/D111.png","arrowright","","[""materials/imgs/D77.png"",""materials/imgs/D78.png""]","false","random","","",""
"","","","","","html-keyboard-response","102","121972","0.0-13.0-0.3-0.25","dd3wpe2el1","","dd3wpe2el1","""2024-11-13T15:31:27.968Z""","null","+","null","","","","","","",""
"","","","","","image-keyboard-response","103","122588","0.0-13.0-0.3-1.25","dd3wpe2el1","","dd3wpe2el1","""2024-11-13T15:31:27.968Z""","615","materials/imgs/D56.png","arrowleft","","[""materials/imgs/D46.png"",""materials/imgs/D76.png""]","false","random","","",""
"","","","","","html-keyboard-response","104","123090","0.0-13.0-0.3-0.26","dd3wpe2el1","","dd3wpe2el1","""2024-11-13T15:31:27.968Z""","null","+","null","","","","","","",""
"","","","","","image-keyboard-response","105","124193","0.0-13.0-0.3-1.26","dd3wpe2el1","","dd3wpe2el1","""2024-11-13T15:31:27.968Z""","1102","materials/imgs/D29.png","arrowleft","","[""materials/imgs/D35.png"",""materials/imgs/D18.png""]","false","random","","",""
"","","","","","html-keyboard-response","106","124693","0.0-13.0-0.3-0.27","dd3wpe2el1","","dd3wpe2el1","""2024-11-13T15:31:27.968Z""","null","+","null","","","","","","",""
"","","","","","image-keyboard-response","107","125241","0.0-13.0-0.3-1.27","dd3wpe2el1","","dd3wpe2el1","""2024-11-13T15:31:27.968Z""","547","materials/imgs/D81.png","arrowleft","","[""materials/imgs/D34.png"",""materials/imgs/D3.png""]","false","random","","",""
"","","","","","html-keyboard-response","108","125742","0.0-13.0-1.3-0.3","dd3wpe2el1","","dd3wpe2el1","""2024-11-13T15:31:27.968Z""","null","+","null","","","","","","",""
"","","","","","image-keyboard-response","109","127032","0.0-13.0-1.3-1.3","dd3wpe2el1","","dd3wpe2el1","""2024-11-13T15:31:27.968Z""","1289","materials/imgs/D76.png","arrowleft","","[""materials/imgs/D76.png"",""materials/imgs/D78.png""]","","check","materials/imgs/D76.png","0","true"
"","","","","","html-keyboard-response","110","127533","0.0-13.0-2.3-0.6","dd3wpe2el1","","dd3wpe2el1","""2024-11-13T15:31:27.968Z""","null","+","null","","","","","","",""
"","","","","","image-keyboard-response","111","128278","0.0-13.0-2.3-1.6","dd3wpe2el1","","dd3wpe2el1","""2024-11-13T15:31:27.968Z""","744","materials/imgs/D111.png","arrowright","","[""materials/imgs/D82.png"",""materials/imgs/D95.png""]","false","validation","","",""
"","","","","","html-keyboard-response","112","128779","0.0-13.0-2.3-0.7","dd3wpe2el1","","dd3wpe2el1","""2024-11-13T15:31:27.968Z""","null","+","null","","","","","","",""
"","","","","","image-keyboard-response","113","129655","0.0-13.0-2.3-1.7","dd3wpe2el1","","dd3wpe2el1","""2024-11-13T15:31:27.968Z""","875","materials/imgs/D75.png","arrowleft","","[""materials/imgs/D96.png"",""materials/imgs/D4.png""]","false","validation","","",""
"","","","","","html-keyboard-response","114","130156","0.0-13.0-0.4-0.28","dd3wpe2el1","","dd3wpe2el1","""2024-11-13T15:31:27.968Z""","null","+","null","","","","","","",""
"","","","","","image-keyboard-response","115","130928","0.0-13.0-0.4-1.28","dd3wpe2el1","","dd3wpe2el1","""2024-11-13T15:31:27.968Z""","771","materials/imgs/D29.png","arrowright","","[""materials/imgs/D55.png"",""materials/imgs/D51.png""]","false","random","","",""
"","","","","","html-keyboard-response","116","131429","0.0-13.0-0.4-0.29","dd3wpe2el1","","dd3wpe2el1","""2024-11-13T15:31:27.968Z""","null","+","null","","","","","","",""
"","","","","","image-keyboard-response","117","132276","0.0-13.0-0.4-1.29","dd3wpe2el1","","dd3wpe2el1","""2024-11-13T15:31:27.968Z""","846","materials/imgs/D103.png","arrowleft","","[""materials/imgs/D55.png"",""materials/imgs/D95.png""]","false","random","","",""
"","","","","","html-keyboard-response","118","132776","0.0-13.0-0.4-0.30","dd3wpe2el1","","dd3wpe2el1","""2024-11-13T15:31:27.968Z""","null","+","null","","","","","","",""
"","","","","","image-keyboard-response","119","133660","0.0-13.0-0.4-1.30","dd3wpe2el1","","dd3wpe2el1","""2024-11-13T15:31:27.968Z""","883","materials/imgs/D96.png","arrowright","","[""materials/imgs/D26.png"",""materials/imgs/D36.png""]","false","random","","",""
"","","","","","html-keyboard-response","120","134162","0.0-13.0-0.4-0.31","dd3wpe2el1","","dd3wpe2el1","""2024-11-13T15:31:27.968Z""","null","+","null","","","","","","",""
"","","","","","image-keyboard-response","121","134899","0.0-13.0-0.4-1.31","dd3wpe2el1","","dd3wpe2el1","""2024-11-13T15:31:27.968Z""","736","materials/imgs/D52.png","arrowright","","[""materials/imgs/D56.png"",""materials/imgs/D35.png""]","false","random","","",""
"","","","","","html-keyboard-response","122","135399","0.0-13.0-0.4-0.32","dd3wpe2el1","","dd3wpe2el1","""2024-11-13T15:31:27.968Z""","null","+","null","","","","","","",""
"","","","","","image-keyboard-response","123","136724","0.0-13.0-0.4-1.32","dd3wpe2el1","","dd3wpe2el1","""2024-11-13T15:31:27.968Z""","1324","materials/imgs/D74.png","arrowleft","","[""materials/imgs/D76.png"",""materials/imgs/D21.png""]","false","random","","",""
"","","","","","html-keyboard-response","124","137226","0.0-13.0-0.4-0.33","dd3wpe2el1","","dd3wpe2el1","""2024-11-13T15:31:27.968Z""","null","+","null","","","","","","",""
"","","","","","image-keyboard-response","125","138404","0.0-13.0-0.4-1.33","dd3wpe2el1","","dd3wpe2el1","""2024-11-13T15:31:27.968Z""","1177","materials/imgs/D81.png","arrowleft","","[""materials/imgs/D85.png"",""materials/imgs/D101.png""]","false","random","","",""
"","","","","","html-keyboard-response","126","138905","0.0-13.0-0.4-0.34","dd3wpe2el1","","dd3wpe2el1","""2024-11-13T15:31:27.968Z""","null","+","null","","","","","","",""
"","","","","","image-keyboard-response","127","139710","0.0-13.0-0.4-1.34","dd3wpe2el1","","dd3wpe2el1","""2024-11-13T15:31:27.968Z""","804","materials/imgs/D55.png","arrowleft","","[""materials/imgs/D85.png"",""materials/imgs/D8.png""]","false","random","","",""
"","","","","","html-keyboard-response","128","140212","0.0-13.0-1.4-0.4","dd3wpe2el1","","dd3wpe2el1","""2024-11-13T15:31:27.968Z""","null","+","null","","","","","","",""
"","","","","","image-keyboard-response","129","140945","0.0-13.0-1.4-1.4","dd3wpe2el1","","dd3wpe2el1","""2024-11-13T15:31:27.968Z""","731","materials/imgs/D26.png","arrowleft","","[""materials/imgs/D26.png"",""materials/imgs/D46.png""]","","check","materials/imgs/D26.png","0","true"
"","","","","","html-keyboard-response","130","141446","0.0-13.0-2.4-0.8","dd3wpe2el1","","dd3wpe2el1","""2024-11-13T15:31:27.968Z""","null","+","null","","","","","","",""
"","","","","","image-keyboard-response","131","142366","0.0-13.0-2.4-1.8","dd3wpe2el1","","dd3wpe2el1","""2024-11-13T15:31:27.968Z""","919","materials/imgs/D49.png","arrowright","","[""materials/imgs/D8.png"",""materials/imgs/D101.png""]","false","validation","","",""
"","","","","","html-keyboard-response","132","142866","0.0-13.0-2.4-0.9","dd3wpe2el1","","dd3wpe2el1","""2024-11-13T15:31:27.968Z""","null","+","null","","","","","","",""
"","","","","","image-keyboard-response","133","143769","0.0-13.0-2.4-1.9","dd3wpe2el1","","dd3wpe2el1","""2024-11-13T15:31:27.968Z""","902","materials/imgs/D103.png","arrowright","","[""materials/imgs/D76.png"",""materials/imgs/D106.png""]","false","validation","","",""
"","","","","","html-button-response","134","146270","0.0-14.0","dd3wpe2el1","","dd3wpe2el1","""2024-11-13T15:31:27.968Z""","2500","You have completed 25% of the trials. Please click 'Continue' when you are ready proceed.","0","","","","","","",""
"","","","","","html-keyboard-response","135","146772","0.0-15.0-0.0-0.0","dd3wpe2el1","","dd3wpe2el1","""2024-11-13T15:31:27.968Z""","null","+","null","","","","","","",""
"","","","","","image-keyboard-response","136","147486","0.0-15.0-0.0-1.0","dd3wpe2el1","","dd3wpe2el1","""2024-11-13T15:31:27.968Z""","713","materials/imgs/D103.png","arrowright","","[""materials/imgs/D65.png"",""materials/imgs/D17.png""]","false","random","","",""
"","","","","","html-keyboard-response","137","147987","0.0-15.0-0.0-0.1","dd3wpe2el1","","dd3wpe2el1","""2024-11-13T15:31:27.968Z""","null","+","null","","","","","","",""
"","","","","","image-keyboard-response","138","148893","0.0-15.0-0.0-1.1","dd3wpe2el1","","dd3wpe2el1","""2024-11-13T15:31:27.968Z""","904","materials/imgs/D102.png","arrowright","","[""materials/imgs/D48.png"",""materials/imgs/D19.png""]","false","random","","",""
"","","","","","html-keyboard-response","139","149394","0.0-15.0-0.0-0.2","dd3wpe2el1","","dd3wpe2el1","""2024-11-13T15:31:27.968Z""","null","+","null","","","","","","",""
"","","","","","image-keyboard-response","140","150067","0.0-15.0-0.0-1.2","dd3wpe2el1","","dd3wpe2el1","""2024-11-13T15:31:27.968Z""","671","materials/imgs/D55.png","arrowright","","[""materials/imgs/D111.png"",""materials/imgs/D16.png""]","false","random","","",""
"","","","","","html-keyboard-response","141","150568","0.0-15.0-0.0-0.3","dd3wpe2el1","","dd3wpe2el1","""2024-11-13T15:31:27.968Z""","null","+","null","","","","","","",""
"","","","","","image-keyboard-response","142","151314","0.0-15.0-0.0-1.3","dd3wpe2el1","","dd3wpe2el1","""2024-11-13T15:31:27.968Z""","745","materials/imgs/D106.png","arrowright","","[""materials/imgs/D32.png"",""materials/imgs/D29.png""]","false","random","","",""
"","","","","","html-keyboard-response","143","151815","0.0-15.0-0.0-0.4","dd3wpe2el1","","dd3wpe2el1","""2024-11-13T15:31:27.968Z""","null","+","null","","","","","","",""
"","","","","","image-keyboard-response","144","152893","0.0-15.0-0.0-1.4","dd3wpe2el1","","dd3wpe2el1","""2024-11-13T15:31:27.968Z""","1076","materials/imgs/D3.png","arrowright","","[""materials/imgs/D53.png"",""materials/imgs/D22.png""]","false","random","","",""
"","","","","","html-keyboard-response","145","153394","0.0-15.0-0.0-0.5","dd3wpe2el1","","dd3wpe2el1","""2024-11-13T15:31:27.968Z""","null","+","null","","","","","","",""
"","","","","","image-keyboard-response","146","154387","0.0-15.0-0.0-1.5","dd3wpe2el1","","dd3wpe2el1","""2024-11-13T15:31:27.968Z""","993","materials/imgs/D21.png","arrowright","","[""materials/imgs/D65.png"",""materials/imgs/D82.png""]","false","random","","",""
"","","","","","html-keyboard-response","147","154889","0.0-15.0-0.0-0.6","dd3wpe2el1","","dd3wpe2el1","""2024-11-13T15:31:27.968Z""","null","+","null","","","","","","",""
"","","","","","image-keyboard-response","148","155998","0.0-15.0-0.0-1.6","dd3wpe2el1","","dd3wpe2el1","""2024-11-13T15:31:27.968Z""","1108","materials/imgs/D111.png","arrowright","","[""materials/imgs/D1.png"",""materials/imgs/D18.png""]","false","random","","",""
"","","","","","html-keyboard-response","149","156499","0.0-15.0-1.0-0.0","dd3wpe2el1","","dd3wpe2el1","""2024-11-13T15:31:27.968Z""","null","+","null","","","","","","",""
"","","","","","image-keyboard-response","150","157277","0.0-15.0-1.0-1.0","dd3wpe2el1","","dd3wpe2el1","""2024-11-13T15:31:27.968Z""","776","materials/imgs/D26.png","arrowleft","","[""materials/imgs/D26.png"",""materials/imgs/D46.png""]","","check","materials/imgs/D26.png","0","true"
"","","","","","html-keyboard-response","151","157778","0.0-15.0-2.0-0.0","dd3wpe2el1","","dd3wpe2el1","""2024-11-13T15:31:27.968Z""","null","+","null","","","","","","",""
"","","","","","image-keyboard-response","152","159496","0.0-15.0-2.0-1.0","dd3wpe2el1","","dd3wpe2el1","""2024-11-13T15:31:27.968Z""","1716","materials/imgs/D48.png","arrowright","","[""materials/imgs/D4.png"",""materials/imgs/D37.png""]","false","validation","","",""
"","","","","","html-keyboard-response","153","159998","0.0-15.0-2.0-0.1","dd3wpe2el1","","dd3wpe2el1","""2024-11-13T15:31:27.968Z""","null","+","null","","","","","","",""
"","","","","","image-keyboard-response","154","161160","0.0-15.0-2.0-1.1","dd3wpe2el1","","dd3wpe2el1","""2024-11-13T15:31:27.968Z""","1161","materials/imgs/D76.png","arrowleft","","[""materials/imgs/D83.png"",""materials/imgs/D6.png""]","false","validation","","",""
"","","","","","html-keyboard-response","155","161661","0.0-15.0-0.1-0.7","dd3wpe2el1","","dd3wpe2el1","""2024-11-13T15:31:27.968Z""","null","+","null","","","","","","",""
"","","","","","image-keyboard-response","156","162935","0.0-15.0-0.1-1.7","dd3wpe2el1","","dd3wpe2el1","""2024-11-13T15:31:27.968Z""","1272","materials/imgs/D47.png","arrowright","","[""materials/imgs/D57.png"",""materials/imgs/D18.png""]","false","random","","",""
"","","","","","html-keyboard-response","157","163436","0.0-15.0-0.1-0.8","dd3wpe2el1","","dd3wpe2el1","""2024-11-13T15:31:27.968Z""","null","+","null","","","","","","",""
"","","","","","image-keyboard-response","158","164925","0.0-15.0-0.1-1.8","dd3wpe2el1","","dd3wpe2el1","""2024-11-13T15:31:27.968Z""","1488","materials/imgs/D75.png","arrowleft","","[""materials/imgs/D3.png"",""materials/imgs/D17.png""]","false","random","","",""
"","","","","","html-keyboard-response","159","165426","0.0-15.0-0.1-0.9","dd3wpe2el1","","dd3wpe2el1","""2024-11-13T15:31:27.968Z""","null","+","null","","","","","","",""
"","","","","","image-keyboard-response","160","166481","0.0-15.0-0.1-1.9","dd3wpe2el1","","dd3wpe2el1","""2024-11-13T15:31:27.968Z""","1054","materials/imgs/D64.png","arrowleft","","[""materials/imgs/D82.png"",""materials/imgs/D26.png""]","false","random","","",""
"","","","","","html-keyboard-response","161","166983","0.0-15.0-0.1-0.10","dd3wpe2el1","","dd3wpe2el1","""2024-11-13T15:31:27.968Z""","null","+","null","","","","","","",""
"","","","","","image-keyboard-response","162","167953","0.0-15.0-0.1-1.10","dd3wpe2el1","","dd3wpe2el1","""2024-11-13T15:31:27.968Z""","968","materials/imgs/D92.png","arrowright","","[""materials/imgs/D104.png"",""materials/imgs/D29.png""]","false","random","","",""
"","","","","","html-keyboard-response","163","168454","0.0-15.0-0.1-0.11","dd3wpe2el1","","dd3wpe2el1","""2024-11-13T15:31:27.968Z""","null","+","null","","","","","","",""
"","","","","","image-keyboard-response","164","169098","0.0-15.0-0.1-1.11","dd3wpe2el1","","dd3wpe2el1","""2024-11-13T15:31:27.968Z""","643","materials/imgs/D16.png","arrowright","","[""materials/imgs/D56.png"",""materials/imgs/D52.png""]","false","random","","",""
"","","","","","html-keyboard-response","165","169600","0.0-15.0-0.1-0.12","dd3wpe2el1","","dd3wpe2el1","""2024-11-13T15:31:27.968Z""","null","+","null","","","","","","",""
"","","","","","image-keyboard-response","166","170215","0.0-15.0-0.1-1.12","dd3wpe2el1","","dd3wpe2el1","""2024-11-13T15:31:27.968Z""","614","materials/imgs/D77.png","arrowleft","","[""materials/imgs/D6.png"",""materials/imgs/D101.png""]","false","random","","",""
"","","","","","html-keyboard-response","167","170717","0.0-15.0-0.1-0.13","dd3wpe2el1","","dd3wpe2el1","""2024-11-13T15:31:27.968Z""","null","+","null","","","","","","",""
"","","","","","image-keyboard-response","168","171629","0.0-15.0-0.1-1.13","dd3wpe2el1","","dd3wpe2el1","""2024-11-13T15:31:27.968Z""","910","materials/imgs/D64.png","arrowright","","[""materials/imgs/D36.png"",""materials/imgs/D102.png""]","false","random","","",""
"","","","","","html-keyboard-response","169","172130","0.0-15.0-1.1-0.1","dd3wpe2el1","","dd3wpe2el1","""2024-11-13T15:31:27.968Z""","null","+","null","","","","","","",""
"","","","","","image-keyboard-response","170","172682","0.0-15.0-1.1-1.1","dd3wpe2el1","","dd3wpe2el1","""2024-11-13T15:31:27.968Z""","551","materials/imgs/D64.png","arrowleft","","[""materials/imgs/D64.png"",""materials/imgs/D53.png""]","","check","materials/imgs/D64.png","0","true"
"","","","","","html-keyboard-response","171","173183","0.0-15.0-2.1-0.2","dd3wpe2el1","","dd3wpe2el1","""2024-11-13T15:31:27.968Z""","null","+","null","","","","","","",""
"","","","","","image-keyboard-response","172","174520","0.0-15.0-2.1-1.2","dd3wpe2el1","","dd3wpe2el1","""2024-11-13T15:31:27.968Z""","1337","materials/imgs/D4.png","arrowleft","","[""materials/imgs/D52.png"",""materials/imgs/D83.png""]","false","validation","","",""
"","","","","","html-keyboard-response","173","175021","0.0-15.0-2.1-0.3","dd3wpe2el1","","dd3wpe2el1","""2024-11-13T15:31:27.968Z""","null","+","null","","","","","","",""
"","","","","","image-keyboard-response","174","175609","0.0-15.0-2.1-1.3","dd3wpe2el1","","dd3wpe2el1","""2024-11-13T15:31:27.968Z""","586","materials/imgs/D105.png","arrowleft","","[""materials/imgs/D106.png"",""materials/imgs/D52.png""]","false","validation","","",""
"","","","","","html-keyboard-response","175","176110","0.0-15.0-0.2-0.14","dd3wpe2el1","","dd3wpe2el1","""2024-11-13T15:31:27.968Z""","null","+","null","","","","","","",""
"","","","","","image-keyboard-response","176","176758","0.0-15.0-0.2-1.14","dd3wpe2el1","","dd3wpe2el1","""2024-11-13T15:31:27.968Z""","647","materials/imgs/D82.png","arrowleft","","[""materials/imgs/D104.png"",""materials/imgs/D101.png""]","false","random","","",""
"","","","","","html-keyboard-response","177","177260","0.0-15.0-0.2-0.15","dd3wpe2el1","","dd3wpe2el1","""2024-11-13T15:31:27.968Z""","null","+","null","","","","","","",""
"","","","","","image-keyboard-response","178","177932","0.0-15.0-0.2-1.15","dd3wpe2el1","","dd3wpe2el1","""2024-11-13T15:31:27.968Z""","670","materials/imgs/D106.png","arrowright","","[""materials/imgs/D101.png"",""materials/imgs/D83.png""]","false","random","","",""
"","","","","","html-keyboard-response","179","178433","0.0-15.0-0.2-0.16","dd3wpe2el1","","dd3wpe2el1","""2024-11-13T15:31:27.968Z""","null","+","null","","","","","","",""
"","","","","","image-keyboard-response","180","179621","0.0-15.0-0.2-1.16","dd3wpe2el1","","dd3wpe2el1","""2024-11-13T15:31:27.968Z""","1187","materials/imgs/D49.png","arrowright","","[""materials/imgs/D92.png"",""materials/imgs/D79.png""]","false","random","","",""
"","","","","","html-keyboard-response","181","180122","0.0-15.0-0.2-0.17","dd3wpe2el1","","dd3wpe2el1","""2024-11-13T15:31:27.968Z""","null","+","null","","","","","","",""
"","","","","","image-keyboard-response","182","181860","0.0-15.0-0.2-1.17","dd3wpe2el1","","dd3wpe2el1","""2024-11-13T15:31:27.968Z""","1736","materials/imgs/D26.png","arrowright","","[""materials/imgs/D55.png"",""materials/imgs/D3.png""]","false","random","","",""
"","","","","","html-keyboard-response","183","182361","0.0-15.0-0.2-0.18","dd3wpe2el1","","dd3wpe2el1","""2024-11-13T15:31:27.968Z""","null","+","null","","","","","","",""
"","","","","","image-keyboard-response","184","183654","0.0-15.0-0.2-1.18","dd3wpe2el1","","dd3wpe2el1","""2024-11-13T15:31:27.968Z""","1292","materials/imgs/D64.png","arrowright","","[""materials/imgs/D106.png"",""materials/imgs/D19.png""]","false","random","","",""
"","","","","","html-keyboard-response","185","184156","0.0-15.0-0.2-0.19","dd3wpe2el1","","dd3wpe2el1","""2024-11-13T15:31:27.968Z""","null","+","null","","","","","","",""
"","","","","","image-keyboard-response","186","185240","0.0-15.0-0.2-1.19","dd3wpe2el1","","dd3wpe2el1","""2024-11-13T15:31:27.968Z""","1083","materials/imgs/D95.png","arrowleft","","[""materials/imgs/D92.png"",""materials/imgs/D55.png""]","false","random","","",""
"","","","","","html-keyboard-response","187","185741","0.0-15.0-0.2-0.20","dd3wpe2el1","","dd3wpe2el1","""2024-11-13T15:31:27.968Z""","null","+","null","","","","","","",""
"","","","","","image-keyboard-response","188","186639","0.0-15.0-0.2-1.20","dd3wpe2el1","","dd3wpe2el1","""2024-11-13T15:31:27.968Z""","887","materials/imgs/D26.png","arrowright","","[""materials/imgs/D77.png"",""materials/imgs/D84.png""]","false","random","","",""
"","","","","","html-keyboard-response","189","187141","0.0-15.0-1.2-0.2","dd3wpe2el1","","dd3wpe2el1","""2024-11-13T15:31:27.968Z""","null","+","null","","","","","","",""
"","","","","","image-keyboard-response","190","187717","0.0-15.0-1.2-1.2","dd3wpe2el1","","dd3wpe2el1","""2024-11-13T15:31:27.968Z""","575","materials/imgs/D18.png","arrowright","","[""materials/imgs/D8.png"",""materials/imgs/D18.png""]","","check","materials/imgs/D18.png","1","true"
"","","","","","html-keyboard-response","191","188219","0.0-15.0-2.2-0.4","dd3wpe2el1","","dd3wpe2el1","""2024-11-13T15:31:27.968Z""","null","+","null","","","","","","",""
"","","","","","image-keyboard-response","192","188872","0.0-15.0-2.2-1.4","dd3wpe2el1","","dd3wpe2el1","""2024-11-13T15:31:27.968Z""","652","materials/imgs/D8.png","arrowleft","","[""materials/imgs/D101.png"",""materials/imgs/D52.png""]","false","validation","","",""
"","","","","","html-keyboard-response","193","189373","0.0-15.0-2.2-0.5","dd3wpe2el1","","dd3wpe2el1","""2024-11-13T15:31:27.968Z""","null","+","null","","","","","","",""
"","","","","","image-keyboard-response","194","190071","0.0-15.0-2.2-1.5","dd3wpe2el1","","dd3wpe2el1","""2024-11-13T15:31:27.968Z""","697","materials/imgs/D95.png","arrowright","","[""materials/imgs/D36.png"",""materials/imgs/D4.png""]","false","validation","","",""
"","","","","","html-keyboard-response","195","190572","0.0-15.0-0.3-0.21","dd3wpe2el1","","dd3wpe2el1","""2024-11-13T15:31:27.968Z""","null","+","null","","","","","","",""
"","","","","","image-keyboard-response","196","191460","0.0-15.0-0.3-1.21","dd3wpe2el1","","dd3wpe2el1","""2024-11-13T15:31:27.968Z""","887","materials/imgs/D105.png","arrowright","","[""materials/imgs/D25.png"",""materials/imgs/D47.png""]","false","random","","",""
"","","","","","html-keyboard-response","197","191962","0.0-15.0-0.3-0.22","dd3wpe2el1","","dd3wpe2el1","""2024-11-13T15:31:27.968Z""","null","+","null","","","","","","",""
"","","","","","image-keyboard-response","198","192873","0.0-15.0-0.3-1.22","dd3wpe2el1","","dd3wpe2el1","""2024-11-13T15:31:27.968Z""","910","materials/imgs/D95.png","arrowleft","","[""materials/imgs/D14.png"",""materials/imgs/D74.png""]","false","random","","",""
"","","","","","html-keyboard-response","199","193374","0.0-15.0-0.3-0.23","dd3wpe2el1","","dd3wpe2el1","""2024-11-13T15:31:27.968Z""","null","+","null","","","","","","",""
"","","","","","image-keyboard-response","200","194193","0.0-15.0-0.3-1.23","dd3wpe2el1","","dd3wpe2el1","""2024-11-13T15:31:27.968Z""","818","materials/imgs/D6.png","arrowright","","[""materials/imgs/D26.png"",""materials/imgs/D57.png""]","false","random","","",""
"","","","","","html-keyboard-response","201","194694","0.0-15.0-0.3-0.24","dd3wpe2el1","","dd3wpe2el1","""2024-11-13T15:31:27.968Z""","null","+","null","","","","","","",""
"","","","","","image-keyboard-response","202","195419","0.0-15.0-0.3-1.24","dd3wpe2el1","","dd3wpe2el1","""2024-11-13T15:31:27.968Z""","724","materials/imgs/D81.png","arrowright","","[""materials/imgs/D111.png"",""materials/imgs/D83.png""]","false","random","","",""
"","","","","","html-keyboard-response","203","195920","0.0-15.0-0.3-0.25","dd3wpe2el1","","dd3wpe2el1","""2024-11-13T15:31:27.968Z""","null","+","null","","","","","","",""
"","","","","","image-keyboard-response","204","196980","0.0-15.0-0.3-1.25","dd3wpe2el1","","dd3wpe2el1","""2024-11-13T15:31:27.968Z""","1059","materials/imgs/D51.png","arrowleft","","[""materials/imgs/D95.png"",""materials/imgs/D22.png""]","false","random","","",""
"","","","","","html-keyboard-response","205","197481","0.0-15.0-0.3-0.26","dd3wpe2el1","","dd3wpe2el1","""2024-11-13T15:31:27.968Z""","null","+","null","","","","","","",""
"","","","","","image-keyboard-response","206","198226","0.0-15.0-0.3-1.26","dd3wpe2el1","","dd3wpe2el1","""2024-11-13T15:31:27.968Z""","744","materials/imgs/D35.png","arrowright","","[""materials/imgs/D82.png"",""materials/imgs/D9.png""]","false","random","","",""
"","","","","","html-keyboard-response","207","198728","0.0-15.0-0.3-0.27","dd3wpe2el1","","dd3wpe2el1","""2024-11-13T15:31:27.968Z""","null","+","null","","","","","","",""
"","","","","","image-keyboard-response","208","199325","0.0-15.0-0.3-1.27","dd3wpe2el1","","dd3wpe2el1","""2024-11-13T15:31:27.968Z""","596","materials/imgs/D74.png","arrowright","","[""materials/imgs/D83.png"",""materials/imgs/D18.png""]","false","random","","",""
"","","","","","html-keyboard-response","209","199827","0.0-15.0-1.3-0.3","dd3wpe2el1","","dd3wpe2el1","""2024-11-13T15:31:27.968Z""","null","+","null","","","","","","",""
"","","","","","image-keyboard-response","210","200458","0.0-15.0-1.3-1.3","dd3wpe2el1","","dd3wpe2el1","""2024-11-13T15:31:27.968Z""","630","materials/imgs/D18.png","arrowright","","[""materials/imgs/D8.png"",""materials/imgs/D18.png""]","","check","materials/imgs/D18.png","1","true"
"","","","","","html-keyboard-response","211","200959","0.0-15.0-2.3-0.6","dd3wpe2el1","","dd3wpe2el1","""2024-11-13T15:31:27.968Z""","null","+","null","","","","","","",""
"","","","","","image-keyboard-response","212","201649","0.0-15.0-2.3-1.6","dd3wpe2el1","","dd3wpe2el1","""2024-11-13T15:31:27.968Z""","689","materials/imgs/D65.png","arrowleft","","[""materials/imgs/D4.png"",""materials/imgs/D16.png""]","false","validation","","",""
"","","","","","html-keyboard-response","213","202151","0.0-15.0-2.3-0.7","dd3wpe2el1","","dd3wpe2el1","""2024-11-13T15:31:27.968Z""","null","+","null","","","","","","",""
"","","","","","image-keyboard-response","214","202748","0.0-15.0-2.3-1.7","dd3wpe2el1","","dd3wpe2el1","""2024-11-13T15:31:27.968Z""","596","materials/imgs/D18.png","arrowright","","[""materials/imgs/D32.png"",""materials/imgs/D57.png""]","false","validation","","",""
"","","","","","html-keyboard-response","215","203249","0.0-15.0-0.4-0.28","dd3wpe2el1","","dd3wpe2el1","""2024-11-13T15:31:27.968Z""","null","+","null","","","","","","",""
"","","","","","image-keyboard-response","216","203895","0.0-15.0-0.4-1.28","dd3wpe2el1","","dd3wpe2el1","""2024-11-13T15:31:27.968Z""","645","materials/imgs/D64.png","arrowleft","","[""materials/imgs/D84.png"",""materials/imgs/D25.png""]","false","random","","",""
"","","","","","html-keyboard-response","217","204396","0.0-15.0-0.4-0.29","dd3wpe2el1","","dd3wpe2el1","""2024-11-13T15:31:27.968Z""","null","+","null","","","","","","",""
"","","","","","image-keyboard-response","218","204906","0.0-15.0-0.4-1.29","dd3wpe2el1","","dd3wpe2el1","""2024-11-13T15:31:27.968Z""","508","materials/imgs/D51.png","arrowleft","","[""materials/imgs/D3.png"",""materials/imgs/D55.png""]","false","random","","",""
"","","","","","html-keyboard-response","219","205406","0.0-15.0-0.4-0.30","dd3wpe2el1","","dd3wpe2el1","""2024-11-13T15:31:27.968Z""","null","+","null","","","","","","",""
"","","","","","image-keyboard-response","220","206789","0.0-15.0-0.4-1.30","dd3wpe2el1","","dd3wpe2el1","""2024-11-13T15:31:27.968Z""","1382","materials/imgs/D9.png","arrowleft","","[""materials/imgs/D49.png"",""materials/imgs/D14.png""]","false","random","","",""
"","","","","","html-keyboard-response","221","207290","0.0-15.0-0.4-0.31","dd3wpe2el1","","dd3wpe2el1","""2024-11-13T15:31:27.968Z""","null","+","null","","","","","","",""
"","","","","","image-keyboard-response","222","208031","0.0-15.0-0.4-1.31","dd3wpe2el1","","dd3wpe2el1","""2024-11-13T15:31:27.968Z""","740","materials/imgs/D35.png","arrowright","","[""materials/imgs/D66.png"",""materials/imgs/D74.png""]","false","random","","",""
"","","","","","html-keyboard-response","223","208532","0.0-15.0-0.4-0.32","dd3wpe2el1","","dd3wpe2el1","""2024-11-13T15:31:27.968Z""","null","+","null","","","","","","",""
"","","","","","image-keyboard-response","224","209099","0.0-15.0-0.4-1.32","dd3wpe2el1","","dd3wpe2el1","""2024-11-13T15:31:27.968Z""","565","materials/imgs/D48.png","arrowleft","","[""materials/imgs/D34.png"",""materials/imgs/D76.png""]","false","random","","",""
"","","","","","html-keyboard-response","225","209599","0.0-15.0-0.4-0.33","dd3wpe2el1","","dd3wpe2el1","""2024-11-13T15:31:27.968Z""","null","+","null","","","","","","",""
"","","","","","image-keyboard-response","226","210245","0.0-15.0-0.4-1.33","dd3wpe2el1","","dd3wpe2el1","""2024-11-13T15:31:27.968Z""","644","materials/imgs/D96.png","arrowleft","","[""materials/imgs/D94.png"",""materials/imgs/D36.png""]","false","random","","",""
"","","","","","html-keyboard-response","227","210746","0.0-15.0-0.4-0.34","dd3wpe2el1","","dd3wpe2el1","""2024-11-13T15:31:27.968Z""","null","+","null","","","","","","",""
"","","","","","image-keyboard-response","228","211448","0.0-15.0-0.4-1.34","dd3wpe2el1","","dd3wpe2el1","""2024-11-13T15:31:27.968Z""","700","materials/imgs/D83.png","arrowleft","","[""materials/imgs/D20.png"",""materials/imgs/D92.png""]","false","random","","",""
"","","","","","html-keyboard-response","229","211950","0.0-15.0-1.4-0.4","dd3wpe2el1","","dd3wpe2el1","""2024-11-13T15:31:27.968Z""","null","+","null","","","","","","",""
"","","","","","image-keyboard-response","230","212791","0.0-15.0-1.4-1.4","dd3wpe2el1","","dd3wpe2el1","""2024-11-13T15:31:27.968Z""","840","materials/imgs/D18.png","arrowleft","","[""materials/imgs/D8.png"",""materials/imgs/D18.png""]","","check","materials/imgs/D8.png","0","false"
"","","","","","html-keyboard-response","231","215099","0.0-15.0-1.4-2.4-0.4","dd3wpe2el1","","dd3wpe2el1","""2024-11-13T15:31:27.968Z""","2307","<p><strong>Incorrect!</strong></p>That was an attention check. Please pay attention while completing this task.<p>Press 'y' to continue.</p>","y","","","","","","",""
"","","","","","html-keyboard-response","232","215600","0.0-15.0-2.4-0.8","dd3wpe2el1","","dd3wpe2el1","""2024-11-13T15:31:27.968Z""","null","+","null","","","","","","",""
"","","","","","image-keyboard-response","233","217628","0.0-15.0-2.4-1.8","dd3wpe2el1","","dd3wpe2el1","""2024-11-13T15:31:27.968Z""","2027","materials/imgs/D81.png","arrowleft","","[""materials/imgs/D105.png"",""materials/imgs/D24.png""]","false","validation","","",""
"","","","","","html-keyboard-response","234","218129","0.0-15.0-2.4-0.9","dd3wpe2el1","","dd3wpe2el1","""2024-11-13T15:31:27.968Z""","null","+","null","","","","","","",""
"","","","","","image-keyboard-response","235","218940","0.0-15.0-2.4-1.9","dd3wpe2el1","","dd3wpe2el1","""2024-11-13T15:31:27.968Z""","810","materials/imgs/D76.png","arrowleft","","[""materials/imgs/D83.png"",""materials/imgs/D6.png""]","false","validation","","",""
"","","","","","html-button-response","236","221434","0.0-16.0","dd3wpe2el1","","dd3wpe2el1","""2024-11-13T15:31:27.968Z""","2494","You have completed 50% of the trials. Please click 'Continue' when you are ready proceed.","0","","","","","","",""
"","","","","","html-keyboard-response","237","221936","0.0-17.0-0.0-0.0","dd3wpe2el1","","dd3wpe2el1","""2024-11-13T15:31:27.968Z""","null","+","null","","","","","","",""
"","","","","","image-keyboard-response","238","222753","0.0-17.0-0.0-1.0","dd3wpe2el1","","dd3wpe2el1","""2024-11-13T15:31:27.968Z""","816","materials/imgs/D6.png","arrowleft","","[""materials/imgs/D66.png"",""materials/imgs/D83.png""]","false","random","","",""
"","","","","","html-keyboard-response","239","223255","0.0-17.0-0.0-0.1","dd3wpe2el1","","dd3wpe2el1","""2024-11-13T15:31:27.968Z""","null","+","null","","","","","","",""
"","","","","","image-keyboard-response","240","223766","0.0-17.0-0.0-1.1","dd3wpe2el1","","dd3wpe2el1","""2024-11-13T15:31:27.968Z""","509","materials/imgs/D104.png","arrowleft","","[""materials/imgs/D1.png"",""materials/imgs/D16.png""]","false","random","","",""
"","","","","","html-keyboard-response","241","224267","0.0-17.0-0.0-0.2","dd3wpe2el1","","dd3wpe2el1","""2024-11-13T15:31:27.968Z""","null","+","null","","","","","","",""
"","","","","","image-keyboard-response","242","224912","0.0-17.0-0.0-1.2","dd3wpe2el1","","dd3wpe2el1","""2024-11-13T15:31:27.968Z""","644","materials/imgs/D47.png","arrowright","","[""materials/imgs/D17.png"",""materials/imgs/D9.png""]","false","random","","",""
"","","","","","html-keyboard-response","243","225413","0.0-17.0-0.0-0.3","dd3wpe2el1","","dd3wpe2el1","""2024-11-13T15:31:27.968Z""","null","+","null","","","","","","",""
"","","","","","image-keyboard-response","244","225961","0.0-17.0-0.0-1.3","dd3wpe2el1","","dd3wpe2el1","""2024-11-13T15:31:27.968Z""","547","materials/imgs/D83.png","arrowleft","","[""materials/imgs/D78.png"",""materials/imgs/D84.png""]","false","random","","",""
"","","","","","html-keyboard-response","245","226462","0.0-17.0-0.0-0.4","dd3wpe2el1","","dd3wpe2el1","""2024-11-13T15:31:27.968Z""","null","+","null","","","","","","",""
"","","","","","image-keyboard-response","246","227134","0.0-17.0-0.0-1.4","dd3wpe2el1","","dd3wpe2el1","""2024-11-13T15:31:27.968Z""","670","materials/imgs/D105.png","arrowright","","[""materials/imgs/D81.png"",""materials/imgs/D74.png""]","false","random","","",""
"","","","","","html-keyboard-response","247","227636","0.0-17.0-0.0-0.5","dd3wpe2el1","","dd3wpe2el1","""2024-11-13T15:31:27.968Z""","null","+","null","","","","","","",""
"","","","","","image-keyboard-response","248","228142","0.0-17.0-0.0-1.5","dd3wpe2el1","","dd3wpe2el1","""2024-11-13T15:31:27.968Z""","504","materials/imgs/D106.png","arrowleft","","[""materials/imgs/D75.png"",""materials/imgs/D102.png""]","false","random","","",""
"","","","","","html-keyboard-response","249","228643","0.0-17.0-0.0-0.6","dd3wpe2el1","","dd3wpe2el1","""2024-11-13T15:31:27.968Z""","null","+","null","","","","","","",""
"","","","","","image-keyboard-response","250","229269","0.0-17.0-0.0-1.6","dd3wpe2el1","","dd3wpe2el1","""2024-11-13T15:31:27.968Z""","626","materials/imgs/D18.png","arrowright","","[""materials/imgs/D82.png"",""materials/imgs/D55.png""]","false","random","","",""
"","","","","","html-keyboard-response","251","229770","0.0-17.0-1.0-0.0","dd3wpe2el1","","dd3wpe2el1","""2024-11-13T15:31:27.968Z""","null","+","null","","","","","","",""
"","","","","","image-keyboard-response","252","230589","0.0-17.0-1.0-1.0","dd3wpe2el1","","dd3wpe2el1","""2024-11-13T15:31:27.968Z""","817","materials/imgs/D76.png","arrowleft","","[""materials/imgs/D76.png"",""materials/imgs/D78.png""]","","check","materials/imgs/D76.png","0","true"
"","","","","","html-keyboard-response","253","231090","0.0-17.0-2.0-0.0","dd3wpe2el1","","dd3wpe2el1","""2024-11-13T15:31:27.968Z""","null","+","null","","","","","","",""
"","","","","","image-keyboard-response","254","232014","0.0-17.0-2.0-1.0","dd3wpe2el1","","dd3wpe2el1","""2024-11-13T15:31:27.968Z""","923","materials/imgs/D9.png","arrowright","","[""materials/imgs/D103.png"",""materials/imgs/D4.png""]","false","validation","","",""
"","","","","","html-keyboard-response","255","232515","0.0-17.0-2.0-0.1","dd3wpe2el1","","dd3wpe2el1","""2024-11-13T15:31:27.968Z""","null","+","null","","","","","","",""
"","","","","","image-keyboard-response","256","233133","0.0-17.0-2.0-1.1","dd3wpe2el1","","dd3wpe2el1","""2024-11-13T15:31:27.968Z""","616","materials/imgs/D85.png","arrowleft","","[""materials/imgs/D6.png"",""materials/imgs/D111.png""]","false","validation","","",""
"","","","","","html-keyboard-response","257","233635","0.0-17.0-0.1-0.7","dd3wpe2el1","","dd3wpe2el1","""2024-11-13T15:31:27.968Z""","null","+","null","","","","","","",""
"","","","","","image-keyboard-response","258","234642","0.0-17.0-0.1-1.7","dd3wpe2el1","","dd3wpe2el1","""2024-11-13T15:31:27.968Z""","1005","materials/imgs/D79.png","arrowright","","[""materials/imgs/D111.png"",""materials/imgs/D52.png""]","false","random","","",""
"","","","","","html-keyboard-response","259","235144","0.0-17.0-0.1-0.8","dd3wpe2el1","","dd3wpe2el1","""2024-11-13T15:31:27.968Z""","null","+","null","","","","","","",""
"","","","","","image-keyboard-response","260","236246","0.0-17.0-0.1-1.8","dd3wpe2el1","","dd3wpe2el1","""2024-11-13T15:31:27.968Z""","1100","materials/imgs/D80.png","arrowleft","","[""materials/imgs/D51.png"",""materials/imgs/D18.png""]","false","random","","",""
"","","","","","html-keyboard-response","261","236747","0.0-17.0-0.1-0.9","dd3wpe2el1","","dd3wpe2el1","""2024-11-13T15:31:27.968Z""","null","+","null","","","","","","",""
"","","","","","image-keyboard-response","262","237549","0.0-17.0-0.1-1.9","dd3wpe2el1","","dd3wpe2el1","""2024-11-13T15:31:27.968Z""","801","materials/imgs/D55.png","arrowleft","","[""materials/imgs/D11.png"",""materials/imgs/D74.png""]","false","random","","",""
"","","","","","html-keyboard-response","263","238050","0.0-17.0-0.1-0.10","dd3wpe2el1","","dd3wpe2el1","""2024-11-13T15:31:27.968Z""","null","+","null","","","","","","",""
"","","","","","image-keyboard-response","264","238757","0.0-17.0-0.1-1.10","dd3wpe2el1","","dd3wpe2el1","""2024-11-13T15:31:27.968Z""","706","materials/imgs/D6.png","arrowright","","[""materials/imgs/D8.png"",""materials/imgs/D83.png""]","false","random","","",""
"","","","","","html-keyboard-response","265","239259","0.0-17.0-0.1-0.11","dd3wpe2el1","","dd3wpe2el1","""2024-11-13T15:31:27.968Z""","null","+","null","","","","","","",""
"","","","","","image-keyboard-response","266","240301","0.0-17.0-0.1-1.11","dd3wpe2el1","","dd3wpe2el1","""2024-11-13T15:31:27.968Z""","1042","materials/imgs/D106.png","arrowleft","","[""materials/imgs/D3.png"",""materials/imgs/D24.png""]","false","random","","",""
"","","","","","html-keyboard-response","267","240803","0.0-17.0-0.1-0.12","dd3wpe2el1","","dd3wpe2el1","""2024-11-13T15:31:27.968Z""","null","+","null","","","","","","",""
"","","","","","image-keyboard-response","268","241679","0.0-17.0-0.1-1.12","dd3wpe2el1","","dd3wpe2el1","""2024-11-13T15:31:27.968Z""","876","materials/imgs/D9.png","arrowright","","[""materials/imgs/D37.png"",""materials/imgs/D22.png""]","false","random","","",""
"","","","","","html-keyboard-response","269","242181","0.0-17.0-0.1-0.13","dd3wpe2el1","","dd3wpe2el1","""2024-11-13T15:31:27.968Z""","null","+","null","","","","","","",""
"","","","","","image-keyboard-response","270","242956","0.0-17.0-0.1-1.13","dd3wpe2el1","","dd3wpe2el1","""2024-11-13T15:31:27.968Z""","774","materials/imgs/D75.png","arrowright","","[""materials/imgs/D22.png"",""materials/imgs/D18.png""]","false","random","","",""
"","","","","","html-keyboard-response","271","243458","0.0-17.0-1.1-0.1","dd3wpe2el1","","dd3wpe2el1","""2024-11-13T15:31:27.968Z""","null","+","null","","","","","","",""
"","","","","","image-keyboard-response","272","243948","0.0-17.0-1.1-1.1","dd3wpe2el1","","dd3wpe2el1","""2024-11-13T15:31:27.968Z""","489","materials/imgs/D8.png","arrowright","","[""materials/imgs/D18.png"",""materials/imgs/D8.png""]","","check","materials/imgs/D8.png","1","true"
"","","","","","html-keyboard-response","273","244449","0.0-17.0-2.1-0.2","dd3wpe2el1","","dd3wpe2el1","""2024-11-13T15:31:27.968Z""","null","+","null","","","","","","",""
"","","","","","image-keyboard-response","274","246040","0.0-17.0-2.1-1.2","dd3wpe2el1","","dd3wpe2el1","""2024-11-13T15:31:27.968Z""","1589","materials/imgs/D79.png","arrowleft","","[""materials/imgs/D51.png"",""materials/imgs/D64.png""]","false","validation","","",""
"","","","","","html-keyboard-response","275","246541","0.0-17.0-2.1-0.3","dd3wpe2el1","","dd3wpe2el1","""2024-11-13T15:31:27.968Z""","null","+","null","","","","","","",""
"","","","","","image-keyboard-response","276","247335","0.0-17.0-2.1-1.3","dd3wpe2el1","","dd3wpe2el1","""2024-11-13T15:31:27.968Z""","793","materials/imgs/D25.png","arrowright","","[""materials/imgs/D103.png"",""materials/imgs/D64.png""]","false","validation","","",""
"","","","","","html-keyboard-response","277","247836","0.0-17.0-0.2-0.14","dd3wpe2el1","","dd3wpe2el1","""2024-11-13T15:31:27.968Z""","null","+","null","","","","","","",""
"","","","","","image-keyboard-response","278","248442","0.0-17.0-0.2-1.14","dd3wpe2el1","","dd3wpe2el1","""2024-11-13T15:31:27.968Z""","605","materials/imgs/D17.png","arrowright","","[""materials/imgs/D66.png"",""materials/imgs/D4.png""]","false","random","","",""
"","","","","","html-keyboard-response","279","248943","0.0-17.0-0.2-0.15","dd3wpe2el1","","dd3wpe2el1","""2024-11-13T15:31:27.968Z""","null","+","null","","","","","","",""
"","","","","","image-keyboard-response","280","249968","0.0-17.0-0.2-1.15","dd3wpe2el1","","dd3wpe2el1","""2024-11-13T15:31:27.968Z""","1024","materials/imgs/D64.png","arrowleft","","[""materials/imgs/D29.png"",""materials/imgs/D111.png""]","false","random","","",""
"","","","","","html-keyboard-response","281","250469","0.0-17.0-0.2-0.16","dd3wpe2el1","","dd3wpe2el1","""2024-11-13T15:31:27.968Z""","null","+","null","","","","","","",""
"","","","","","image-keyboard-response","282","251305","0.0-17.0-0.2-1.16","dd3wpe2el1","","dd3wpe2el1","""2024-11-13T15:31:27.968Z""","835","materials/imgs/D22.png","arrowright","","[""materials/imgs/D64.png"",""materials/imgs/D84.png""]","false","random","","",""
"","","","","","html-keyboard-response","283","251806","0.0-17.0-0.2-0.17","dd3wpe2el1","","dd3wpe2el1","""2024-11-13T15:31:27.968Z""","null","+","null","","","","","","",""
"","","","","","image-keyboard-response","284","252736","0.0-17.0-0.2-1.17","dd3wpe2el1","","dd3wpe2el1","""2024-11-13T15:31:27.968Z""","928","materials/imgs/D53.png","arrowright","","[""materials/imgs/D46.png"",""materials/imgs/D106.png""]","false","random","","",""
"","","","","","html-keyboard-response","285","253237","0.0-17.0-0.2-0.18","dd3wpe2el1","","dd3wpe2el1","""2024-11-13T15:31:27.968Z""","null","+","null","","","","","","",""
"","","","","","image-keyboard-response","286","254171","0.0-17.0-0.2-1.18","dd3wpe2el1","","dd3wpe2el1","""2024-11-13T15:31:27.968Z""","933","materials/imgs/D25.png","arrowleft","","[""materials/imgs/D94.png"",""materials/imgs/D85.png""]","false","random","","",""
"","","","","","html-keyboard-response","287","254673","0.0-17.0-0.2-0.19","dd3wpe2el1","","dd3wpe2el1","""2024-11-13T15:31:27.968Z""","null","+","null","","","","","","",""
"","","","","","image-keyboard-response","288","256301","0.0-17.0-0.2-1.19","dd3wpe2el1","","dd3wpe2el1","""2024-11-13T15:31:27.968Z""","1627","materials/imgs/D104.png","arrowright","","[""materials/imgs/D24.png"",""materials/imgs/D52.png""]","false","random","","",""
"","","","","","html-keyboard-response","289","256802","0.0-17.0-0.2-0.20","dd3wpe2el1","","dd3wpe2el1","""2024-11-13T15:31:27.968Z""","null","+","null","","","","","","",""
"","","","","","image-keyboard-response","290","257621","0.0-17.0-0.2-1.20","dd3wpe2el1","","dd3wpe2el1","""2024-11-13T15:31:27.968Z""","819","materials/imgs/D22.png","arrowleft","","[""materials/imgs/D52.png"",""materials/imgs/D32.png""]","false","random","","",""
"","","","","","html-keyboard-response","291","258122","0.0-17.0-1.2-0.2","dd3wpe2el1","","dd3wpe2el1","""2024-11-13T15:31:27.968Z""","null","+","null","","","","","","",""
"","","","","","image-keyboard-response","292","258779","0.0-17.0-1.2-1.2","dd3wpe2el1","","dd3wpe2el1","""2024-11-13T15:31:27.968Z""","655","materials/imgs/D78.png","arrowright","","[""materials/imgs/D76.png"",""materials/imgs/D78.png""]","","check","materials/imgs/D78.png","1","true"
"","","","","","html-keyboard-response","293","259280","0.0-17.0-2.2-0.4","dd3wpe2el1","","dd3wpe2el1","""2024-11-13T15:31:27.968Z""","null","+","null","","","","","","",""
"","","","","","image-keyboard-response","294","259923","0.0-17.0-2.2-1.4","dd3wpe2el1","","dd3wpe2el1","""2024-11-13T15:31:27.968Z""","642","materials/imgs/D57.png","arrowright","","[""materials/imgs/D111.png"",""materials/imgs/D4.png""]","false","validation","","",""
"","","","","","html-keyboard-response","295","260425","0.0-17.0-2.2-0.5","dd3wpe2el1","","dd3wpe2el1","""2024-11-13T15:31:27.968Z""","null","+","null","","","","","","",""
"","","","","","image-keyboard-response","296","261813","0.0-17.0-2.2-1.5","dd3wpe2el1","","dd3wpe2el1","""2024-11-13T15:31:27.968Z""","1387","materials/imgs/D81.png","arrowright","","[""materials/imgs/D105.png"",""materials/imgs/D24.png""]","false","validation","","",""
"","","","","","html-keyboard-response","297","262313","0.0-17.0-0.3-0.21","dd3wpe2el1","","dd3wpe2el1","""2024-11-13T15:31:27.968Z""","null","+","null","","","","","","",""
"","","","","","image-keyboard-response","298","263198","0.0-17.0-0.3-1.21","dd3wpe2el1","","dd3wpe2el1","""2024-11-13T15:31:27.968Z""","883","materials/imgs/D106.png","arrowright","","[""materials/imgs/D74.png"",""materials/imgs/D87.png""]","false","random","","",""
"","","","","","html-keyboard-response","299","263699","0.0-17.0-0.3-0.22","dd3wpe2el1","","dd3wpe2el1","""2024-11-13T15:31:27.968Z""","null","+","null","","","","","","",""
"","","","","","image-keyboard-response","300","265364","0.0-17.0-0.3-1.22","dd3wpe2el1","","dd3wpe2el1","""2024-11-13T15:31:27.968Z""","1663","materials/imgs/D51.png","arrowright","","[""materials/imgs/D25.png"",""materials/imgs/D55.png""]","false","random","","",""
"","","","","","html-keyboard-response","301","265865","0.0-17.0-0.3-0.23","dd3wpe2el1","","dd3wpe2el1","""2024-11-13T15:31:27.968Z""","null","+","null","","","","","","",""
"","","","","","image-keyboard-response","302","267058","0.0-17.0-0.3-1.23","dd3wpe2el1","","dd3wpe2el1","""2024-11-13T15:31:27.968Z""","1191","materials/imgs/D32.png","arrowright","","[""materials/imgs/D96.png"",""materials/imgs/D77.png""]","false","random","","",""
"","","","","","html-keyboard-response","303","267559","0.0-17.0-0.3-0.24","dd3wpe2el1","","dd3wpe2el1","""2024-11-13T15:31:27.968Z""","null","+","null","","","","","","",""
"","","","","","image-keyboard-response","304","269690","0.0-17.0-0.3-1.24","dd3wpe2el1","","dd3wpe2el1","""2024-11-13T15:31:27.968Z""","2130","materials/imgs/D35.png","arrowleft","","[""materials/imgs/D79.png"",""materials/imgs/D21.png""]","false","random","","",""
"","","","","","html-keyboard-response","305","270191","0.0-17.0-0.3-0.25","dd3wpe2el1","","dd3wpe2el1","""2024-11-13T15:31:27.968Z""","null","+","null","","","","","","",""
"","","","","","image-keyboard-response","306","271312","0.0-17.0-0.3-1.25","dd3wpe2el1","","dd3wpe2el1","""2024-11-13T15:31:27.968Z""","1120","materials/imgs/D83.png","arrowright","","[""materials/imgs/D20.png"",""materials/imgs/D6.png""]","false","random","","",""
"","","","","","html-keyboard-response","307","271813","0.0-17.0-0.3-0.26","dd3wpe2el1","","dd3wpe2el1","""2024-11-13T15:31:27.968Z""","null","+","null","","","","","","",""
"","","","","","image-keyboard-response","308","273213","0.0-17.0-0.3-1.26","dd3wpe2el1","","dd3wpe2el1","""2024-11-13T15:31:27.968Z""","1398","materials/imgs/D47.png","arrowright","","[""materials/imgs/D48.png"",""materials/imgs/D55.png""]","false","random","","",""
"","","","","","html-keyboard-response","309","273715","0.0-17.0-0.3-0.27","dd3wpe2el1","","dd3wpe2el1","""2024-11-13T15:31:27.968Z""","null","+","null","","","","","","",""
"","","","","","image-keyboard-response","310","274734","0.0-17.0-0.3-1.27","dd3wpe2el1","","dd3wpe2el1","""2024-11-13T15:31:27.968Z""","1019","materials/imgs/D19.png","arrowleft","","[""materials/imgs/D37.png"",""materials/imgs/D57.png""]","false","random","","",""
"","","","","","html-keyboard-response","311","275236","0.0-17.0-1.3-0.3","dd3wpe2el1","","dd3wpe2el1","""2024-11-13T15:31:27.968Z""","null","+","null","","","","","","",""
"","","","","","image-keyboard-response","312","275864","0.0-17.0-1.3-1.3","dd3wpe2el1","","dd3wpe2el1","""2024-11-13T15:31:27.968Z""","627","materials/imgs/D8.png","arrowright","","[""materials/imgs/D18.png"",""materials/imgs/D8.png""]","","check","materials/imgs/D8.png","1","true"
"","","","","","html-keyboard-response","313","276366","0.0-17.0-2.3-0.6","dd3wpe2el1","","dd3wpe2el1","""2024-11-13T15:31:27.968Z""","null","+","null","","","","","","",""
"","","","","","image-keyboard-response","314","278240","0.0-17.0-2.3-1.6","dd3wpe2el1","","dd3wpe2el1","""2024-11-13T15:31:27.968Z""","1872","materials/imgs/D32.png","arrowleft","","[""materials/imgs/D68.png"",""materials/imgs/D96.png""]","false","validation","","",""
"","","","","","html-keyboard-response","315","278741","0.0-17.0-2.3-0.7","dd3wpe2el1","","dd3wpe2el1","""2024-11-13T15:31:27.968Z""","null","+","null","","","","","","",""
"","","","","","image-keyboard-response","316","280187","0.0-17.0-2.3-1.7","dd3wpe2el1","","dd3wpe2el1","""2024-11-13T15:31:27.968Z""","1431","materials/imgs/D1.png","arrowright","","[""materials/imgs/D57.png"",""materials/imgs/D76.png""]","false","validation","","",""
"","","","","","html-keyboard-response","317","280689","0.0-17.0-0.4-0.28","dd3wpe2el1","","dd3wpe2el1","""2024-11-13T15:31:27.968Z""","null","+","null","","","","","","",""
"","","","","","image-keyboard-response","318","281626","0.0-17.0-0.4-1.28","dd3wpe2el1","","dd3wpe2el1","""2024-11-13T15:31:27.968Z""","935","materials/imgs/D55.png","arrowright","","[""materials/imgs/D94.png"",""materials/imgs/D87.png""]","false","random","","",""
"","","","","","html-keyboard-response","319","282127","0.0-17.0-0.4-0.29","dd3wpe2el1","","dd3wpe2el1","""2024-11-13T15:31:27.968Z""","null","+","null","","","","","","",""
"","","","","","image-keyboard-response","320","284482","0.0-17.0-0.4-1.29","dd3wpe2el1","","dd3wpe2el1","""2024-11-13T15:31:27.968Z""","2354","materials/imgs/D68.png","arrowleft","","[""materials/imgs/D96.png"",""materials/imgs/D26.png""]","false","random","","",""
"","","","","","html-keyboard-response","321","284984","0.0-17.0-0.4-0.30","dd3wpe2el1","","dd3wpe2el1","""2024-11-13T15:31:27.968Z""","null","+","null","","","","","","",""
"","","","","","image-keyboard-response","322","285656","0.0-17.0-0.4-1.30","dd3wpe2el1","","dd3wpe2el1","""2024-11-13T15:31:27.968Z""","671","materials/imgs/D16.png","arrowright","","[""materials/imgs/D20.png"",""materials/imgs/D103.png""]","false","random","","",""
"","","","","","html-keyboard-response","323","286157","0.0-17.0-0.4-0.31","dd3wpe2el1","","dd3wpe2el1","""2024-11-13T15:31:27.968Z""","null","+","null","","","","","","",""
"","","","","","image-keyboard-response","324","287254","0.0-17.0-0.4-1.31","dd3wpe2el1","","dd3wpe2el1","""2024-11-13T15:31:27.968Z""","1095","materials/imgs/D78.png","arrowright","","[""materials/imgs/D84.png"",""materials/imgs/D49.png""]","false","random","","",""
"","","","","","html-keyboard-response","325","287756","0.0-17.0-0.4-0.32","dd3wpe2el1","","dd3wpe2el1","""2024-11-13T15:31:27.968Z""","null","+","null","","","","","","",""
"","","","","","image-keyboard-response","326","288594","0.0-17.0-0.4-1.32","dd3wpe2el1","","dd3wpe2el1","""2024-11-13T15:31:27.968Z""","837","materials/imgs/D1.png","arrowright","","[""materials/imgs/D76.png"",""materials/imgs/D56.png""]","false","random","","",""
"","","","","","html-keyboard-response","327","289096","0.0-17.0-0.4-0.33","dd3wpe2el1","","dd3wpe2el1","""2024-11-13T15:31:27.968Z""","null","+","null","","","","","","",""
"","","","","","image-keyboard-response","328","290629","0.0-17.0-0.4-1.33","dd3wpe2el1","","dd3wpe2el1","""2024-11-13T15:31:27.968Z""","1532","materials/imgs/D32.png","arrowright","","[""materials/imgs/D20.png"",""materials/imgs/D101.png""]","false","random","","",""
"","","","","","html-keyboard-response","329","291129","0.0-17.0-0.4-0.34","dd3wpe2el1","","dd3wpe2el1","""2024-11-13T15:31:27.968Z""","null","+","null","","","","","","",""
"","","","","","image-keyboard-response","330","291997","0.0-17.0-0.4-1.34","dd3wpe2el1","","dd3wpe2el1","""2024-11-13T15:31:27.968Z""","866","materials/imgs/D26.png","arrowleft","","[""materials/imgs/D1.png"",""materials/imgs/D35.png""]","false","random","","",""
"","","","","","html-keyboard-response","331","292498","0.0-17.0-1.4-0.4","dd3wpe2el1","","dd3wpe2el1","""2024-11-13T15:31:27.968Z""","null","+","null","","","","","","",""
"","","","","","image-keyboard-response","332","293330","0.0-17.0-1.4-1.4","dd3wpe2el1","","dd3wpe2el1","""2024-11-13T15:31:27.968Z""","831","materials/imgs/D26.png","arrowleft","","[""materials/imgs/D26.png"",""materials/imgs/D46.png""]","","check","materials/imgs/D26.png","0","true"
"","","","","","html-keyboard-response","333","293831","0.0-17.0-2.4-0.8","dd3wpe2el1","","dd3wpe2el1","""2024-11-13T15:31:27.968Z""","null","+","null","","","","","","",""
"","","","","","image-keyboard-response","334","294609","0.0-17.0-2.4-1.8","dd3wpe2el1","","dd3wpe2el1","""2024-11-13T15:31:27.968Z""","777","materials/imgs/D53.png","arrowleft","","[""materials/imgs/D77.png"",""materials/imgs/D75.png""]","false","validation","","",""
"","","","","","html-keyboard-response","335","295110","0.0-17.0-2.4-0.9","dd3wpe2el1","","dd3wpe2el1","""2024-11-13T15:31:27.968Z""","null","+","null","","","","","","",""
"","","","","","image-keyboard-response","336","296551","0.0-17.0-2.4-1.9","dd3wpe2el1","","dd3wpe2el1","""2024-11-13T15:31:27.968Z""","1439","materials/imgs/D8.png","arrowleft","","[""materials/imgs/D101.png"",""materials/imgs/D52.png""]","false","validation","","",""
"","","","","","html-button-response","337","297688","0.0-18.0","dd3wpe2el1","","dd3wpe2el1","""2024-11-13T15:31:27.968Z""","1136","You have completed 75% of the trials. Please click 'Continue' when you are ready proceed.","0","","","","","","",""
"","","","","","html-keyboard-response","338","298189","0.0-19.0-0.0-0.0","dd3wpe2el1","","dd3wpe2el1","""2024-11-13T15:31:27.968Z""","null","+","null","","","","","","",""
"","","","","","image-keyboard-response","339","299038","0.0-19.0-0.0-1.0","dd3wpe2el1","","dd3wpe2el1","""2024-11-13T15:31:27.968Z""","848","materials/imgs/D87.png","arrowright","","[""materials/imgs/D79.png"",""materials/imgs/D18.png""]","false","random","","",""
"","","","","","html-keyboard-response","340","299539","0.0-19.0-0.0-0.1","dd3wpe2el1","","dd3wpe2el1","""2024-11-13T15:31:27.968Z""","null","+","null","","","","","","",""
"","","","","","image-keyboard-response","341","300024","0.0-19.0-0.0-1.1","dd3wpe2el1","","dd3wpe2el1","""2024-11-13T15:31:27.968Z""","483","materials/imgs/D66.png","arrowright","","[""materials/imgs/D76.png"",""materials/imgs/D17.png""]","true","random","","",""
"","","","","","html-keyboard-response","342","301998","0.0-19.0-0.0-2.1-0.1","dd3wpe2el1","","dd3wpe2el1","""2024-11-13T15:31:27.968Z""","1973","<p><strong>You're going too fast.</strong><p>Please slow down and assess each triplet.<p>Press 'y' to continue.</p></p>","y","","","","","","",""
"","","","","","html-keyboard-response","343","302499","0.0-19.0-0.0-0.2","dd3wpe2el1","","dd3wpe2el1","""2024-11-13T15:31:27.968Z""","null","+","null","","","","","","",""
"","","","","","image-keyboard-response","344","303494","0.0-19.0-0.0-1.2","dd3wpe2el1","","dd3wpe2el1","""2024-11-13T15:31:27.968Z""","993","materials/imgs/D51.png","arrowright","","[""materials/imgs/D52.png"",""materials/imgs/D57.png""]","false","random","","",""
"","","","","","html-keyboard-response","345","303995","0.0-19.0-0.0-0.3","dd3wpe2el1","","dd3wpe2el1","""2024-11-13T15:31:27.968Z""","null","+","null","","","","","","",""
"","","","","","image-keyboard-response","346","304739","0.0-19.0-0.0-1.3","dd3wpe2el1","","dd3wpe2el1","""2024-11-13T15:31:27.968Z""","743","materials/imgs/D65.png","arrowleft","","[""materials/imgs/D78.png"",""materials/imgs/D35.png""]","false","random","","",""
"","","","","","html-keyboard-response","347","305241","0.0-19.0-0.0-0.4","dd3wpe2el1","","dd3wpe2el1","""2024-11-13T15:31:27.968Z""","null","+","null","","","","","","",""
"","","","","","image-keyboard-response","348","306299","0.0-19.0-0.0-1.4","dd3wpe2el1","","dd3wpe2el1","""2024-11-13T15:31:27.968Z""","1056","materials/imgs/D9.png","arrowright","","[""materials/imgs/D18.png"",""materials/imgs/D22.png""]","false","random","","",""
"","","","","","html-keyboard-response","349","306800","0.0-19.0-0.0-0.5","dd3wpe2el1","","dd3wpe2el1","""2024-11-13T15:31:27.968Z""","null","+","null","","","","","","",""
"","","","","","image-keyboard-response","350","307733","0.0-19.0-0.0-1.5","dd3wpe2el1","","dd3wpe2el1","""2024-11-13T15:31:27.968Z""","931","materials/imgs/D47.png","arrowleft","","[""materials/imgs/D24.png"",""materials/imgs/D78.png""]","false","random","","",""
"","","","","","html-keyboard-response","351","308234","0.0-19.0-0.0-0.6","dd3wpe2el1","","dd3wpe2el1","""2024-11-13T15:31:27.968Z""","null","+","null","","","","","","",""
"","","","","","image-keyboard-response","352","309553","0.0-19.0-0.0-1.6","dd3wpe2el1","","dd3wpe2el1","""2024-11-13T15:31:27.968Z""","1317","materials/imgs/D85.png","arrowleft","","[""materials/imgs/D20.png"",""materials/imgs/D84.png""]","false","random","","",""
"","","","","","html-keyboard-response","353","310054","0.0-19.0-1.0-0.0","dd3wpe2el1","","dd3wpe2el1","""2024-11-13T15:31:27.968Z""","null","+","null","","","","","","",""
"","","","","","image-keyboard-response","354","310740","0.0-19.0-1.0-1.0","dd3wpe2el1","","dd3wpe2el1","""2024-11-13T15:31:27.968Z""","684","materials/imgs/D106.png","arrowleft","","[""materials/imgs/D106.png"",""materials/imgs/D101.png""]","","check","materials/imgs/D106.png","0","true"
"","","","","","html-keyboard-response","355","311241","0.0-19.0-2.0-0.0","dd3wpe2el1","","dd3wpe2el1","""2024-11-13T15:31:27.968Z""","null","+","null","","","","","","",""
"","","","","","image-keyboard-response","356","312109","0.0-19.0-2.0-1.0","dd3wpe2el1","","dd3wpe2el1","""2024-11-13T15:31:27.968Z""","867","materials/imgs/D79.png","arrowleft","","[""materials/imgs/D51.png"",""materials/imgs/D64.png""]","false","validation","","",""
"","","","","","html-keyboard-response","357","312610","0.0-19.0-2.0-0.1","dd3wpe2el1","","dd3wpe2el1","""2024-11-13T15:31:27.968Z""","null","+","null","","","","","","",""
"","","","","","image-keyboard-response","358","313499","0.0-19.0-2.0-1.1","dd3wpe2el1","","dd3wpe2el1","""2024-11-13T15:31:27.968Z""","888","materials/imgs/D105.png","arrowleft","","[""materials/imgs/D106.png"",""materials/imgs/D52.png""]","false","validation","","",""
"","","","","","html-keyboard-response","359","314000","0.0-19.0-0.1-0.7","dd3wpe2el1","","dd3wpe2el1","""2024-11-13T15:31:27.968Z""","null","+","null","","","","","","",""
"","","","","","image-keyboard-response","360","314855","0.0-19.0-0.1-1.7","dd3wpe2el1","","dd3wpe2el1","""2024-11-13T15:31:27.968Z""","853","materials/imgs/D57.png","arrowright","","[""materials/imgs/D105.png"",""materials/imgs/D14.png""]","false","random","","",""
"","","","","","html-keyboard-response","361","315356","0.0-19.0-0.1-0.8","dd3wpe2el1","","dd3wpe2el1","""2024-11-13T15:31:27.968Z""","null","+","null","","","","","","",""
"","","","","","image-keyboard-response","362","316611","0.0-19.0-0.1-1.8","dd3wpe2el1","","dd3wpe2el1","""2024-11-13T15:31:27.968Z""","1254","materials/imgs/D78.png","arrowleft","","[""materials/imgs/D83.png"",""materials/imgs/D102.png""]","false","random","","",""
"","","","","","html-keyboard-response","363","317112","0.0-19.0-0.1-0.9","dd3wpe2el1","","dd3wpe2el1","""2024-11-13T15:31:27.968Z""","null","+","null","","","","","","",""
"","","","","","image-keyboard-response","364","317802","0.0-19.0-0.1-1.9","dd3wpe2el1","","dd3wpe2el1","""2024-11-13T15:31:27.968Z""","689","materials/imgs/D24.png","arrowright","","[""materials/imgs/D75.png"",""materials/imgs/D32.png""]","false","random","","",""
"","","","","","html-keyboard-response","365","318302","0.0-19.0-0.1-0.10","dd3wpe2el1","","dd3wpe2el1","""2024-11-13T15:31:27.968Z""","null","+","null","","","","","","",""
"","","","","","image-keyboard-response","366","319363","0.0-19.0-0.1-1.10","dd3wpe2el1","","dd3wpe2el1","""2024-11-13T15:31:27.968Z""","1060","materials/imgs/D104.png","arrowleft","","[""materials/imgs/D4.png"",""materials/imgs/D32.png""]","false","random","","",""
"","","","","","html-keyboard-response","367","319865","0.0-19.0-0.1-0.11","dd3wpe2el1","","dd3wpe2el1","""2024-11-13T15:31:27.968Z""","null","+","null","","","","","","",""
"","","","","","image-keyboard-response","368","320704","0.0-19.0-0.1-1.11","dd3wpe2el1","","dd3wpe2el1","""2024-11-13T15:31:27.968Z""","838","materials/imgs/D94.png","arrowleft","","[""materials/imgs/D106.png"",""materials/imgs/D6.png""]","false","random","","",""
"","","","","","html-keyboard-response","369","321205","0.0-19.0-0.1-0.12","dd3wpe2el1","","dd3wpe2el1","""2024-11-13T15:31:27.968Z""","null","+","null","","","","","","",""
"","","","","","image-keyboard-response","370","322744","0.0-19.0-0.1-1.12","dd3wpe2el1","","dd3wpe2el1","""2024-11-13T15:31:27.968Z""","1538","materials/imgs/D17.png","arrowright","","[""materials/imgs/D36.png"",""materials/imgs/D24.png""]","false","random","","",""
"","","","","","html-keyboard-response","371","323246","0.0-19.0-0.1-0.13","dd3wpe2el1","","dd3wpe2el1","""2024-11-13T15:31:27.968Z""","null","+","null","","","","","","",""
"","","","","","image-keyboard-response","372","324270","0.0-19.0-0.1-1.13","dd3wpe2el1","","dd3wpe2el1","""2024-11-13T15:31:27.968Z""","1022","materials/imgs/D32.png","arrowright","","[""materials/imgs/D102.png"",""materials/imgs/D34.png""]","false","random","","",""
"","","","","","html-keyboard-response","373","324771","0.0-19.0-1.1-0.1","dd3wpe2el1","","dd3wpe2el1","""2024-11-13T15:31:27.968Z""","null","+","null","","","","","","",""
"","","","","","image-keyboard-response","374","325432","0.0-19.0-1.1-1.1","dd3wpe2el1","","dd3wpe2el1","""2024-11-13T15:31:27.968Z""","661","materials/imgs/D64.png","arrowleft","","[""materials/imgs/D64.png"",""materials/imgs/D53.png""]","","check","materials/imgs/D64.png","0","true"
"","","","","","html-keyboard-response","375","325934","0.0-19.0-2.1-0.2","dd3wpe2el1","","dd3wpe2el1","""2024-11-13T15:31:27.968Z""","null","+","null","","","","","","",""
"","","","","","image-keyboard-response","376","327275","0.0-19.0-2.1-1.2","dd3wpe2el1","","dd3wpe2el1","""2024-11-13T15:31:27.968Z""","1340","materials/imgs/D111.png","arrowleft","","[""materials/imgs/D82.png"",""materials/imgs/D95.png""]","false","validation","","",""
"","","","","","html-keyboard-response","377","327776","0.0-19.0-2.1-0.3","dd3wpe2el1","","dd3wpe2el1","""2024-11-13T15:31:27.968Z""","null","+","null","","","","","","",""
"","","","","","image-keyboard-response","378","328882","0.0-19.0-2.1-1.3","dd3wpe2el1","","dd3wpe2el1","""2024-11-13T15:31:27.968Z""","1104","materials/imgs/D83.png","arrowright","","[""materials/imgs/D24.png"",""materials/imgs/D8.png""]","false","validation","","",""
"","","","","","html-keyboard-response","379","329383","0.0-19.0-0.2-0.14","dd3wpe2el1","","dd3wpe2el1","""2024-11-13T15:31:27.968Z""","null","+","null","","","","","","",""
"","","","","","image-keyboard-response","380","330335","0.0-19.0-0.2-1.14","dd3wpe2el1","","dd3wpe2el1","""2024-11-13T15:31:27.968Z""","951","materials/imgs/D66.png","arrowleft","","[""materials/imgs/D83.png"",""materials/imgs/D20.png""]","false","random","","",""
"","","","","","html-keyboard-response","381","330836","0.0-19.0-0.2-0.15","dd3wpe2el1","","dd3wpe2el1","""2024-11-13T15:31:27.968Z""","null","+","null","","","","","","",""
"","","","","","image-keyboard-response","382","331831","0.0-19.0-0.2-1.15","dd3wpe2el1","","dd3wpe2el1","""2024-11-13T15:31:27.968Z""","994","materials/imgs/D37.png","arrowleft","","[""materials/imgs/D51.png"",""materials/imgs/D22.png""]","false","random","","",""
"","","","","","html-keyboard-response","383","332332","0.0-19.0-0.2-0.16","dd3wpe2el1","","dd3wpe2el1","""2024-11-13T15:31:27.968Z""","null","+","null","","","","","","",""
"","","","","","image-keyboard-response","384","333318","0.0-19.0-0.2-1.16","dd3wpe2el1","","dd3wpe2el1","""2024-11-13T15:31:27.968Z""","986","materials/imgs/D80.png","arrowleft","","[""materials/imgs/D16.png"",""materials/imgs/D18.png""]","false","random","","",""
"","","","","","html-keyboard-response","385","333819","0.0-19.0-0.2-0.17","dd3wpe2el1","","dd3wpe2el1","""2024-11-13T15:31:27.968Z""","null","+","null","","","","","","",""
"","","","","","image-keyboard-response","386","334691","0.0-19.0-0.2-1.17","dd3wpe2el1","","dd3wpe2el1","""2024-11-13T15:31:27.968Z""","870","materials/imgs/D51.png","arrowright","","[""materials/imgs/D46.png"",""materials/imgs/D48.png""]","false","random","","",""
"","","","","","html-keyboard-response","387","335192","0.0-19.0-0.2-0.18","dd3wpe2el1","","dd3wpe2el1","""2024-11-13T15:31:27.968Z""","null","+","null","","","","","","",""
"","","","","","image-keyboard-response","388","335993","0.0-19.0-0.2-1.18","dd3wpe2el1","","dd3wpe2el1","""2024-11-13T15:31:27.968Z""","799","materials/imgs/D94.png","arrowleft","","[""materials/imgs/D82.png"",""materials/imgs/D32.png""]","false","random","","",""
"","","","","","html-keyboard-response","389","336494","0.0-19.0-0.2-0.19","dd3wpe2el1","","dd3wpe2el1","""2024-11-13T15:31:27.968Z""","null","+","null","","","","","","",""
"","","","","","image-keyboard-response","390","337797","0.0-19.0-0.2-1.19","dd3wpe2el1","","dd3wpe2el1","""2024-11-13T15:31:27.968Z""","1302","materials/imgs/D77.png","arrowright","","[""materials/imgs/D94.png"",""materials/imgs/D68.png""]","false","random","","",""
"","","","","","html-keyboard-response","391","338298","0.0-19.0-0.2-0.20","dd3wpe2el1","","dd3wpe2el1","""2024-11-13T15:31:27.968Z""","null","+","null","","","","","","",""
"","","","","","image-keyboard-response","392","339513","0.0-19.0-0.2-1.20","dd3wpe2el1","","dd3wpe2el1","""2024-11-13T15:31:27.968Z""","1213","materials/imgs/D87.png","arrowleft","","[""materials/imgs/D95.png"",""materials/imgs/D14.png""]","false","random","","",""
"","","","","","html-keyboard-response","393","340013","0.0-19.0-1.2-0.2","dd3wpe2el1","","dd3wpe2el1","""2024-11-13T15:31:27.968Z""","null","+","null","","","","","","",""
"","","","","","image-keyboard-response","394","340785","0.0-19.0-1.2-1.2","dd3wpe2el1","","dd3wpe2el1","""2024-11-13T15:31:27.968Z""","771","materials/imgs/D106.png","arrowleft","","[""materials/imgs/D106.png"",""materials/imgs/D101.png""]","","check","materials/imgs/D106.png","0","true"
"","","","","","html-keyboard-response","395","341287","0.0-19.0-2.2-0.4","dd3wpe2el1","","dd3wpe2el1","""2024-11-13T15:31:27.968Z""","null","+","null","","","","","","",""
"","","","","","image-keyboard-response","396","342069","0.0-19.0-2.2-1.4","dd3wpe2el1","","dd3wpe2el1","""2024-11-13T15:31:27.968Z""","781","materials/imgs/D46.png","arrowleft","","[""materials/imgs/D92.png"",""materials/imgs/D77.png""]","false","validation","","",""
"","","","","","html-keyboard-response","397","342571","0.0-19.0-2.2-0.5","dd3wpe2el1","","dd3wpe2el1","""2024-11-13T15:31:27.968Z""","null","+","null","","","","","","",""
"","","","","","image-keyboard-response","398","344134","0.0-19.0-2.2-1.5","dd3wpe2el1","","dd3wpe2el1","""2024-11-13T15:31:27.968Z""","1562","materials/imgs/D66.png","arrowleft","","[""materials/imgs/D85.png"",""materials/imgs/D25.png""]","false","validation","","",""
"","","","","","html-keyboard-response","399","344635","0.0-19.0-0.3-0.21","dd3wpe2el1","","dd3wpe2el1","""2024-11-13T15:31:27.968Z""","null","+","null","","","","","","",""
"","","","","","image-keyboard-response","400","345765","0.0-19.0-0.3-1.21","dd3wpe2el1","","dd3wpe2el1","""2024-11-13T15:31:27.968Z""","1129","materials/imgs/D75.png","arrowleft","","[""materials/imgs/D21.png"",""materials/imgs/D6.png""]","false","random","","",""
"","","","","","html-keyboard-response","401","346266","0.0-19.0-0.3-0.22","dd3wpe2el1","","dd3wpe2el1","""2024-11-13T15:31:27.968Z""","null","+","null","","","","","","",""
"","","","","","image-keyboard-response","402","347089","0.0-19.0-0.3-1.22","dd3wpe2el1","","dd3wpe2el1","""2024-11-13T15:31:27.968Z""","821","materials/imgs/D80.png","arrowleft","","[""materials/imgs/D16.png"",""materials/imgs/D64.png""]","false","random","","",""
"","","","","","html-keyboard-response","403","347590","0.0-19.0-0.3-0.23","dd3wpe2el1","","dd3wpe2el1","""2024-11-13T15:31:27.968Z""","null","+","null","","","","","","",""
"","","","","","image-keyboard-response","404","348688","0.0-19.0-0.3-1.23","dd3wpe2el1","","dd3wpe2el1","""2024-11-13T15:31:27.968Z""","1096","materials/imgs/D64.png","arrowright","","[""materials/imgs/D75.png"",""materials/imgs/D34.png""]","false","random","","",""
"","","","","","html-keyboard-response","405","349189","0.0-19.0-0.3-0.24","dd3wpe2el1","","dd3wpe2el1","""2024-11-13T15:31:27.968Z""","null","+","null","","","","","","",""
"","","","","","image-keyboard-response","406","350284","0.0-19.0-0.3-1.24","dd3wpe2el1","","dd3wpe2el1","""2024-11-13T15:31:27.968Z""","1094","materials/imgs/D48.png","arrowleft","","[""materials/imgs/D47.png"",""materials/imgs/D9.png""]","false","random","","",""
"","","","","","html-keyboard-response","407","350786","0.0-19.0-0.3-0.25","dd3wpe2el1","","dd3wpe2el1","""2024-11-13T15:31:27.968Z""","null","+","null","","","","","","",""
"","","","","","image-keyboard-response","408","351947","0.0-19.0-0.3-1.25","dd3wpe2el1","","dd3wpe2el1","""2024-11-13T15:31:27.968Z""","1159","materials/imgs/D77.png","arrowleft","","[""materials/imgs/D76.png"",""materials/imgs/D105.png""]","false","random","","",""
"","","","","","html-keyboard-response","409","352448","0.0-19.0-0.3-0.26","dd3wpe2el1","","dd3wpe2el1","""2024-11-13T15:31:27.968Z""","null","+","null","","","","","","",""
"","","","","","image-keyboard-response","410","353365","0.0-19.0-0.3-1.26","dd3wpe2el1","","dd3wpe2el1","""2024-11-13T15:31:27.968Z""","916","materials/imgs/D51.png","arrowleft","","[""materials/imgs/D77.png"",""materials/imgs/D14.png""]","false","random","","",""
"","","","","","html-keyboard-response","411","353867","0.0-19.0-0.3-0.27","dd3wpe2el1","","dd3wpe2el1","""2024-11-13T15:31:27.968Z""","null","+","null","","","","","","",""
"","","","","","image-keyboard-response","412","354927","0.0-19.0-0.3-1.27","dd3wpe2el1","","dd3wpe2el1","""2024-11-13T15:31:27.968Z""","1059","materials/imgs/D80.png","arrowleft","","[""materials/imgs/D77.png"",""materials/imgs/D17.png""]","false","random","","",""
"","","","","","html-keyboard-response","413","355428","0.0-19.0-1.3-0.3","dd3wpe2el1","","dd3wpe2el1","""2024-11-13T15:31:27.968Z""","null","+","null","","","","","","",""
"","","","","","image-keyboard-response","414","356227","0.0-19.0-1.3-1.3","dd3wpe2el1","","dd3wpe2el1","""2024-11-13T15:31:27.968Z""","798","materials/imgs/D78.png","arrowright","","[""materials/imgs/D76.png"",""materials/imgs/D78.png""]","","check","materials/imgs/D78.png","1","true"
"","","","","","html-keyboard-response","415","356729","0.0-19.0-2.3-0.6","dd3wpe2el1","","dd3wpe2el1","""2024-11-13T15:31:27.968Z""","null","+","null","","","","","","",""
"","","","","","image-keyboard-response","416","357803","0.0-19.0-2.3-1.6","dd3wpe2el1","","dd3wpe2el1","""2024-11-13T15:31:27.968Z""","1073","materials/imgs/D84.png","arrowright","","[""materials/imgs/D106.png"",""materials/imgs/D37.png""]","false","validation","","",""
"","","","","","html-keyboard-response","417","358304","0.0-19.0-2.3-0.7","dd3wpe2el1","","dd3wpe2el1","""2024-11-13T15:31:27.968Z""","null","+","null","","","","","","",""
"","","","","","image-keyboard-response","418","359712","0.0-19.0-2.3-1.7","dd3wpe2el1","","dd3wpe2el1","""2024-11-13T15:31:27.968Z""","1406","materials/imgs/D96.png","arrowright","","[""materials/imgs/D46.png"",""materials/imgs/D18.png""]","false","validation","","",""
"","","","","","html-keyboard-response","419","360213","0.0-19.0-0.4-0.28","dd3wpe2el1","","dd3wpe2el1","""2024-11-13T15:31:27.968Z""","null","+","null","","","","","","",""
"","","","","","image-keyboard-response","420","361445","0.0-19.0-0.4-1.28","dd3wpe2el1","","dd3wpe2el1","""2024-11-13T15:31:27.968Z""","1231","materials/imgs/D95.png","arrowleft","","[""materials/imgs/D103.png"",""materials/imgs/D74.png""]","false","random","","",""
"","","","","","html-keyboard-response","421","361947","0.0-19.0-0.4-0.29","dd3wpe2el1","","dd3wpe2el1","""2024-11-13T15:31:27.968Z""","null","+","null","","","","","","",""
"","","","","","image-keyboard-response","422","362898","0.0-19.0-0.4-1.29","dd3wpe2el1","","dd3wpe2el1","""2024-11-13T15:31:27.968Z""","951","materials/imgs/D17.png","arrowleft","","[""materials/imgs/D79.png"",""materials/imgs/D111.png""]","false","random","","",""
"","","","","","html-keyboard-response","423","363400","0.0-19.0-0.4-0.30","dd3wpe2el1","","dd3wpe2el1","""2024-11-13T15:31:27.968Z""","null","+","null","","","","","","",""
"","","","","","image-keyboard-response","424","364295","0.0-19.0-0.4-1.30","dd3wpe2el1","","dd3wpe2el1","""2024-11-13T15:31:27.968Z""","894","materials/imgs/D26.png","arrowright","","[""materials/imgs/D3.png"",""materials/imgs/D87.png""]","false","random","","",""
"","","","","","html-keyboard-response","425","364796","0.0-19.0-0.4-0.31","dd3wpe2el1","","dd3wpe2el1","""2024-11-13T15:31:27.968Z""","null","+","null","","","","","","",""
"","","","","","image-keyboard-response","426","365426","0.0-19.0-0.4-1.31","dd3wpe2el1","","dd3wpe2el1","""2024-11-13T15:31:27.968Z""","628","materials/imgs/D111.png","arrowleft","","[""materials/imgs/D35.png"",""materials/imgs/D64.png""]","false","random","","",""
"","","","","","html-keyboard-response","427","365927","0.0-19.0-0.4-0.32","dd3wpe2el1","","dd3wpe2el1","""2024-11-13T15:31:27.968Z""","null","+","null","","","","","","",""
"","","","","","image-keyboard-response","428","366709","0.0-19.0-0.4-1.32","dd3wpe2el1","","dd3wpe2el1","""2024-11-13T15:31:27.968Z""","781","materials/imgs/D84.png","arrowright","","[""materials/imgs/D101.png"",""materials/imgs/D19.png""]","false","random","","",""
"","","","","","html-keyboard-response","429","367210","0.0-19.0-0.4-0.33","dd3wpe2el1","","dd3wpe2el1","""2024-11-13T15:31:27.968Z""","null","+","null","","","","","","",""
"","","","","","image-keyboard-response","430","368038","0.0-19.0-0.4-1.33","dd3wpe2el1","","dd3wpe2el1","""2024-11-13T15:31:27.968Z""","826","materials/imgs/D25.png","arrowright","","[""materials/imgs/D111.png"",""materials/imgs/D96.png""]","false","random","","",""
"","","","","","html-keyboard-response","431","368539","0.0-19.0-0.4-0.34","dd3wpe2el1","","dd3wpe2el1","""2024-11-13T15:31:27.968Z""","null","+","null","","","","","","",""
"","","","","","image-keyboard-response","432","369332","0.0-19.0-0.4-1.34","dd3wpe2el1","","dd3wpe2el1","""2024-11-13T15:31:27.968Z""","791","materials/imgs/D47.png","arrowleft","","[""materials/imgs/D3.png"",""materials/imgs/D102.png""]","false","random","","",""
"","","","","","html-keyboard-response","433","369832","0.0-19.0-1.4-0.4","dd3wpe2el1","","dd3wpe2el1","""2024-11-13T15:31:27.968Z""","null","+","null","","","","","","",""
"","","","","","image-keyboard-response","434","370656","0.0-19.0-1.4-1.4","dd3wpe2el1","","dd3wpe2el1","""2024-11-13T15:31:27.968Z""","823","materials/imgs/D78.png","arrowright","","[""materials/imgs/D76.png"",""materials/imgs/D78.png""]","","check","materials/imgs/D78.png","1","true"
"","","","","","html-keyboard-response","435","371158","0.0-19.0-2.4-0.8","dd3wpe2el1","","dd3wpe2el1","""2024-11-13T15:31:27.968Z""","null","+","null","","","","","","",""
"","","","","","image-keyboard-response","436","372140","0.0-19.0-2.4-1.8","dd3wpe2el1","","dd3wpe2el1","""2024-11-13T15:31:27.968Z""","981","materials/imgs/D106.png","arrowright","","[""materials/imgs/D57.png"",""materials/imgs/D18.png""]","false","validation","","",""
"","","","","","html-keyboard-response","437","372642","0.0-19.0-2.4-0.9","dd3wpe2el1","","dd3wpe2el1","""2024-11-13T15:31:27.968Z""","null","+","null","","","","","","",""
"","","","","","image-keyboard-response","438","373558","0.0-19.0-2.4-1.9","dd3wpe2el1","","dd3wpe2el1","""2024-11-13T15:31:27.968Z""","915","materials/imgs/D92.png","arrowright","","[""materials/imgs/D56.png"",""materials/imgs/D77.png""]","false","validation","","",""
