"success","timeout","failed_images","failed_audio","failed_video","trial_type","trial_index","time_elapsed","internal_node_id","subject_id","sona_id","subjectID","dateInfo","rt","stimulus","response","question_order","choices","speedy","sampleAlg","selected_image","selected_index","correct"
"true","false","[]","[]","[]","preload","0","1435","0.0-0.0","ddw1o2jalo","","ddw1o2jalo","""2024-11-12T18:35:24.387Z""","","","","","","","","","",""
"true","","","","","fullscreen","1","8615","0.0-1.0","ddw1o2jalo","","ddw1o2jalo","""2024-11-12T18:35:24.387Z""","","","","","","","","","",""
"","","","","","html-keyboard-response","2","8630","0.0-2.0","ddw1o2jalo","","ddw1o2jalo","""2024-11-12T18:35:24.387Z""","null","","null","","","","","","",""
"","","","","","html-button-response","3","11229","0.0-3.0","ddw1o2jalo","","ddw1o2jalo","""2024-11-12T18:35:24.387Z""","2597","<div style='text-align:center; font-size:20px; line-height:25px; width: 1200px;'>
                Welcome to our experiment! <br>
                <br>At the bottom of this screen, you will see a button that says 'Begin Experiment.
                <br>Please only click that button when you are ready to complete the 25 minute experiment in one sitting. <br>
                <br> Once you click that button, it will not be possible to restart the experiment. <br><br>","0","","","","","","",""
"true","","","","","fullscreen","4","47518","0.0-4.0","ddw1o2jalo","","ddw1o2jalo","""2024-11-12T18:35:24.387Z""","","","","","","","","","",""
"","","","","","survey-multi-select","5","86867","0.0-5.0","ddw1o2jalo","","ddw1o2jalo","""2024-11-12T18:35:24.387Z""","39346","","{""Consent"":[""<strong>I consent</strong>""]}","[0]","","","","","",""
"","","","","","html-button-response","6","87970","0.0-6.0","ddw1o2jalo","","ddw1o2jalo","""2024-11-12T18:35:24.387Z""","1102","Welcome! <p> This experiment involves two parts: demographic information, followed by the experimental task.<p> It will take about 25 minutes to complete both parts.","0","","","","","","",""
"","","","","","survey-text","7","98195","0.0-7.0","ddw1o2jalo","","ddw1o2jalo","""2024-11-12T18:35:24.387Z""","10221","","{""Age"":""18"",""Gender"":""Female"",""Race/ethnicity"":""Asian American""}","","","","","","",""
"","","","","","html-button-response","8","121062","0.0-8.0","ddw1o2jalo","","ddw1o2jalo","""2024-11-12T18:35:24.387Z""","22864","<div style='text-align: center;'>
      <p>In each trial of this task, you will see three texture images: one target item on top, and two choices beneath the target item.</p>
      <p><strong>Please select the item that is most like the target item.</strong></p>
      <p>To select the option on the <strong>LEFT</strong>, press the <strong>LEFT ARROW</strong> key. 
      To select the option on the <strong>RIGHT</strong>, press the <strong>RIGHT ARROW</strong> key.</p>
                  <!-- Target Image at the Top -->
      <div style='margin: 20px;'>
        <img src='materials/imgs/instruction_images/InstructionImg1D78.png' alt='Target Image' style='width:200px; height:auto;' />
        <p><em>Target Image</em></p>
      </div>

      <!-- Two Choice Images Below -->
      <div style='display: flex; justify-content: center;'>
        <div style='margin-right: 50px;'>
          <img src='materials/imgs/instruction_images/InstructionImg2D34.png' alt='Choice Image 1' style='width:150px; height:auto;' />
          <p><em><strong>LEFT ARROW</strong></em></p>
        </div>
        <div style='margin-left: 50px;'>
          <img src='materials/imgs/instruction_images/InstructionImg3D80.png' alt='Choice Image 2' style='width:150px; height:auto;' />
          <p><em><strong>RIGHT ARROW</strong></em></p>
        </div>
      </div>
    </div>

      <p>When you are ready to proceed, please click 'Continue' to begin practice.</p>","0","","","","","","",""
"","","","","","html-keyboard-response","9","123586","0.0-9.0","ddw1o2jalo","","ddw1o2jalo","""2024-11-12T18:35:24.387Z""","null","+","null","","","","","","",""
"","","","","","html-keyboard-response","10","124102","0.0-10.0-0.0-0.0","ddw1o2jalo","","ddw1o2jalo","""2024-11-12T18:35:24.387Z""","null","+","null","","","","","","",""
"","","","","","image-keyboard-response","11","125914","0.0-10.0-0.0-1.0","ddw1o2jalo","","ddw1o2jalo","""2024-11-12T18:35:24.387Z""","1807","materials/imgs/D16.png","arrowleft","","[""materials/imgs/D29.png"",""materials/imgs/D102.png""]","false","random","","",""
"","","","","","html-keyboard-response","12","126423","0.0-10.0-0.0-0.1","ddw1o2jalo","","ddw1o2jalo","""2024-11-12T18:35:24.387Z""","null","+","null","","","","","","",""
"","","","","","image-keyboard-response","13","128258","0.0-10.0-0.0-1.1","ddw1o2jalo","","ddw1o2jalo","""2024-11-12T18:35:24.387Z""","1833","materials/imgs/D35.png","arrowleft","","[""materials/imgs/D14.png"",""materials/imgs/D18.png""]","false","random","","",""
"","","","","","html-keyboard-response","14","128759","0.0-10.0-0.0-0.2","ddw1o2jalo","","ddw1o2jalo","""2024-11-12T18:35:24.387Z""","null","+","null","","","","","","",""
"","","","","","image-keyboard-response","15","130137","0.0-10.0-0.0-1.2","ddw1o2jalo","","ddw1o2jalo","""2024-11-12T18:35:24.387Z""","1376","materials/imgs/D111.png","arrowleft","","[""materials/imgs/D101.png"",""materials/imgs/D57.png""]","false","random","","",""
"","","","","","html-keyboard-response","16","130640","0.0-10.0-0.0-0.3","ddw1o2jalo","","ddw1o2jalo","""2024-11-12T18:35:24.387Z""","null","+","null","","","","","","",""
"","","","","","image-keyboard-response","17","133387","0.0-10.0-0.0-1.3","ddw1o2jalo","","ddw1o2jalo","""2024-11-12T18:35:24.387Z""","2745","materials/imgs/D16.png","arrowright","","[""materials/imgs/D102.png"",""materials/imgs/D22.png""]","false","random","","",""
"","","","","","html-keyboard-response","18","133894","0.0-10.0-0.0-0.4","ddw1o2jalo","","ddw1o2jalo","""2024-11-12T18:35:24.387Z""","null","+","null","","","","","","",""
"","","","","","image-keyboard-response","19","135463","0.0-10.0-0.0-1.4","ddw1o2jalo","","ddw1o2jalo","""2024-11-12T18:35:24.387Z""","1567","materials/imgs/D68.png","arrowright","","[""materials/imgs/D83.png"",""materials/imgs/D49.png""]","false","random","","",""
"","","","","","html-keyboard-response","20","135975","0.0-10.0-0.0-0.5","ddw1o2jalo","","ddw1o2jalo","""2024-11-12T18:35:24.387Z""","null","+","null","","","","","","",""
"","","","","","image-keyboard-response","21","139627","0.0-10.0-0.0-1.5","ddw1o2jalo","","ddw1o2jalo","""2024-11-12T18:35:24.387Z""","3651","materials/imgs/D29.png","arrowright","","[""materials/imgs/D49.png"",""materials/imgs/D64.png""]","false","random","","",""
"","","","","","html-keyboard-response","22","140143","0.0-10.0-0.0-0.6","ddw1o2jalo","","ddw1o2jalo","""2024-11-12T18:35:24.387Z""","null","+","null","","","","","","",""
"","","","","","image-keyboard-response","23","141566","0.0-10.0-0.0-1.6","ddw1o2jalo","","ddw1o2jalo","""2024-11-12T18:35:24.387Z""","1421","materials/imgs/D82.png","arrowright","","[""materials/imgs/D11.png"",""materials/imgs/D92.png""]","false","random","","",""
"","","","","","html-keyboard-response","24","142078","0.0-10.0-0.0-0.7","ddw1o2jalo","","ddw1o2jalo","""2024-11-12T18:35:24.387Z""","null","+","null","","","","","","",""
"","","","","","image-keyboard-response","25","143440","0.0-10.0-0.0-1.7","ddw1o2jalo","","ddw1o2jalo","""2024-11-12T18:35:24.387Z""","1360","materials/imgs/D103.png","arrowright","","[""materials/imgs/D29.png"",""materials/imgs/D20.png""]","false","random","","",""
"","","","","","html-keyboard-response","26","143946","0.0-10.0-0.0-0.8","ddw1o2jalo","","ddw1o2jalo","""2024-11-12T18:35:24.387Z""","null","+","null","","","","","","",""
"","","","","","image-keyboard-response","27","145104","0.0-10.0-0.0-1.8","ddw1o2jalo","","ddw1o2jalo","""2024-11-12T18:35:24.387Z""","1156","materials/imgs/D78.png","arrowright","","[""materials/imgs/D96.png"",""materials/imgs/D68.png""]","false","random","","",""
"","","","","","html-keyboard-response","28","145613","0.0-10.0-0.0-0.9","ddw1o2jalo","","ddw1o2jalo","""2024-11-12T18:35:24.387Z""","null","+","null","","","","","","",""
"","","","","","image-keyboard-response","29","147744","0.0-10.0-0.0-1.9","ddw1o2jalo","","ddw1o2jalo","""2024-11-12T18:35:24.387Z""","2129","materials/imgs/D46.png","arrowright","","[""materials/imgs/D95.png"",""materials/imgs/D64.png""]","false","random","","",""
"","","","","","html-button-response","30","151975","0.0-11.0","ddw1o2jalo","","ddw1o2jalo","""2024-11-12T18:35:24.387Z""","4230","<p>Great job!</p>
      <p>You are now ready to begin the experiment.</p>
      <p>There will be around 200 trials. You will have opportunities to take breaks at three stages of the trials.</p>
      <p>When you are ready to begin please click 'Continue'.</p>","0","","","","","","",""
"","","","","","html-keyboard-response","31","154503","0.0-12.0","ddw1o2jalo","","ddw1o2jalo","""2024-11-12T18:35:24.387Z""","null","+","null","","","","","","",""
"","","","","","html-keyboard-response","32","155016","0.0-13.0-0.0-0.0","ddw1o2jalo","","ddw1o2jalo","""2024-11-12T18:35:24.387Z""","null","+","null","","","","","","",""
"","","","","","image-keyboard-response","33","156735","0.0-13.0-0.0-1.0","ddw1o2jalo","","ddw1o2jalo","""2024-11-12T18:35:24.387Z""","1717","materials/imgs/D68.png","arrowleft","","[""materials/imgs/D84.png"",""materials/imgs/D20.png""]","false","random","","",""
"","","","","","html-keyboard-response","34","157237","0.0-13.0-0.0-0.1","ddw1o2jalo","","ddw1o2jalo","""2024-11-12T18:35:24.387Z""","null","+","null","","","","","","",""
"","","","","","image-keyboard-response","35","158952","0.0-13.0-0.0-1.1","ddw1o2jalo","","ddw1o2jalo","""2024-11-12T18:35:24.387Z""","1712","materials/imgs/D96.png","arrowright","","[""materials/imgs/D75.png"",""materials/imgs/D8.png""]","false","random","","",""
"","","","","","html-keyboard-response","36","159459","0.0-13.0-0.0-0.2","ddw1o2jalo","","ddw1o2jalo","""2024-11-12T18:35:24.387Z""","null","+","null","","","","","","",""
"","","","","","image-keyboard-response","37","160620","0.0-13.0-0.0-1.2","ddw1o2jalo","","ddw1o2jalo","""2024-11-12T18:35:24.387Z""","1160","materials/imgs/D53.png","arrowright","","[""materials/imgs/D94.png"",""materials/imgs/D106.png""]","false","random","","",""
"","","","","","html-keyboard-response","38","161124","0.0-13.0-0.0-0.3","ddw1o2jalo","","ddw1o2jalo","""2024-11-12T18:35:24.387Z""","null","+","null","","","","","","",""
"","","","","","image-keyboard-response","39","162244","0.0-13.0-0.0-1.3","ddw1o2jalo","","ddw1o2jalo","""2024-11-12T18:35:24.387Z""","1118","materials/imgs/D46.png","arrowright","","[""materials/imgs/D79.png"",""materials/imgs/D82.png""]","false","random","","",""
"","","","","","html-keyboard-response","40","162755","0.0-13.0-0.0-0.4","ddw1o2jalo","","ddw1o2jalo","""2024-11-12T18:35:24.387Z""","null","+","null","","","","","","",""
"","","","","","image-keyboard-response","41","163832","0.0-13.0-0.0-1.4","ddw1o2jalo","","ddw1o2jalo","""2024-11-12T18:35:24.387Z""","1074","materials/imgs/D83.png","arrowleft","","[""materials/imgs/D95.png"",""materials/imgs/D34.png""]","false","random","","",""
"","","","","","html-keyboard-response","42","164347","0.0-13.0-0.0-0.5","ddw1o2jalo","","ddw1o2jalo","""2024-11-12T18:35:24.387Z""","null","+","null","","","","","","",""
"","","","","","image-keyboard-response","43","165949","0.0-13.0-0.0-1.5","ddw1o2jalo","","ddw1o2jalo","""2024-11-12T18:35:24.387Z""","1600","materials/imgs/D96.png","arrowleft","","[""materials/imgs/D75.png"",""materials/imgs/D32.png""]","false","random","","",""
"","","","","","html-keyboard-response","44","166458","0.0-13.0-0.0-0.6","ddw1o2jalo","","ddw1o2jalo","""2024-11-12T18:35:24.387Z""","null","+","null","","","","","","",""
"","","","","","image-keyboard-response","45","167433","0.0-13.0-0.0-1.6","ddw1o2jalo","","ddw1o2jalo","""2024-11-12T18:35:24.387Z""","973","materials/imgs/D22.png","arrowleft","","[""materials/imgs/D55.png"",""materials/imgs/D94.png""]","false","random","","",""
"","","","","","html-keyboard-response","46","167940","0.0-13.0-1.0-0.0","ddw1o2jalo","","ddw1o2jalo","""2024-11-12T18:35:24.387Z""","null","+","null","","","","","","",""
"","","","","","image-keyboard-response","47","168715","0.0-13.0-1.0-1.0","ddw1o2jalo","","ddw1o2jalo","""2024-11-12T18:35:24.387Z""","773","materials/imgs/D64.png","arrowleft","","[""materials/imgs/D64.png"",""materials/imgs/D53.png""]","","check","materials/imgs/D64.png","0","true"
"","","","","","html-keyboard-response","48","169229","0.0-13.0-2.0-0.0","ddw1o2jalo","","ddw1o2jalo","""2024-11-12T18:35:24.387Z""","null","+","null","","","","","","",""
"","","","","","image-keyboard-response","49","172611","0.0-13.0-2.0-1.0","ddw1o2jalo","","ddw1o2jalo","""2024-11-12T18:35:24.387Z""","3381","materials/imgs/D6.png","arrowleft","","[""materials/imgs/D26.png"",""materials/imgs/D76.png""]","false","validation","","",""
"","","","","","html-keyboard-response","50","173126","0.0-13.0-2.0-0.1","ddw1o2jalo","","ddw1o2jalo","""2024-11-12T18:35:24.387Z""","null","+","null","","","","","","",""
"","","","","","image-keyboard-response","51","174284","0.0-13.0-2.0-1.1","ddw1o2jalo","","ddw1o2jalo","""2024-11-12T18:35:24.387Z""","1157","materials/imgs/D81.png","arrowright","","[""materials/imgs/D105.png"",""materials/imgs/D24.png""]","false","validation","","",""
"","","","","","html-keyboard-response","52","174797","0.0-13.0-0.1-0.7","ddw1o2jalo","","ddw1o2jalo","""2024-11-12T18:35:24.387Z""","null","+","null","","","","","","",""
"","","","","","image-keyboard-response","53","175783","0.0-13.0-0.1-1.7","ddw1o2jalo","","ddw1o2jalo","""2024-11-12T18:35:24.387Z""","985","materials/imgs/D95.png","arrowleft","","[""materials/imgs/D101.png"",""materials/imgs/D49.png""]","false","random","","",""
"","","","","","html-keyboard-response","54","176293","0.0-13.0-0.1-0.8","ddw1o2jalo","","ddw1o2jalo","""2024-11-12T18:35:24.387Z""","null","+","null","","","","","","",""
"","","","","","image-keyboard-response","55","177056","0.0-13.0-0.1-1.8","ddw1o2jalo","","ddw1o2jalo","""2024-11-12T18:35:24.387Z""","760","materials/imgs/D18.png","arrowright","","[""materials/imgs/D55.png"",""materials/imgs/D20.png""]","false","random","","",""
"","","","","","html-keyboard-response","56","177571","0.0-13.0-0.1-0.9","ddw1o2jalo","","ddw1o2jalo","""2024-11-12T18:35:24.387Z""","null","+","null","","","","","","",""
"","","","","","image-keyboard-response","57","178184","0.0-13.0-0.1-1.9","ddw1o2jalo","","ddw1o2jalo","""2024-11-12T18:35:24.387Z""","611","materials/imgs/D96.png","arrowright","","[""materials/imgs/D21.png"",""materials/imgs/D52.png""]","false","random","","",""
"","","","","","html-keyboard-response","58","178692","0.0-13.0-0.1-0.10","ddw1o2jalo","","ddw1o2jalo","""2024-11-12T18:35:24.387Z""","null","+","null","","","","","","",""
"","","","","","image-keyboard-response","59","180880","0.0-13.0-0.1-1.10","ddw1o2jalo","","ddw1o2jalo","""2024-11-12T18:35:24.387Z""","2187","materials/imgs/D77.png","arrowleft","","[""materials/imgs/D87.png"",""materials/imgs/D66.png""]","false","random","","",""
"","","","","","html-keyboard-response","60","181383","0.0-13.0-0.1-0.11","ddw1o2jalo","","ddw1o2jalo","""2024-11-12T18:35:24.387Z""","null","+","null","","","","","","",""
"","","","","","image-keyboard-response","61","182608","0.0-13.0-0.1-1.11","ddw1o2jalo","","ddw1o2jalo","""2024-11-12T18:35:24.387Z""","1223","materials/imgs/D35.png","arrowleft","","[""materials/imgs/D34.png"",""materials/imgs/D57.png""]","false","random","","",""
"","","","","","html-keyboard-response","62","183111","0.0-13.0-0.1-0.12","ddw1o2jalo","","ddw1o2jalo","""2024-11-12T18:35:24.387Z""","null","+","null","","","","","","",""
"","","","","","image-keyboard-response","63","184045","0.0-13.0-0.1-1.12","ddw1o2jalo","","ddw1o2jalo","""2024-11-12T18:35:24.387Z""","932","materials/imgs/D49.png","arrowleft","","[""materials/imgs/D21.png"",""materials/imgs/D4.png""]","false","random","","",""
"","","","","","html-keyboard-response","64","184548","0.0-13.0-0.1-0.13","ddw1o2jalo","","ddw1o2jalo","""2024-11-12T18:35:24.387Z""","null","+","null","","","","","","",""
"","","","","","image-keyboard-response","65","185384","0.0-13.0-0.1-1.13","ddw1o2jalo","","ddw1o2jalo","""2024-11-12T18:35:24.387Z""","834","materials/imgs/D77.png","arrowright","","[""materials/imgs/D105.png"",""materials/imgs/D57.png""]","false","random","","",""
"","","","","","html-keyboard-response","66","185887","0.0-13.0-1.1-0.1","ddw1o2jalo","","ddw1o2jalo","""2024-11-12T18:35:24.387Z""","null","+","null","","","","","","",""
"","","","","","image-keyboard-response","67","186711","0.0-13.0-1.1-1.1","ddw1o2jalo","","ddw1o2jalo","""2024-11-12T18:35:24.387Z""","823","materials/imgs/D76.png","arrowleft","","[""materials/imgs/D76.png"",""materials/imgs/D78.png""]","","check","materials/imgs/D76.png","0","true"
"","","","","","html-keyboard-response","68","187224","0.0-13.0-2.1-0.2","ddw1o2jalo","","ddw1o2jalo","""2024-11-12T18:35:24.387Z""","null","+","null","","","","","","",""
"","","","","","image-keyboard-response","69","187982","0.0-13.0-2.1-1.2","ddw1o2jalo","","ddw1o2jalo","""2024-11-12T18:35:24.387Z""","756","materials/imgs/D11.png","arrowleft","","[""materials/imgs/D83.png"",""materials/imgs/D48.png""]","false","validation","","",""
"","","","","","html-keyboard-response","70","188491","0.0-13.0-2.1-0.3","ddw1o2jalo","","ddw1o2jalo","""2024-11-12T18:35:24.387Z""","null","+","null","","","","","","",""
"","","","","","image-keyboard-response","71","189392","0.0-13.0-2.1-1.3","ddw1o2jalo","","ddw1o2jalo","""2024-11-12T18:35:24.387Z""","900","materials/imgs/D101.png","arrowright","","[""materials/imgs/D76.png"",""materials/imgs/D47.png""]","false","validation","","",""
"","","","","","html-keyboard-response","72","189898","0.0-13.0-0.2-0.14","ddw1o2jalo","","ddw1o2jalo","""2024-11-12T18:35:24.387Z""","null","+","null","","","","","","",""
"","","","","","image-keyboard-response","73","190811","0.0-13.0-0.2-1.14","ddw1o2jalo","","ddw1o2jalo","""2024-11-12T18:35:24.387Z""","911","materials/imgs/D103.png","arrowright","","[""materials/imgs/D66.png"",""materials/imgs/D20.png""]","false","random","","",""
"","","","","","html-keyboard-response","74","191314","0.0-13.0-0.2-0.15","ddw1o2jalo","","ddw1o2jalo","""2024-11-12T18:35:24.387Z""","null","+","null","","","","","","",""
"","","","","","image-keyboard-response","75","191856","0.0-13.0-0.2-1.15","ddw1o2jalo","","ddw1o2jalo","""2024-11-12T18:35:24.387Z""","540","materials/imgs/D36.png","arrowleft","","[""materials/imgs/D3.png"",""materials/imgs/D64.png""]","false","random","","",""
"","","","","","html-keyboard-response","76","192361","0.0-13.0-0.2-0.16","ddw1o2jalo","","ddw1o2jalo","""2024-11-12T18:35:24.387Z""","null","+","null","","","","","","",""
"","","","","","image-keyboard-response","77","193340","0.0-13.0-0.2-1.16","ddw1o2jalo","","ddw1o2jalo","""2024-11-12T18:35:24.387Z""","977","materials/imgs/D36.png","arrowleft","","[""materials/imgs/D103.png"",""materials/imgs/D85.png""]","false","random","","",""
"","","","","","html-keyboard-response","78","193848","0.0-13.0-0.2-0.17","ddw1o2jalo","","ddw1o2jalo","""2024-11-12T18:35:24.387Z""","null","+","null","","","","","","",""
"","","","","","image-keyboard-response","79","194744","0.0-13.0-0.2-1.17","ddw1o2jalo","","ddw1o2jalo","""2024-11-12T18:35:24.387Z""","893","materials/imgs/D26.png","arrowright","","[""materials/imgs/D32.png"",""materials/imgs/D17.png""]","false","random","","",""
"","","","","","html-keyboard-response","80","195258","0.0-13.0-0.2-0.18","ddw1o2jalo","","ddw1o2jalo","""2024-11-12T18:35:24.387Z""","null","+","null","","","","","","",""
"","","","","","image-keyboard-response","81","196148","0.0-13.0-0.2-1.18","ddw1o2jalo","","ddw1o2jalo","""2024-11-12T18:35:24.387Z""","888","materials/imgs/D77.png","arrowleft","","[""materials/imgs/D83.png"",""materials/imgs/D65.png""]","false","random","","",""
"","","","","","html-keyboard-response","82","196662","0.0-13.0-0.2-0.19","ddw1o2jalo","","ddw1o2jalo","""2024-11-12T18:35:24.387Z""","null","+","null","","","","","","",""
"","","","","","image-keyboard-response","83","197385","0.0-13.0-0.2-1.19","ddw1o2jalo","","ddw1o2jalo","""2024-11-12T18:35:24.387Z""","721","materials/imgs/D82.png","arrowleft","","[""materials/imgs/D103.png"",""materials/imgs/D37.png""]","false","random","","",""
"","","","","","html-keyboard-response","84","197896","0.0-13.0-0.2-0.20","ddw1o2jalo","","ddw1o2jalo","""2024-11-12T18:35:24.387Z""","null","+","null","","","","","","",""
"","","","","","image-keyboard-response","85","198536","0.0-13.0-0.2-1.20","ddw1o2jalo","","ddw1o2jalo","""2024-11-12T18:35:24.387Z""","638","materials/imgs/D17.png","arrowright","","[""materials/imgs/D82.png"",""materials/imgs/D103.png""]","false","random","","",""
"","","","","","html-keyboard-response","86","199052","0.0-13.0-1.2-0.2","ddw1o2jalo","","ddw1o2jalo","""2024-11-12T18:35:24.387Z""","null","+","null","","","","","","",""
"","","","","","image-keyboard-response","87","199646","0.0-13.0-1.2-1.2","ddw1o2jalo","","ddw1o2jalo","""2024-11-12T18:35:24.387Z""","592","materials/imgs/D76.png","arrowleft","","[""materials/imgs/D76.png"",""materials/imgs/D78.png""]","","check","materials/imgs/D76.png","0","true"
"","","","","","html-keyboard-response","88","200159","0.0-13.0-2.2-0.4","ddw1o2jalo","","ddw1o2jalo","""2024-11-12T18:35:24.387Z""","null","+","null","","","","","","",""
"","","","","","image-keyboard-response","89","201271","0.0-13.0-2.2-1.4","ddw1o2jalo","","ddw1o2jalo","""2024-11-12T18:35:24.387Z""","1111","materials/imgs/D68.png","arrowleft","","[""materials/imgs/D96.png"",""materials/imgs/D48.png""]","false","validation","","",""
"","","","","","html-keyboard-response","90","201786","0.0-13.0-2.2-0.5","ddw1o2jalo","","ddw1o2jalo","""2024-11-12T18:35:24.387Z""","null","+","null","","","","","","",""
"","","","","","image-keyboard-response","91","202584","0.0-13.0-2.2-1.5","ddw1o2jalo","","ddw1o2jalo","""2024-11-12T18:35:24.387Z""","797","materials/imgs/D35.png","arrowright","","[""materials/imgs/D83.png"",""materials/imgs/D24.png""]","false","validation","","",""
"","","","","","html-keyboard-response","92","203092","0.0-13.0-0.3-0.21","ddw1o2jalo","","ddw1o2jalo","""2024-11-12T18:35:24.387Z""","null","+","null","","","","","","",""
"","","","","","image-keyboard-response","93","203899","0.0-13.0-0.3-1.21","ddw1o2jalo","","ddw1o2jalo","""2024-11-12T18:35:24.387Z""","806","materials/imgs/D55.png","arrowleft","","[""materials/imgs/D101.png"",""materials/imgs/D51.png""]","false","random","","",""
"","","","","","html-keyboard-response","94","204412","0.0-13.0-0.3-0.22","ddw1o2jalo","","ddw1o2jalo","""2024-11-12T18:35:24.387Z""","null","+","null","","","","","","",""
"","","","","","image-keyboard-response","95","205175","0.0-13.0-0.3-1.22","ddw1o2jalo","","ddw1o2jalo","""2024-11-12T18:35:24.387Z""","760","materials/imgs/D68.png","arrowright","","[""materials/imgs/D56.png"",""materials/imgs/D37.png""]","false","random","","",""
"","","","","","html-keyboard-response","96","205676","0.0-13.0-0.3-0.23","ddw1o2jalo","","ddw1o2jalo","""2024-11-12T18:35:24.387Z""","null","+","null","","","","","","",""
"","","","","","image-keyboard-response","97","207482","0.0-13.0-0.3-1.23","ddw1o2jalo","","ddw1o2jalo","""2024-11-12T18:35:24.387Z""","1804","materials/imgs/D34.png","arrowright","","[""materials/imgs/D94.png"",""materials/imgs/D95.png""]","false","random","","",""
"","","","","","html-keyboard-response","98","207986","0.0-13.0-0.3-0.24","ddw1o2jalo","","ddw1o2jalo","""2024-11-12T18:35:24.387Z""","null","+","null","","","","","","",""
"","","","","","image-keyboard-response","99","208669","0.0-13.0-0.3-1.24","ddw1o2jalo","","ddw1o2jalo","""2024-11-12T18:35:24.387Z""","681","materials/imgs/D92.png","arrowleft","","[""materials/imgs/D19.png"",""materials/imgs/D26.png""]","false","random","","",""
"","","","","","html-keyboard-response","100","209182","0.0-13.0-0.3-0.25","ddw1o2jalo","","ddw1o2jalo","""2024-11-12T18:35:24.387Z""","null","+","null","","","","","","",""
"","","","","","image-keyboard-response","101","210968","0.0-13.0-0.3-1.25","ddw1o2jalo","","ddw1o2jalo","""2024-11-12T18:35:24.387Z""","1785","materials/imgs/D95.png","arrowright","","[""materials/imgs/D52.png"",""materials/imgs/D37.png""]","false","random","","",""
"","","","","","html-keyboard-response","102","211478","0.0-13.0-0.3-0.26","ddw1o2jalo","","ddw1o2jalo","""2024-11-12T18:35:24.387Z""","null","+","null","","","","","","",""
"","","","","","image-keyboard-response","103","212792","0.0-13.0-0.3-1.26","ddw1o2jalo","","ddw1o2jalo","""2024-11-12T18:35:24.387Z""","1312","materials/imgs/D83.png","arrowright","","[""materials/imgs/D102.png"",""materials/imgs/D64.png""]","false","random","","",""
"","","","","","html-keyboard-response","104","213303","0.0-13.0-0.3-0.27","ddw1o2jalo","","ddw1o2jalo","""2024-11-12T18:35:24.387Z""","null","+","null","","","","","","",""
"","","","","","image-keyboard-response","105","214239","0.0-13.0-0.3-1.27","ddw1o2jalo","","ddw1o2jalo","""2024-11-12T18:35:24.387Z""","934","materials/imgs/D34.png","arrowleft","","[""materials/imgs/D14.png"",""materials/imgs/D105.png""]","false","random","","",""
"","","","","","html-keyboard-response","106","214743","0.0-13.0-1.3-0.3","ddw1o2jalo","","ddw1o2jalo","""2024-11-12T18:35:24.387Z""","null","+","null","","","","","","",""
"","","","","","image-keyboard-response","107","215317","0.0-13.0-1.3-1.3","ddw1o2jalo","","ddw1o2jalo","""2024-11-12T18:35:24.387Z""","572","materials/imgs/D64.png","arrowleft","","[""materials/imgs/D64.png"",""materials/imgs/D53.png""]","","check","materials/imgs/D64.png","0","true"
"","","","","","html-keyboard-response","108","215832","0.0-13.0-2.3-0.6","ddw1o2jalo","","ddw1o2jalo","""2024-11-12T18:35:24.387Z""","null","+","null","","","","","","",""
"","","","","","image-keyboard-response","109","216349","0.0-13.0-2.3-1.6","ddw1o2jalo","","ddw1o2jalo","""2024-11-12T18:35:24.387Z""","515","materials/imgs/D105.png","arrowleft","","[""materials/imgs/D106.png"",""materials/imgs/D52.png""]","false","validation","","",""
"","","","","","html-keyboard-response","110","216850","0.0-13.0-2.3-0.7","ddw1o2jalo","","ddw1o2jalo","""2024-11-12T18:35:24.387Z""","null","+","null","","","","","","",""
"","","","","","image-keyboard-response","111","217794","0.0-13.0-2.3-1.7","ddw1o2jalo","","ddw1o2jalo","""2024-11-12T18:35:24.387Z""","942","materials/imgs/D92.png","arrowright","","[""materials/imgs/D56.png"",""materials/imgs/D77.png""]","false","validation","","",""
"","","","","","html-keyboard-response","112","218300","0.0-13.0-0.4-0.28","ddw1o2jalo","","ddw1o2jalo","""2024-11-12T18:35:24.387Z""","null","+","null","","","","","","",""
"","","","","","image-keyboard-response","113","219118","0.0-13.0-0.4-1.28","ddw1o2jalo","","ddw1o2jalo","""2024-11-12T18:35:24.387Z""","816","materials/imgs/D65.png","arrowleft","","[""materials/imgs/D68.png"",""materials/imgs/D22.png""]","false","random","","",""
"","","","","","html-keyboard-response","114","219621","0.0-13.0-0.4-0.29","ddw1o2jalo","","ddw1o2jalo","""2024-11-12T18:35:24.387Z""","null","+","null","","","","","","",""
"","","","","","image-keyboard-response","115","220779","0.0-13.0-0.4-1.29","ddw1o2jalo","","ddw1o2jalo","""2024-11-12T18:35:24.387Z""","1157","materials/imgs/D22.png","arrowright","","[""materials/imgs/D16.png"",""materials/imgs/D57.png""]","false","random","","",""
"","","","","","html-keyboard-response","116","221295","0.0-13.0-0.4-0.30","ddw1o2jalo","","ddw1o2jalo","""2024-11-12T18:35:24.387Z""","null","+","null","","","","","","",""
"","","","","","image-keyboard-response","117","222174","0.0-13.0-0.4-1.30","ddw1o2jalo","","ddw1o2jalo","""2024-11-12T18:35:24.387Z""","878","materials/imgs/D56.png","arrowleft","","[""materials/imgs/D37.png"",""materials/imgs/D87.png""]","false","random","","",""
"","","","","","html-keyboard-response","118","222679","0.0-13.0-0.4-0.31","ddw1o2jalo","","ddw1o2jalo","""2024-11-12T18:35:24.387Z""","null","+","null","","","","","","",""
"","","","","","image-keyboard-response","119","223527","0.0-13.0-0.4-1.31","ddw1o2jalo","","ddw1o2jalo","""2024-11-12T18:35:24.387Z""","847","materials/imgs/D52.png","arrowleft","","[""materials/imgs/D47.png"",""materials/imgs/D66.png""]","false","random","","",""
"","","","","","html-keyboard-response","120","224040","0.0-13.0-0.4-0.32","ddw1o2jalo","","ddw1o2jalo","""2024-11-12T18:35:24.387Z""","null","+","null","","","","","","",""
"","","","","","image-keyboard-response","121","225224","0.0-13.0-0.4-1.32","ddw1o2jalo","","ddw1o2jalo","""2024-11-12T18:35:24.387Z""","1183","materials/imgs/D18.png","arrowleft","","[""materials/imgs/D76.png"",""materials/imgs/D83.png""]","false","random","","",""
"","","","","","html-keyboard-response","122","225735","0.0-13.0-0.4-0.33","ddw1o2jalo","","ddw1o2jalo","""2024-11-12T18:35:24.387Z""","null","+","null","","","","","","",""
"","","","","","image-keyboard-response","123","226468","0.0-13.0-0.4-1.33","ddw1o2jalo","","ddw1o2jalo","""2024-11-12T18:35:24.387Z""","731","materials/imgs/D3.png","arrowright","","[""materials/imgs/D74.png"",""materials/imgs/D103.png""]","false","random","","",""
"","","","","","html-keyboard-response","124","226974","0.0-13.0-0.4-0.34","ddw1o2jalo","","ddw1o2jalo","""2024-11-12T18:35:24.387Z""","null","+","null","","","","","","",""
"","","","","","image-keyboard-response","125","227792","0.0-13.0-0.4-1.34","ddw1o2jalo","","ddw1o2jalo","""2024-11-12T18:35:24.387Z""","816","materials/imgs/D1.png","arrowright","","[""materials/imgs/D53.png"",""materials/imgs/D19.png""]","false","random","","",""
"","","","","","html-keyboard-response","126","228295","0.0-13.0-1.4-0.4","ddw1o2jalo","","ddw1o2jalo","""2024-11-12T18:35:24.387Z""","null","+","null","","","","","","",""
"","","","","","image-keyboard-response","127","228895","0.0-13.0-1.4-1.4","ddw1o2jalo","","ddw1o2jalo","""2024-11-12T18:35:24.387Z""","598","materials/imgs/D106.png","arrowleft","","[""materials/imgs/D106.png"",""materials/imgs/D101.png""]","","check","materials/imgs/D106.png","0","true"
"","","","","","html-keyboard-response","128","229402","0.0-13.0-2.4-0.8","ddw1o2jalo","","ddw1o2jalo","""2024-11-12T18:35:24.387Z""","null","+","null","","","","","","",""
"","","","","","image-keyboard-response","129","230710","0.0-13.0-2.4-1.8","ddw1o2jalo","","ddw1o2jalo","""2024-11-12T18:35:24.387Z""","1306","materials/imgs/D79.png","arrowleft","","[""materials/imgs/D51.png"",""materials/imgs/D64.png""]","false","validation","","",""
"","","","","","html-keyboard-response","130","231212","0.0-13.0-2.4-0.9","ddw1o2jalo","","ddw1o2jalo","""2024-11-12T18:35:24.387Z""","null","+","null","","","","","","",""
"","","","","","image-keyboard-response","131","232044","0.0-13.0-2.4-1.9","ddw1o2jalo","","ddw1o2jalo","""2024-11-12T18:35:24.387Z""","831","materials/imgs/D16.png","arrowleft","","[""materials/imgs/D52.png"",""materials/imgs/D25.png""]","false","validation","","",""
"","","","","","html-button-response","132","234618","0.0-14.0","ddw1o2jalo","","ddw1o2jalo","""2024-11-12T18:35:24.387Z""","2572","You have completed 25% of the trials. Please click 'Continue' when you are ready proceed.","0","","","","","","",""
"","","","","","html-keyboard-response","133","235129","0.0-15.0-0.0-0.0","ddw1o2jalo","","ddw1o2jalo","""2024-11-12T18:35:24.387Z""","null","+","null","","","","","","",""
"","","","","","image-keyboard-response","134","236336","0.0-15.0-0.0-1.0","ddw1o2jalo","","ddw1o2jalo","""2024-11-12T18:35:24.387Z""","1205","materials/imgs/D9.png","arrowright","","[""materials/imgs/D16.png"",""materials/imgs/D36.png""]","false","random","","",""
"","","","","","html-keyboard-response","135","236845","0.0-15.0-0.0-0.1","ddw1o2jalo","","ddw1o2jalo","""2024-11-12T18:35:24.387Z""","null","+","null","","","","","","",""
"","","","","","image-keyboard-response","136","237898","0.0-15.0-0.0-1.1","ddw1o2jalo","","ddw1o2jalo","""2024-11-12T18:35:24.387Z""","1051","materials/imgs/D84.png","arrowleft","","[""materials/imgs/D8.png"",""materials/imgs/D36.png""]","false","random","","",""
"","","","","","html-keyboard-response","137","238408","0.0-15.0-0.0-0.2","ddw1o2jalo","","ddw1o2jalo","""2024-11-12T18:35:24.387Z""","null","+","null","","","","","","",""
"","","","","","image-keyboard-response","138","239554","0.0-15.0-0.0-1.2","ddw1o2jalo","","ddw1o2jalo","""2024-11-12T18:35:24.387Z""","1144","materials/imgs/D34.png","arrowright","","[""materials/imgs/D51.png"",""materials/imgs/D105.png""]","false","random","","",""
"","","","","","html-keyboard-response","139","240064","0.0-15.0-0.0-0.3","ddw1o2jalo","","ddw1o2jalo","""2024-11-12T18:35:24.387Z""","null","+","null","","","","","","",""
"","","","","","image-keyboard-response","140","241124","0.0-15.0-0.0-1.3","ddw1o2jalo","","ddw1o2jalo","""2024-11-12T18:35:24.387Z""","1058","materials/imgs/D29.png","arrowright","","[""materials/imgs/D55.png"",""materials/imgs/D6.png""]","false","random","","",""
"","","","","","html-keyboard-response","141","241639","0.0-15.0-0.0-0.4","ddw1o2jalo","","ddw1o2jalo","""2024-11-12T18:35:24.387Z""","null","+","null","","","","","","",""
"","","","","","image-keyboard-response","142","242675","0.0-15.0-0.0-1.4","ddw1o2jalo","","ddw1o2jalo","""2024-11-12T18:35:24.387Z""","1034","materials/imgs/D22.png","arrowright","","[""materials/imgs/D80.png"",""materials/imgs/D52.png""]","false","random","","",""
"","","","","","html-keyboard-response","143","243179","0.0-15.0-0.0-0.5","ddw1o2jalo","","ddw1o2jalo","""2024-11-12T18:35:24.387Z""","null","+","null","","","","","","",""
"","","","","","image-keyboard-response","144","244039","0.0-15.0-0.0-1.5","ddw1o2jalo","","ddw1o2jalo","""2024-11-12T18:35:24.387Z""","858","materials/imgs/D83.png","arrowright","","[""materials/imgs/D48.png"",""materials/imgs/D68.png""]","false","random","","",""
"","","","","","html-keyboard-response","145","244553","0.0-15.0-0.0-0.6","ddw1o2jalo","","ddw1o2jalo","""2024-11-12T18:35:24.387Z""","null","+","null","","","","","","",""
"","","","","","image-keyboard-response","146","245829","0.0-15.0-0.0-1.6","ddw1o2jalo","","ddw1o2jalo","""2024-11-12T18:35:24.387Z""","1275","materials/imgs/D82.png","arrowright","","[""materials/imgs/D47.png"",""materials/imgs/D78.png""]","false","random","","",""
"","","","","","html-keyboard-response","147","246345","0.0-15.0-1.0-0.0","ddw1o2jalo","","ddw1o2jalo","""2024-11-12T18:35:24.387Z""","null","+","null","","","","","","",""
"","","","","","image-keyboard-response","148","246916","0.0-15.0-1.0-1.0","ddw1o2jalo","","ddw1o2jalo","""2024-11-12T18:35:24.387Z""","570","materials/imgs/D8.png","arrowright","","[""materials/imgs/D18.png"",""materials/imgs/D8.png""]","","check","materials/imgs/D8.png","1","true"
"","","","","","html-keyboard-response","149","247419","0.0-15.0-2.0-0.0","ddw1o2jalo","","ddw1o2jalo","""2024-11-12T18:35:24.387Z""","null","+","null","","","","","","",""
"","","","","","image-keyboard-response","150","248256","0.0-15.0-2.0-1.0","ddw1o2jalo","","ddw1o2jalo","""2024-11-12T18:35:24.387Z""","836","materials/imgs/D83.png","arrowleft","","[""materials/imgs/D24.png"",""materials/imgs/D8.png""]","false","validation","","",""
"","","","","","html-keyboard-response","151","248760","0.0-15.0-2.0-0.1","ddw1o2jalo","","ddw1o2jalo","""2024-11-12T18:35:24.387Z""","null","+","null","","","","","","",""
"","","","","","image-keyboard-response","152","250200","0.0-15.0-2.0-1.1","ddw1o2jalo","","ddw1o2jalo","""2024-11-12T18:35:24.387Z""","1438","materials/imgs/D65.png","arrowleft","","[""materials/imgs/D4.png"",""materials/imgs/D16.png""]","false","validation","","",""
"","","","","","html-keyboard-response","153","250708","0.0-15.0-0.1-0.7","ddw1o2jalo","","ddw1o2jalo","""2024-11-12T18:35:24.387Z""","null","+","null","","","","","","",""
"","","","","","image-keyboard-response","154","251617","0.0-15.0-0.1-1.7","ddw1o2jalo","","ddw1o2jalo","""2024-11-12T18:35:24.387Z""","907","materials/imgs/D83.png","arrowright","","[""materials/imgs/D3.png"",""materials/imgs/D47.png""]","false","random","","",""
"","","","","","html-keyboard-response","155","252123","0.0-15.0-0.1-0.8","ddw1o2jalo","","ddw1o2jalo","""2024-11-12T18:35:24.387Z""","null","+","null","","","","","","",""
"","","","","","image-keyboard-response","156","253053","0.0-15.0-0.1-1.8","ddw1o2jalo","","ddw1o2jalo","""2024-11-12T18:35:24.387Z""","927","materials/imgs/D94.png","arrowleft","","[""materials/imgs/D8.png"",""materials/imgs/D78.png""]","false","random","","",""
"","","","","","html-keyboard-response","157","253561","0.0-15.0-0.1-0.9","ddw1o2jalo","","ddw1o2jalo","""2024-11-12T18:35:24.387Z""","null","+","null","","","","","","",""
"","","","","","image-keyboard-response","158","254234","0.0-15.0-0.1-1.9","ddw1o2jalo","","ddw1o2jalo","""2024-11-12T18:35:24.387Z""","671","materials/imgs/D85.png","arrowleft","","[""materials/imgs/D105.png"",""materials/imgs/D16.png""]","false","random","","",""
"","","","","","html-keyboard-response","159","254737","0.0-15.0-0.1-0.10","ddw1o2jalo","","ddw1o2jalo","""2024-11-12T18:35:24.387Z""","null","+","null","","","","","","",""
"","","","","","image-keyboard-response","160","255966","0.0-15.0-0.1-1.10","ddw1o2jalo","","ddw1o2jalo","""2024-11-12T18:35:24.387Z""","1227","materials/imgs/D65.png","arrowright","","[""materials/imgs/D47.png"",""materials/imgs/D78.png""]","false","random","","",""
"","","","","","html-keyboard-response","161","256471","0.0-15.0-0.1-0.11","ddw1o2jalo","","ddw1o2jalo","""2024-11-12T18:35:24.387Z""","null","+","null","","","","","","",""
"","","","","","image-keyboard-response","162","257495","0.0-15.0-0.1-1.11","ddw1o2jalo","","ddw1o2jalo","""2024-11-12T18:35:24.387Z""","1022","materials/imgs/D105.png","arrowright","","[""materials/imgs/D56.png"",""materials/imgs/D19.png""]","false","random","","",""
"","","","","","html-keyboard-response","163","258011","0.0-15.0-0.1-0.12","ddw1o2jalo","","ddw1o2jalo","""2024-11-12T18:35:24.387Z""","null","+","null","","","","","","",""
"","","","","","image-keyboard-response","164","258638","0.0-15.0-0.1-1.12","ddw1o2jalo","","ddw1o2jalo","""2024-11-12T18:35:24.387Z""","626","materials/imgs/D92.png","arrowleft","","[""materials/imgs/D105.png"",""materials/imgs/D4.png""]","false","random","","",""
"","","","","","html-keyboard-response","165","259149","0.0-15.0-0.1-0.13","ddw1o2jalo","","ddw1o2jalo","""2024-11-12T18:35:24.387Z""","null","+","null","","","","","","",""
"","","","","","image-keyboard-response","166","259853","0.0-15.0-0.1-1.13","ddw1o2jalo","","ddw1o2jalo","""2024-11-12T18:35:24.387Z""","703","materials/imgs/D32.png","arrowright","","[""materials/imgs/D6.png"",""materials/imgs/D57.png""]","false","random","","",""
"","","","","","html-keyboard-response","167","260370","0.0-15.0-1.1-0.1","ddw1o2jalo","","ddw1o2jalo","""2024-11-12T18:35:24.387Z""","null","+","null","","","","","","",""
"","","","","","image-keyboard-response","168","260943","0.0-15.0-1.1-1.1","ddw1o2jalo","","ddw1o2jalo","""2024-11-12T18:35:24.387Z""","571","materials/imgs/D18.png","arrowright","","[""materials/imgs/D8.png"",""materials/imgs/D18.png""]","","check","materials/imgs/D18.png","1","true"
"","","","","","html-keyboard-response","169","261447","0.0-15.0-2.1-0.2","ddw1o2jalo","","ddw1o2jalo","""2024-11-12T18:35:24.387Z""","null","+","null","","","","","","",""
"","","","","","image-keyboard-response","170","262579","0.0-15.0-2.1-1.2","ddw1o2jalo","","ddw1o2jalo","""2024-11-12T18:35:24.387Z""","1130","materials/imgs/D35.png","arrowright","","[""materials/imgs/D83.png"",""materials/imgs/D24.png""]","false","validation","","",""
"","","","","","html-keyboard-response","171","263094","0.0-15.0-2.1-0.3","ddw1o2jalo","","ddw1o2jalo","""2024-11-12T18:35:24.387Z""","null","+","null","","","","","","",""
"","","","","","image-keyboard-response","172","264106","0.0-15.0-2.1-1.3","ddw1o2jalo","","ddw1o2jalo","""2024-11-12T18:35:24.387Z""","1010","materials/imgs/D75.png","arrowleft","","[""materials/imgs/D96.png"",""materials/imgs/D4.png""]","false","validation","","",""
"","","","","","html-keyboard-response","173","264610","0.0-15.0-0.2-0.14","ddw1o2jalo","","ddw1o2jalo","""2024-11-12T18:35:24.387Z""","null","+","null","","","","","","",""
"","","","","","image-keyboard-response","174","265386","0.0-15.0-0.2-1.14","ddw1o2jalo","","ddw1o2jalo","""2024-11-12T18:35:24.387Z""","774","materials/imgs/D1.png","arrowright","","[""materials/imgs/D9.png"",""materials/imgs/D76.png""]","false","random","","",""
"","","","","","html-keyboard-response","175","265888","0.0-15.0-0.2-0.15","ddw1o2jalo","","ddw1o2jalo","""2024-11-12T18:35:24.387Z""","null","+","null","","","","","","",""
"","","","","","image-keyboard-response","176","266670","0.0-15.0-0.2-1.15","ddw1o2jalo","","ddw1o2jalo","""2024-11-12T18:35:24.387Z""","780","materials/imgs/D104.png","arrowleft","","[""materials/imgs/D36.png"",""materials/imgs/D11.png""]","false","random","","",""
"","","","","","html-keyboard-response","177","267176","0.0-15.0-0.2-0.16","ddw1o2jalo","","ddw1o2jalo","""2024-11-12T18:35:24.387Z""","null","+","null","","","","","","",""
"","","","","","image-keyboard-response","178","268642","0.0-15.0-0.2-1.16","ddw1o2jalo","","ddw1o2jalo","""2024-11-12T18:35:24.387Z""","1465","materials/imgs/D35.png","arrowleft","","[""materials/imgs/D87.png"",""materials/imgs/D104.png""]","false","random","","",""
"","","","","","html-keyboard-response","179","269154","0.0-15.0-0.2-0.17","ddw1o2jalo","","ddw1o2jalo","""2024-11-12T18:35:24.387Z""","null","+","null","","","","","","",""
"","","","","","image-keyboard-response","180","270030","0.0-15.0-0.2-1.17","ddw1o2jalo","","ddw1o2jalo","""2024-11-12T18:35:24.387Z""","874","materials/imgs/D14.png","arrowright","","[""materials/imgs/D96.png"",""materials/imgs/D49.png""]","false","random","","",""
"","","","","","html-keyboard-response","181","270531","0.0-15.0-0.2-0.18","ddw1o2jalo","","ddw1o2jalo","""2024-11-12T18:35:24.387Z""","null","+","null","","","","","","",""
"","","","","","image-keyboard-response","182","271812","0.0-15.0-0.2-1.18","ddw1o2jalo","","ddw1o2jalo","""2024-11-12T18:35:24.387Z""","1279","materials/imgs/D57.png","arrowleft","","[""materials/imgs/D35.png"",""materials/imgs/D11.png""]","false","random","","",""
"","","","","","html-keyboard-response","183","272328","0.0-15.0-0.2-0.19","ddw1o2jalo","","ddw1o2jalo","""2024-11-12T18:35:24.387Z""","null","+","null","","","","","","",""
"","","","","","image-keyboard-response","184","273807","0.0-15.0-0.2-1.19","ddw1o2jalo","","ddw1o2jalo","""2024-11-12T18:35:24.387Z""","1477","materials/imgs/D36.png","arrowleft","","[""materials/imgs/D76.png"",""materials/imgs/D95.png""]","false","random","","",""
"","","","","","html-keyboard-response","185","274324","0.0-15.0-0.2-0.20","ddw1o2jalo","","ddw1o2jalo","""2024-11-12T18:35:24.387Z""","null","+","null","","","","","","",""
"","","","","","image-keyboard-response","186","275549","0.0-15.0-0.2-1.20","ddw1o2jalo","","ddw1o2jalo","""2024-11-12T18:35:24.387Z""","1224","materials/imgs/D83.png","arrowright","","[""materials/imgs/D57.png"",""materials/imgs/D22.png""]","false","random","","",""
"","","","","","html-keyboard-response","187","276064","0.0-15.0-1.2-0.2","ddw1o2jalo","","ddw1o2jalo","""2024-11-12T18:35:24.387Z""","null","+","null","","","","","","",""
"","","","","","image-keyboard-response","188","276573","0.0-15.0-1.2-1.2","ddw1o2jalo","","ddw1o2jalo","""2024-11-12T18:35:24.387Z""","508","materials/imgs/D64.png","arrowleft","","[""materials/imgs/D64.png"",""materials/imgs/D53.png""]","","check","materials/imgs/D64.png","0","true"
"","","","","","html-keyboard-response","189","277084","0.0-15.0-2.2-0.4","ddw1o2jalo","","ddw1o2jalo","""2024-11-12T18:35:24.387Z""","null","+","null","","","","","","",""
"","","","","","image-keyboard-response","190","278234","0.0-15.0-2.2-1.4","ddw1o2jalo","","ddw1o2jalo","""2024-11-12T18:35:24.387Z""","1149","materials/imgs/D52.png","arrowleft","","[""materials/imgs/D9.png"",""materials/imgs/D19.png""]","false","validation","","",""
"","","","","","html-keyboard-response","191","278750","0.0-15.0-2.2-0.5","ddw1o2jalo","","ddw1o2jalo","""2024-11-12T18:35:24.387Z""","null","+","null","","","","","","",""
"","","","","","image-keyboard-response","192","280337","0.0-15.0-2.2-1.5","ddw1o2jalo","","ddw1o2jalo","""2024-11-12T18:35:24.387Z""","1586","materials/imgs/D37.png","arrowleft","","[""materials/imgs/D84.png"",""materials/imgs/D111.png""]","false","validation","","",""
"","","","","","html-keyboard-response","193","280852","0.0-15.0-0.3-0.21","ddw1o2jalo","","ddw1o2jalo","""2024-11-12T18:35:24.387Z""","null","+","null","","","","","","",""
"","","","","","image-keyboard-response","194","282010","0.0-15.0-0.3-1.21","ddw1o2jalo","","ddw1o2jalo","""2024-11-12T18:35:24.387Z""","1156","materials/imgs/D25.png","arrowleft","","[""materials/imgs/D56.png"",""materials/imgs/D4.png""]","false","random","","",""
"","","","","","html-keyboard-response","195","282523","0.0-15.0-0.3-0.22","ddw1o2jalo","","ddw1o2jalo","""2024-11-12T18:35:24.387Z""","null","+","null","","","","","","",""
"","","","","","image-keyboard-response","196","283401","0.0-15.0-0.3-1.22","ddw1o2jalo","","ddw1o2jalo","""2024-11-12T18:35:24.387Z""","876","materials/imgs/D66.png","arrowright","","[""materials/imgs/D17.png"",""materials/imgs/D82.png""]","false","random","","",""
"","","","","","html-keyboard-response","197","283914","0.0-15.0-0.3-0.23","ddw1o2jalo","","ddw1o2jalo","""2024-11-12T18:35:24.387Z""","null","+","null","","","","","","",""
"","","","","","image-keyboard-response","198","284762","0.0-15.0-0.3-1.23","ddw1o2jalo","","ddw1o2jalo","""2024-11-12T18:35:24.387Z""","846","materials/imgs/D3.png","arrowleft","","[""materials/imgs/D9.png"",""materials/imgs/D65.png""]","false","random","","",""
"","","","","","html-keyboard-response","199","285273","0.0-15.0-0.3-0.24","ddw1o2jalo","","ddw1o2jalo","""2024-11-12T18:35:24.387Z""","null","+","null","","","","","","",""
"","","","","","image-keyboard-response","200","286979","0.0-15.0-0.3-1.24","ddw1o2jalo","","ddw1o2jalo","""2024-11-12T18:35:24.387Z""","1705","materials/imgs/D6.png","arrowleft","","[""materials/imgs/D92.png"",""materials/imgs/D37.png""]","false","random","","",""
"","","","","","html-keyboard-response","201","287489","0.0-15.0-0.3-0.25","ddw1o2jalo","","ddw1o2jalo","""2024-11-12T18:35:24.387Z""","null","+","null","","","","","","",""
"","","","","","image-keyboard-response","202","288390","0.0-15.0-0.3-1.25","ddw1o2jalo","","ddw1o2jalo","""2024-11-12T18:35:24.387Z""","899","materials/imgs/D96.png","arrowright","","[""materials/imgs/D35.png"",""materials/imgs/D64.png""]","false","random","","",""
"","","","","","html-keyboard-response","203","288894","0.0-15.0-0.3-0.26","ddw1o2jalo","","ddw1o2jalo","""2024-11-12T18:35:24.387Z""","null","+","null","","","","","","",""
"","","","","","image-keyboard-response","204","289461","0.0-15.0-0.3-1.26","ddw1o2jalo","","ddw1o2jalo","""2024-11-12T18:35:24.387Z""","565","materials/imgs/D9.png","arrowright","","[""materials/imgs/D46.png"",""materials/imgs/D81.png""]","false","random","","",""
"","","","","","html-keyboard-response","205","289973","0.0-15.0-0.3-0.27","ddw1o2jalo","","ddw1o2jalo","""2024-11-12T18:35:24.387Z""","null","+","null","","","","","","",""
"","","","","","image-keyboard-response","206","290489","0.0-15.0-0.3-1.27","ddw1o2jalo","","ddw1o2jalo","""2024-11-12T18:35:24.387Z""","515","materials/imgs/D4.png","arrowleft","","[""materials/imgs/D29.png"",""materials/imgs/D46.png""]","false","random","","",""
"","","","","","html-keyboard-response","207","291003","0.0-15.0-1.3-0.3","ddw1o2jalo","","ddw1o2jalo","""2024-11-12T18:35:24.387Z""","null","+","null","","","","","","",""
"","","","","","image-keyboard-response","208","291563","0.0-15.0-1.3-1.3","ddw1o2jalo","","ddw1o2jalo","""2024-11-12T18:35:24.387Z""","558","materials/imgs/D53.png","arrowright","","[""materials/imgs/D64.png"",""materials/imgs/D53.png""]","","check","materials/imgs/D53.png","1","true"
"","","","","","html-keyboard-response","209","292069","0.0-15.0-2.3-0.6","ddw1o2jalo","","ddw1o2jalo","""2024-11-12T18:35:24.387Z""","null","+","null","","","","","","",""
"","","","","","image-keyboard-response","210","292767","0.0-15.0-2.3-1.6","ddw1o2jalo","","ddw1o2jalo","""2024-11-12T18:35:24.387Z""","696","materials/imgs/D83.png","arrowleft","","[""materials/imgs/D24.png"",""materials/imgs/D8.png""]","false","validation","","",""
"","","","","","html-keyboard-response","211","293275","0.0-15.0-2.3-0.7","ddw1o2jalo","","ddw1o2jalo","""2024-11-12T18:35:24.387Z""","null","+","null","","","","","","",""
"","","","","","image-keyboard-response","212","294003","0.0-15.0-2.3-1.7","ddw1o2jalo","","ddw1o2jalo","""2024-11-12T18:35:24.387Z""","726","materials/imgs/D46.png","arrowleft","","[""materials/imgs/D92.png"",""materials/imgs/D77.png""]","false","validation","","",""
"","","","","","html-keyboard-response","213","294517","0.0-15.0-0.4-0.28","ddw1o2jalo","","ddw1o2jalo","""2024-11-12T18:35:24.387Z""","null","+","null","","","","","","",""
"","","","","","image-keyboard-response","214","295161","0.0-15.0-0.4-1.28","ddw1o2jalo","","ddw1o2jalo","""2024-11-12T18:35:24.387Z""","642","materials/imgs/D92.png","arrowleft","","[""materials/imgs/D84.png"",""materials/imgs/D25.png""]","false","random","","",""
"","","","","","html-keyboard-response","215","295667","0.0-15.0-0.4-0.29","ddw1o2jalo","","ddw1o2jalo","""2024-11-12T18:35:24.387Z""","null","+","null","","","","","","",""
"","","","","","image-keyboard-response","216","296813","0.0-15.0-0.4-1.29","ddw1o2jalo","","ddw1o2jalo","""2024-11-12T18:35:24.387Z""","1145","materials/imgs/D37.png","arrowright","","[""materials/imgs/D111.png"",""materials/imgs/D25.png""]","false","random","","",""
"","","","","","html-keyboard-response","217","297321","0.0-15.0-0.4-0.30","ddw1o2jalo","","ddw1o2jalo","""2024-11-12T18:35:24.387Z""","null","+","null","","","","","","",""
"","","","","","image-keyboard-response","218","297848","0.0-15.0-0.4-1.30","ddw1o2jalo","","ddw1o2jalo","""2024-11-12T18:35:24.387Z""","525","materials/imgs/D24.png","arrowright","","[""materials/imgs/D80.png"",""materials/imgs/D4.png""]","false","random","","",""
"","","","","","html-keyboard-response","219","298352","0.0-15.0-0.4-0.31","ddw1o2jalo","","ddw1o2jalo","""2024-11-12T18:35:24.387Z""","null","+","null","","","","","","",""
"","","","","","image-keyboard-response","220","299899","0.0-15.0-0.4-1.31","ddw1o2jalo","","ddw1o2jalo","""2024-11-12T18:35:24.387Z""","1545","materials/imgs/D96.png","arrowleft","","[""materials/imgs/D103.png"",""materials/imgs/D52.png""]","false","random","","",""
"","","","","","html-keyboard-response","221","300404","0.0-15.0-0.4-0.32","ddw1o2jalo","","ddw1o2jalo","""2024-11-12T18:35:24.387Z""","null","+","null","","","","","","",""
"","","","","","image-keyboard-response","222","301534","0.0-15.0-0.4-1.32","ddw1o2jalo","","ddw1o2jalo","""2024-11-12T18:35:24.387Z""","1128","materials/imgs/D11.png","arrowleft","","[""materials/imgs/D106.png"",""materials/imgs/D3.png""]","false","random","","",""
"","","","","","html-keyboard-response","223","302044","0.0-15.0-0.4-0.33","ddw1o2jalo","","ddw1o2jalo","""2024-11-12T18:35:24.387Z""","null","+","null","","","","","","",""
"","","","","","image-keyboard-response","224","303806","0.0-15.0-0.4-1.33","ddw1o2jalo","","ddw1o2jalo","""2024-11-12T18:35:24.387Z""","1761","materials/imgs/D80.png","arrowright","","[""materials/imgs/D1.png"",""materials/imgs/D56.png""]","false","random","","",""
"","","","","","html-keyboard-response","225","304308","0.0-15.0-0.4-0.34","ddw1o2jalo","","ddw1o2jalo","""2024-11-12T18:35:24.387Z""","null","+","null","","","","","","",""
"","","","","","image-keyboard-response","226","305508","0.0-15.0-0.4-1.34","ddw1o2jalo","","ddw1o2jalo","""2024-11-12T18:35:24.387Z""","1199","materials/imgs/D66.png","arrowleft","","[""materials/imgs/D1.png"",""materials/imgs/D3.png""]","false","random","","",""
"","","","","","html-keyboard-response","227","306021","0.0-15.0-1.4-0.4","ddw1o2jalo","","ddw1o2jalo","""2024-11-12T18:35:24.387Z""","null","+","null","","","","","","",""
"","","","","","image-keyboard-response","228","306554","0.0-15.0-1.4-1.4","ddw1o2jalo","","ddw1o2jalo","""2024-11-12T18:35:24.387Z""","531","materials/imgs/D106.png","arrowleft","","[""materials/imgs/D106.png"",""materials/imgs/D101.png""]","","check","materials/imgs/D106.png","0","true"
"","","","","","html-keyboard-response","229","307070","0.0-15.0-2.4-0.8","ddw1o2jalo","","ddw1o2jalo","""2024-11-12T18:35:24.387Z""","null","+","null","","","","","","",""
"","","","","","image-keyboard-response","230","307988","0.0-15.0-2.4-1.8","ddw1o2jalo","","ddw1o2jalo","""2024-11-12T18:35:24.387Z""","916","materials/imgs/D66.png","arrowright","","[""materials/imgs/D85.png"",""materials/imgs/D25.png""]","false","validation","","",""
"","","","","","html-keyboard-response","231","308491","0.0-15.0-2.4-0.9","ddw1o2jalo","","ddw1o2jalo","""2024-11-12T18:35:24.387Z""","null","+","null","","","","","","",""
"","","","","","image-keyboard-response","232","309288","0.0-15.0-2.4-1.9","ddw1o2jalo","","ddw1o2jalo","""2024-11-12T18:35:24.387Z""","796","materials/imgs/D18.png","arrowleft","","[""materials/imgs/D32.png"",""materials/imgs/D57.png""]","false","validation","","",""
"","","","","","html-button-response","233","311239","0.0-16.0","ddw1o2jalo","","ddw1o2jalo","""2024-11-12T18:35:24.387Z""","1951","You have completed 50% of the trials. Please click 'Continue' when you are ready proceed.","0","","","","","","",""
"","","","","","html-keyboard-response","234","311743","0.0-17.0-0.0-0.0","ddw1o2jalo","","ddw1o2jalo","""2024-11-12T18:35:24.387Z""","null","+","null","","","","","","",""
"","","","","","image-keyboard-response","235","312493","0.0-17.0-0.0-1.0","ddw1o2jalo","","ddw1o2jalo","""2024-11-12T18:35:24.387Z""","748","materials/imgs/D105.png","arrowright","","[""materials/imgs/D46.png"",""materials/imgs/D103.png""]","false","random","","",""
"","","","","","html-keyboard-response","236","313006","0.0-17.0-0.0-0.1","ddw1o2jalo","","ddw1o2jalo","""2024-11-12T18:35:24.387Z""","null","+","null","","","","","","",""
"","","","","","image-keyboard-response","237","314169","0.0-17.0-0.0-1.1","ddw1o2jalo","","ddw1o2jalo","""2024-11-12T18:35:24.387Z""","1161","materials/imgs/D37.png","arrowleft","","[""materials/imgs/D76.png"",""materials/imgs/D34.png""]","false","random","","",""
"","","","","","html-keyboard-response","238","314679","0.0-17.0-0.0-0.2","ddw1o2jalo","","ddw1o2jalo","""2024-11-12T18:35:24.387Z""","null","+","null","","","","","","",""
"","","","","","image-keyboard-response","239","315327","0.0-17.0-0.0-1.2","ddw1o2jalo","","ddw1o2jalo","""2024-11-12T18:35:24.387Z""","646","materials/imgs/D19.png","arrowright","","[""materials/imgs/D102.png"",""materials/imgs/D9.png""]","false","random","","",""
"","","","","","html-keyboard-response","240","315833","0.0-17.0-0.0-0.3","ddw1o2jalo","","ddw1o2jalo","""2024-11-12T18:35:24.387Z""","null","+","null","","","","","","",""
"","","","","","image-keyboard-response","241","316349","0.0-17.0-0.0-1.3","ddw1o2jalo","","ddw1o2jalo","""2024-11-12T18:35:24.387Z""","515","materials/imgs/D80.png","arrowright","","[""materials/imgs/D47.png"",""materials/imgs/D82.png""]","false","random","","",""
"","","","","","html-keyboard-response","242","316858","0.0-17.0-0.0-0.4","ddw1o2jalo","","ddw1o2jalo","""2024-11-12T18:35:24.387Z""","null","+","null","","","","","","",""
"","","","","","image-keyboard-response","243","317710","0.0-17.0-0.0-1.4","ddw1o2jalo","","ddw1o2jalo","""2024-11-12T18:35:24.387Z""","850","materials/imgs/D111.png","arrowright","","[""materials/imgs/D21.png"",""materials/imgs/D92.png""]","false","random","","",""
"","","","","","html-keyboard-response","244","318216","0.0-17.0-0.0-0.5","ddw1o2jalo","","ddw1o2jalo","""2024-11-12T18:35:24.387Z""","null","+","null","","","","","","",""
"","","","","","image-keyboard-response","245","319005","0.0-17.0-0.0-1.5","ddw1o2jalo","","ddw1o2jalo","""2024-11-12T18:35:24.387Z""","787","materials/imgs/D85.png","arrowright","","[""materials/imgs/D75.png"",""materials/imgs/D6.png""]","false","random","","",""
"","","","","","html-keyboard-response","246","319518","0.0-17.0-0.0-0.6","ddw1o2jalo","","ddw1o2jalo","""2024-11-12T18:35:24.387Z""","null","+","null","","","","","","",""
"","","","","","image-keyboard-response","247","320323","0.0-17.0-0.0-1.6","ddw1o2jalo","","ddw1o2jalo","""2024-11-12T18:35:24.387Z""","804","materials/imgs/D52.png","arrowright","","[""materials/imgs/D77.png"",""materials/imgs/D18.png""]","false","random","","",""
"","","","","","html-keyboard-response","248","320836","0.0-17.0-1.0-0.0","ddw1o2jalo","","ddw1o2jalo","""2024-11-12T18:35:24.387Z""","null","+","null","","","","","","",""
"","","","","","image-keyboard-response","249","321567","0.0-17.0-1.0-1.0","ddw1o2jalo","","ddw1o2jalo","""2024-11-12T18:35:24.387Z""","730","materials/imgs/D46.png","arrowleft","","[""materials/imgs/D46.png"",""materials/imgs/D26.png""]","","check","materials/imgs/D46.png","0","true"
"","","","","","html-keyboard-response","250","322072","0.0-17.0-2.0-0.0","ddw1o2jalo","","ddw1o2jalo","""2024-11-12T18:35:24.387Z""","null","+","null","","","","","","",""
"","","","","","image-keyboard-response","251","322935","0.0-17.0-2.0-1.0","ddw1o2jalo","","ddw1o2jalo","""2024-11-12T18:35:24.387Z""","861","materials/imgs/D95.png","arrowright","","[""materials/imgs/D36.png"",""materials/imgs/D4.png""]","false","validation","","",""
"","","","","","html-keyboard-response","252","323451","0.0-17.0-2.0-0.1","ddw1o2jalo","","ddw1o2jalo","""2024-11-12T18:35:24.387Z""","null","+","null","","","","","","",""
"","","","","","image-keyboard-response","253","324337","0.0-17.0-2.0-1.1","ddw1o2jalo","","ddw1o2jalo","""2024-11-12T18:35:24.387Z""","884","materials/imgs/D96.png","arrowleft","","[""materials/imgs/D46.png"",""materials/imgs/D18.png""]","false","validation","","",""
"","","","","","html-keyboard-response","254","324851","0.0-17.0-0.1-0.7","ddw1o2jalo","","ddw1o2jalo","""2024-11-12T18:35:24.387Z""","null","+","null","","","","","","",""
"","","","","","image-keyboard-response","255","325911","0.0-17.0-0.1-1.7","ddw1o2jalo","","ddw1o2jalo","""2024-11-12T18:35:24.387Z""","1058","materials/imgs/D1.png","arrowleft","","[""materials/imgs/D96.png"",""materials/imgs/D37.png""]","false","random","","",""
"","","","","","html-keyboard-response","256","326414","0.0-17.0-0.1-0.8","ddw1o2jalo","","ddw1o2jalo","""2024-11-12T18:35:24.387Z""","null","+","null","","","","","","",""
"","","","","","image-keyboard-response","257","326955","0.0-17.0-0.1-1.8","ddw1o2jalo","","ddw1o2jalo","""2024-11-12T18:35:24.387Z""","538","materials/imgs/D14.png","arrowright","","[""materials/imgs/D19.png"",""materials/imgs/D49.png""]","false","random","","",""
"","","","","","html-keyboard-response","258","327465","0.0-17.0-0.1-0.9","ddw1o2jalo","","ddw1o2jalo","""2024-11-12T18:35:24.387Z""","null","+","null","","","","","","",""
"","","","","","image-keyboard-response","259","328112","0.0-17.0-0.1-1.9","ddw1o2jalo","","ddw1o2jalo","""2024-11-12T18:35:24.387Z""","638","materials/imgs/D105.png","arrowleft","","[""materials/imgs/D57.png"",""materials/imgs/D64.png""]","false","random","","",""
"","","","","","html-keyboard-response","260","328616","0.0-17.0-0.1-0.10","ddw1o2jalo","","ddw1o2jalo","""2024-11-12T18:35:24.387Z""","null","+","null","","","","","","",""
"","","","","","image-keyboard-response","261","329258","0.0-17.0-0.1-1.10","ddw1o2jalo","","ddw1o2jalo","""2024-11-12T18:35:24.387Z""","640","materials/imgs/D77.png","arrowleft","","[""materials/imgs/D36.png"",""materials/imgs/D35.png""]","false","random","","",""
"","","","","","html-keyboard-response","262","329759","0.0-17.0-0.1-0.11","ddw1o2jalo","","ddw1o2jalo","""2024-11-12T18:35:24.387Z""","null","+","null","","","","","","",""
"","","","","","image-keyboard-response","263","330529","0.0-17.0-0.1-1.11","ddw1o2jalo","","ddw1o2jalo","""2024-11-12T18:35:24.387Z""","768","materials/imgs/D49.png","arrowleft","","[""materials/imgs/D35.png"",""materials/imgs/D48.png""]","false","random","","",""
"","","","","","html-keyboard-response","264","331035","0.0-17.0-0.1-0.12","ddw1o2jalo","","ddw1o2jalo","""2024-11-12T18:35:24.387Z""","null","+","null","","","","","","",""
"","","","","","image-keyboard-response","265","332532","0.0-17.0-0.1-1.12","ddw1o2jalo","","ddw1o2jalo","""2024-11-12T18:35:24.387Z""","1496","materials/imgs/D102.png","arrowleft","","[""materials/imgs/D35.png"",""materials/imgs/D24.png""]","false","random","","",""
"","","","","","html-keyboard-response","266","333040","0.0-17.0-0.1-0.13","ddw1o2jalo","","ddw1o2jalo","""2024-11-12T18:35:24.387Z""","null","+","null","","","","","","",""
"","","","","","image-keyboard-response","267","333863","0.0-17.0-0.1-1.13","ddw1o2jalo","","ddw1o2jalo","""2024-11-12T18:35:24.387Z""","822","materials/imgs/D68.png","arrowleft","","[""materials/imgs/D81.png"",""materials/imgs/D57.png""]","false","random","","",""
"","","","","","html-keyboard-response","268","334369","0.0-17.0-1.1-0.1","ddw1o2jalo","","ddw1o2jalo","""2024-11-12T18:35:24.387Z""","null","+","null","","","","","","",""
"","","","","","image-keyboard-response","269","334963","0.0-17.0-1.1-1.1","ddw1o2jalo","","ddw1o2jalo","""2024-11-12T18:35:24.387Z""","592","materials/imgs/D53.png","arrowright","","[""materials/imgs/D64.png"",""materials/imgs/D53.png""]","","check","materials/imgs/D53.png","1","true"
"","","","","","html-keyboard-response","270","335467","0.0-17.0-2.1-0.2","ddw1o2jalo","","ddw1o2jalo","""2024-11-12T18:35:24.387Z""","null","+","null","","","","","","",""
"","","","","","image-keyboard-response","271","336377","0.0-17.0-2.1-1.2","ddw1o2jalo","","ddw1o2jalo","""2024-11-12T18:35:24.387Z""","908","materials/imgs/D36.png","arrowleft","","[""materials/imgs/D47.png"",""materials/imgs/D49.png""]","false","validation","","",""
"","","","","","html-keyboard-response","272","336885","0.0-17.0-2.1-0.3","ddw1o2jalo","","ddw1o2jalo","""2024-11-12T18:35:24.387Z""","null","+","null","","","","","","",""
"","","","","","image-keyboard-response","273","338184","0.0-17.0-2.1-1.3","ddw1o2jalo","","ddw1o2jalo","""2024-11-12T18:35:24.387Z""","1298","materials/imgs/D84.png","arrowleft","","[""materials/imgs/D106.png"",""materials/imgs/D37.png""]","false","validation","","",""
"","","","","","html-keyboard-response","274","338692","0.0-17.0-0.2-0.14","ddw1o2jalo","","ddw1o2jalo","""2024-11-12T18:35:24.387Z""","null","+","null","","","","","","",""
"","","","","","image-keyboard-response","275","340241","0.0-17.0-0.2-1.14","ddw1o2jalo","","ddw1o2jalo","""2024-11-12T18:35:24.387Z""","1547","materials/imgs/D34.png","arrowright","","[""materials/imgs/D85.png"",""materials/imgs/D17.png""]","false","random","","",""
"","","","","","html-keyboard-response","276","340746","0.0-17.0-0.2-0.15","ddw1o2jalo","","ddw1o2jalo","""2024-11-12T18:35:24.387Z""","null","+","null","","","","","","",""
"","","","","","image-keyboard-response","277","341948","0.0-17.0-0.2-1.15","ddw1o2jalo","","ddw1o2jalo","""2024-11-12T18:35:24.387Z""","1201","materials/imgs/D82.png","arrowright","","[""materials/imgs/D3.png"",""materials/imgs/D111.png""]","false","random","","",""
"","","","","","html-keyboard-response","278","342450","0.0-17.0-0.2-0.16","ddw1o2jalo","","ddw1o2jalo","""2024-11-12T18:35:24.387Z""","null","+","null","","","","","","",""
"","","","","","image-keyboard-response","279","343380","0.0-17.0-0.2-1.16","ddw1o2jalo","","ddw1o2jalo","""2024-11-12T18:35:24.387Z""","929","materials/imgs/D77.png","arrowleft","","[""materials/imgs/D104.png"",""materials/imgs/D85.png""]","false","random","","",""
"","","","","","html-keyboard-response","280","343893","0.0-17.0-0.2-0.17","ddw1o2jalo","","ddw1o2jalo","""2024-11-12T18:35:24.387Z""","null","+","null","","","","","","",""
"","","","","","image-keyboard-response","281","344645","0.0-17.0-0.2-1.17","ddw1o2jalo","","ddw1o2jalo","""2024-11-12T18:35:24.387Z""","751","materials/imgs/D35.png","arrowright","","[""materials/imgs/D77.png"",""materials/imgs/D65.png""]","false","random","","",""
"","","","","","html-keyboard-response","282","345148","0.0-17.0-0.2-0.18","ddw1o2jalo","","ddw1o2jalo","""2024-11-12T18:35:24.387Z""","null","+","null","","","","","","",""
"","","","","","image-keyboard-response","283","346216","0.0-17.0-0.2-1.18","ddw1o2jalo","","ddw1o2jalo","""2024-11-12T18:35:24.387Z""","1067","materials/imgs/D35.png","arrowright","","[""materials/imgs/D78.png"",""materials/imgs/D6.png""]","false","random","","",""
"","","","","","html-keyboard-response","284","346725","0.0-17.0-0.2-0.19","ddw1o2jalo","","ddw1o2jalo","""2024-11-12T18:35:24.387Z""","null","+","null","","","","","","",""
"","","","","","image-keyboard-response","285","347301","0.0-17.0-0.2-1.19","ddw1o2jalo","","ddw1o2jalo","""2024-11-12T18:35:24.387Z""","575","materials/imgs/D81.png","arrowleft","","[""materials/imgs/D84.png"",""materials/imgs/D46.png""]","false","random","","",""
"","","","","","html-keyboard-response","286","347815","0.0-17.0-0.2-0.20","ddw1o2jalo","","ddw1o2jalo","""2024-11-12T18:35:24.387Z""","null","+","null","","","","","","",""
"","","","","","image-keyboard-response","287","348632","0.0-17.0-0.2-1.20","ddw1o2jalo","","ddw1o2jalo","""2024-11-12T18:35:24.387Z""","815","materials/imgs/D4.png","arrowright","","[""materials/imgs/D17.png"",""materials/imgs/D104.png""]","false","random","","",""
"","","","","","html-keyboard-response","288","349135","0.0-17.0-1.2-0.2","ddw1o2jalo","","ddw1o2jalo","""2024-11-12T18:35:24.387Z""","null","+","null","","","","","","",""
"","","","","","image-keyboard-response","289","349692","0.0-17.0-1.2-1.2","ddw1o2jalo","","ddw1o2jalo","""2024-11-12T18:35:24.387Z""","555","materials/imgs/D101.png","arrowright","","[""materials/imgs/D106.png"",""materials/imgs/D101.png""]","","check","materials/imgs/D101.png","1","true"
"","","","","","html-keyboard-response","290","350203","0.0-17.0-2.2-0.4","ddw1o2jalo","","ddw1o2jalo","""2024-11-12T18:35:24.387Z""","null","+","null","","","","","","",""
"","","","","","image-keyboard-response","291","351101","0.0-17.0-2.2-1.4","ddw1o2jalo","","ddw1o2jalo","""2024-11-12T18:35:24.387Z""","897","materials/imgs/D77.png","arrowleft","","[""materials/imgs/D102.png"",""materials/imgs/D65.png""]","false","validation","","",""
"","","","","","html-keyboard-response","292","351608","0.0-17.0-2.2-0.5","ddw1o2jalo","","ddw1o2jalo","""2024-11-12T18:35:24.387Z""","null","+","null","","","","","","",""
"","","","","","image-keyboard-response","293","352605","0.0-17.0-2.2-1.5","ddw1o2jalo","","ddw1o2jalo","""2024-11-12T18:35:24.387Z""","995","materials/imgs/D8.png","arrowleft","","[""materials/imgs/D101.png"",""materials/imgs/D52.png""]","false","validation","","",""
"","","","","","html-keyboard-response","294","353121","0.0-17.0-0.3-0.21","ddw1o2jalo","","ddw1o2jalo","""2024-11-12T18:35:24.387Z""","null","+","null","","","","","","",""
"","","","","","image-keyboard-response","295","354234","0.0-17.0-0.3-1.21","ddw1o2jalo","","ddw1o2jalo","""2024-11-12T18:35:24.387Z""","1111","materials/imgs/D79.png","arrowright","","[""materials/imgs/D8.png"",""materials/imgs/D47.png""]","false","random","","",""
"","","","","","html-keyboard-response","296","354746","0.0-17.0-0.3-0.22","ddw1o2jalo","","ddw1o2jalo","""2024-11-12T18:35:24.387Z""","null","+","null","","","","","","",""
"","","","","","image-keyboard-response","297","355591","0.0-17.0-0.3-1.22","ddw1o2jalo","","ddw1o2jalo","""2024-11-12T18:35:24.387Z""","843","materials/imgs/D46.png","arrowright","","[""materials/imgs/D48.png"",""materials/imgs/D66.png""]","false","random","","",""
"","","","","","html-keyboard-response","298","356105","0.0-17.0-0.3-0.23","ddw1o2jalo","","ddw1o2jalo","""2024-11-12T18:35:24.387Z""","null","+","null","","","","","","",""
"","","","","","image-keyboard-response","299","357599","0.0-17.0-0.3-1.23","ddw1o2jalo","","ddw1o2jalo","""2024-11-12T18:35:24.387Z""","1492","materials/imgs/D22.png","arrowright","","[""materials/imgs/D8.png"",""materials/imgs/D74.png""]","false","random","","",""
"","","","","","html-keyboard-response","300","358110","0.0-17.0-0.3-0.24","ddw1o2jalo","","ddw1o2jalo","""2024-11-12T18:35:24.387Z""","null","+","null","","","","","","",""
"","","","","","image-keyboard-response","301","358621","0.0-17.0-0.3-1.24","ddw1o2jalo","","ddw1o2jalo","""2024-11-12T18:35:24.387Z""","509","materials/imgs/D77.png","arrowright","","[""materials/imgs/D82.png"",""materials/imgs/D53.png""]","false","random","","",""
"","","","","","html-keyboard-response","302","359132","0.0-17.0-0.3-0.25","ddw1o2jalo","","ddw1o2jalo","""2024-11-12T18:35:24.387Z""","null","+","null","","","","","","",""
"","","","","","image-keyboard-response","303","359873","0.0-17.0-0.3-1.25","ddw1o2jalo","","ddw1o2jalo","""2024-11-12T18:35:24.387Z""","739","materials/imgs/D37.png","arrowright","","[""materials/imgs/D84.png"",""materials/imgs/D68.png""]","false","random","","",""
"","","","","","html-keyboard-response","304","360384","0.0-17.0-0.3-0.26","ddw1o2jalo","","ddw1o2jalo","""2024-11-12T18:35:24.387Z""","null","+","null","","","","","","",""
"","","","","","image-keyboard-response","305","361155","0.0-17.0-0.3-1.26","ddw1o2jalo","","ddw1o2jalo","""2024-11-12T18:35:24.387Z""","770","materials/imgs/D51.png","arrowright","","[""materials/imgs/D77.png"",""materials/imgs/D65.png""]","false","random","","",""
"","","","","","html-keyboard-response","306","361664","0.0-17.0-0.3-0.27","ddw1o2jalo","","ddw1o2jalo","""2024-11-12T18:35:24.387Z""","null","+","null","","","","","","",""
"","","","","","image-keyboard-response","307","362241","0.0-17.0-0.3-1.27","ddw1o2jalo","","ddw1o2jalo","""2024-11-12T18:35:24.387Z""","575","materials/imgs/D37.png","arrowright","","[""materials/imgs/D48.png"",""materials/imgs/D11.png""]","false","random","","",""
"","","","","","html-keyboard-response","308","362752","0.0-17.0-1.3-0.3","ddw1o2jalo","","ddw1o2jalo","""2024-11-12T18:35:24.387Z""","null","+","null","","","","","","",""
"","","","","","image-keyboard-response","309","363457","0.0-17.0-1.3-1.3","ddw1o2jalo","","ddw1o2jalo","""2024-11-12T18:35:24.387Z""","704","materials/imgs/D46.png","arrowleft","","[""materials/imgs/D46.png"",""materials/imgs/D26.png""]","","check","materials/imgs/D46.png","0","true"
"","","","","","html-keyboard-response","310","363966","0.0-17.0-2.3-0.6","ddw1o2jalo","","ddw1o2jalo","""2024-11-12T18:35:24.387Z""","null","+","null","","","","","","",""
"","","","","","image-keyboard-response","311","364795","0.0-17.0-2.3-1.6","ddw1o2jalo","","ddw1o2jalo","""2024-11-12T18:35:24.387Z""","827","materials/imgs/D49.png","arrowleft","","[""materials/imgs/D8.png"",""materials/imgs/D101.png""]","false","validation","","",""
"","","","","","html-keyboard-response","312","365306","0.0-17.0-2.3-0.7","ddw1o2jalo","","ddw1o2jalo","""2024-11-12T18:35:24.387Z""","null","+","null","","","","","","",""
"","","","","","image-keyboard-response","313","366055","0.0-17.0-2.3-1.7","ddw1o2jalo","","ddw1o2jalo","""2024-11-12T18:35:24.387Z""","748","materials/imgs/D64.png","arrowright","","[""materials/imgs/D6.png"",""materials/imgs/D81.png""]","false","validation","","",""
"","","","","","html-keyboard-response","314","366560","0.0-17.0-0.4-0.28","ddw1o2jalo","","ddw1o2jalo","""2024-11-12T18:35:24.387Z""","null","+","null","","","","","","",""
"","","","","","image-keyboard-response","315","367144","0.0-17.0-0.4-1.28","ddw1o2jalo","","ddw1o2jalo","""2024-11-12T18:35:24.387Z""","583","materials/imgs/D22.png","arrowright","","[""materials/imgs/D25.png"",""materials/imgs/D66.png""]","false","random","","",""
"","","","","","html-keyboard-response","316","367647","0.0-17.0-0.4-0.29","ddw1o2jalo","","ddw1o2jalo","""2024-11-12T18:35:24.387Z""","null","+","null","","","","","","",""
"","","","","","image-keyboard-response","317","368577","0.0-17.0-0.4-1.29","ddw1o2jalo","","ddw1o2jalo","""2024-11-12T18:35:24.387Z""","929","materials/imgs/D1.png","arrowright","","[""materials/imgs/D6.png"",""materials/imgs/D36.png""]","false","random","","",""
"","","","","","html-keyboard-response","318","369085","0.0-17.0-0.4-0.30","ddw1o2jalo","","ddw1o2jalo","""2024-11-12T18:35:24.387Z""","null","+","null","","","","","","",""
"","","","","","image-keyboard-response","319","369630","0.0-17.0-0.4-1.30","ddw1o2jalo","","ddw1o2jalo","""2024-11-12T18:35:24.387Z""","544","materials/imgs/D78.png","arrowright","","[""materials/imgs/D46.png"",""materials/imgs/D14.png""]","false","random","","",""
"","","","","","html-keyboard-response","320","370132","0.0-17.0-0.4-0.31","ddw1o2jalo","","ddw1o2jalo","""2024-11-12T18:35:24.387Z""","null","+","null","","","","","","",""
"","","","","","image-keyboard-response","321","370908","0.0-17.0-0.4-1.31","ddw1o2jalo","","ddw1o2jalo","""2024-11-12T18:35:24.387Z""","774","materials/imgs/D29.png","arrowleft","","[""materials/imgs/D36.png"",""materials/imgs/D65.png""]","false","random","","",""
"","","","","","html-keyboard-response","322","371418","0.0-17.0-0.4-0.32","ddw1o2jalo","","ddw1o2jalo","""2024-11-12T18:35:24.387Z""","null","+","null","","","","","","",""
"","","","","","image-keyboard-response","323","372449","0.0-17.0-0.4-1.32","ddw1o2jalo","","ddw1o2jalo","""2024-11-12T18:35:24.387Z""","1029","materials/imgs/D4.png","arrowleft","","[""materials/imgs/D22.png"",""materials/imgs/D35.png""]","false","random","","",""
"","","","","","html-keyboard-response","324","372952","0.0-17.0-0.4-0.33","ddw1o2jalo","","ddw1o2jalo","""2024-11-12T18:35:24.387Z""","null","+","null","","","","","","",""
"","","","","","image-keyboard-response","325","373689","0.0-17.0-0.4-1.33","ddw1o2jalo","","ddw1o2jalo","""2024-11-12T18:35:24.387Z""","735","materials/imgs/D65.png","arrowleft","","[""materials/imgs/D64.png"",""materials/imgs/D53.png""]","false","random","","",""
"","","","","","html-keyboard-response","326","374190","0.0-17.0-0.4-0.34","ddw1o2jalo","","ddw1o2jalo","""2024-11-12T18:35:24.387Z""","null","+","null","","","","","","",""
"","","","","","image-keyboard-response","327","375211","0.0-17.0-0.4-1.34","ddw1o2jalo","","ddw1o2jalo","""2024-11-12T18:35:24.387Z""","1020","materials/imgs/D84.png","arrowleft","","[""materials/imgs/D34.png"",""materials/imgs/D85.png""]","false","random","","",""
"","","","","","html-keyboard-response","328","375723","0.0-17.0-1.4-0.4","ddw1o2jalo","","ddw1o2jalo","""2024-11-12T18:35:24.387Z""","null","+","null","","","","","","",""
"","","","","","image-keyboard-response","329","376185","0.0-17.0-1.4-1.4","ddw1o2jalo","","ddw1o2jalo","""2024-11-12T18:35:24.387Z""","461","materials/imgs/D64.png","arrowleft","","[""materials/imgs/D64.png"",""materials/imgs/D53.png""]","","check","materials/imgs/D64.png","0","true"
"","","","","","html-keyboard-response","330","376698","0.0-17.0-2.4-0.8","ddw1o2jalo","","ddw1o2jalo","""2024-11-12T18:35:24.387Z""","null","+","null","","","","","","",""
"","","","","","image-keyboard-response","331","377544","0.0-17.0-2.4-1.8","ddw1o2jalo","","ddw1o2jalo","""2024-11-12T18:35:24.387Z""","844","materials/imgs/D36.png","arrowleft","","[""materials/imgs/D47.png"",""materials/imgs/D49.png""]","false","validation","","",""
"","","","","","html-keyboard-response","332","378049","0.0-17.0-2.4-0.9","ddw1o2jalo","","ddw1o2jalo","""2024-11-12T18:35:24.387Z""","null","+","null","","","","","","",""
"","","","","","image-keyboard-response","333","378591","0.0-17.0-2.4-1.9","ddw1o2jalo","","ddw1o2jalo","""2024-11-12T18:35:24.387Z""","539","materials/imgs/D57.png","arrowright","","[""materials/imgs/D111.png"",""materials/imgs/D4.png""]","false","validation","","",""
"","","","","","html-button-response","334","380237","0.0-18.0","ddw1o2jalo","","ddw1o2jalo","""2024-11-12T18:35:24.387Z""","1645","You have completed 75% of the trials. Please click 'Continue' when you are ready proceed.","0","","","","","","",""
"","","","","","html-keyboard-response","335","380749","0.0-19.0-0.0-0.0","ddw1o2jalo","","ddw1o2jalo","""2024-11-12T18:35:24.387Z""","null","+","null","","","","","","",""
"","","","","","image-keyboard-response","336","381290","0.0-19.0-0.0-1.0","ddw1o2jalo","","ddw1o2jalo","""2024-11-12T18:35:24.387Z""","539","materials/imgs/D106.png","arrowleft","","[""materials/imgs/D80.png"",""materials/imgs/D56.png""]","false","random","","",""
"","","","","","html-keyboard-response","337","381796","0.0-19.0-0.0-0.1","ddw1o2jalo","","ddw1o2jalo","""2024-11-12T18:35:24.387Z""","null","+","null","","","","","","",""
"","","","","","image-keyboard-response","338","382830","0.0-19.0-0.0-1.1","ddw1o2jalo","","ddw1o2jalo","""2024-11-12T18:35:24.387Z""","1032","materials/imgs/D21.png","arrowleft","","[""materials/imgs/D22.png"",""materials/imgs/D92.png""]","false","random","","",""
"","","","","","html-keyboard-response","339","383336","0.0-19.0-0.0-0.2","ddw1o2jalo","","ddw1o2jalo","""2024-11-12T18:35:24.387Z""","null","+","null","","","","","","",""
"","","","","","image-keyboard-response","340","384041","0.0-19.0-0.0-1.2","ddw1o2jalo","","ddw1o2jalo","""2024-11-12T18:35:24.387Z""","703","materials/imgs/D78.png","arrowright","","[""materials/imgs/D96.png"",""materials/imgs/D83.png""]","false","random","","",""
"","","","","","html-keyboard-response","341","384551","0.0-19.0-0.0-0.3","ddw1o2jalo","","ddw1o2jalo","""2024-11-12T18:35:24.387Z""","null","+","null","","","","","","",""
"","","","","","image-keyboard-response","342","385468","0.0-19.0-0.0-1.3","ddw1o2jalo","","ddw1o2jalo","""2024-11-12T18:35:24.387Z""","915","materials/imgs/D83.png","arrowright","","[""materials/imgs/D52.png"",""materials/imgs/D85.png""]","false","random","","",""
"","","","","","html-keyboard-response","343","385969","0.0-19.0-0.0-0.4","ddw1o2jalo","","ddw1o2jalo","""2024-11-12T18:35:24.387Z""","null","+","null","","","","","","",""
"","","","","","image-keyboard-response","344","387121","0.0-19.0-0.0-1.4","ddw1o2jalo","","ddw1o2jalo","""2024-11-12T18:35:24.387Z""","1150","materials/imgs/D47.png","arrowleft","","[""materials/imgs/D85.png"",""materials/imgs/D75.png""]","false","random","","",""
"","","","","","html-keyboard-response","345","387632","0.0-19.0-0.0-0.5","ddw1o2jalo","","ddw1o2jalo","""2024-11-12T18:35:24.387Z""","null","+","null","","","","","","",""
"","","","","","image-keyboard-response","346","388374","0.0-19.0-0.0-1.5","ddw1o2jalo","","ddw1o2jalo","""2024-11-12T18:35:24.387Z""","740","materials/imgs/D17.png","arrowleft","","[""materials/imgs/D79.png"",""materials/imgs/D76.png""]","false","random","","",""
"","","","","","html-keyboard-response","347","388878","0.0-19.0-0.0-0.6","ddw1o2jalo","","ddw1o2jalo","""2024-11-12T18:35:24.387Z""","null","+","null","","","","","","",""
"","","","","","image-keyboard-response","348","389824","0.0-19.0-0.0-1.6","ddw1o2jalo","","ddw1o2jalo","""2024-11-12T18:35:24.387Z""","944","materials/imgs/D75.png","arrowleft","","[""materials/imgs/D105.png"",""materials/imgs/D83.png""]","false","random","","",""
"","","","","","html-keyboard-response","349","390330","0.0-19.0-1.0-0.0","ddw1o2jalo","","ddw1o2jalo","""2024-11-12T18:35:24.387Z""","null","+","null","","","","","","",""
"","","","","","image-keyboard-response","350","390899","0.0-19.0-1.0-1.0","ddw1o2jalo","","ddw1o2jalo","""2024-11-12T18:35:24.387Z""","567","materials/imgs/D78.png","arrowright","","[""materials/imgs/D76.png"",""materials/imgs/D78.png""]","","check","materials/imgs/D78.png","1","true"
"","","","","","html-keyboard-response","351","391415","0.0-19.0-2.0-0.0","ddw1o2jalo","","ddw1o2jalo","""2024-11-12T18:35:24.387Z""","null","+","null","","","","","","",""
"","","","","","image-keyboard-response","352","392322","0.0-19.0-2.0-1.0","ddw1o2jalo","","ddw1o2jalo","""2024-11-12T18:35:24.387Z""","906","materials/imgs/D76.png","arrowleft","","[""materials/imgs/D83.png"",""materials/imgs/D6.png""]","false","validation","","",""
"","","","","","html-keyboard-response","353","392837","0.0-19.0-2.0-0.1","ddw1o2jalo","","ddw1o2jalo","""2024-11-12T18:35:24.387Z""","null","+","null","","","","","","",""
"","","","","","image-keyboard-response","354","393603","0.0-19.0-2.0-1.1","ddw1o2jalo","","ddw1o2jalo","""2024-11-12T18:35:24.387Z""","765","materials/imgs/D102.png","arrowright","","[""materials/imgs/D32.png"",""materials/imgs/D111.png""]","false","validation","","",""
"","","","","","html-keyboard-response","355","394113","0.0-19.0-0.1-0.7","ddw1o2jalo","","ddw1o2jalo","""2024-11-12T18:35:24.387Z""","null","+","null","","","","","","",""
"","","","","","image-keyboard-response","356","394991","0.0-19.0-0.1-1.7","ddw1o2jalo","","ddw1o2jalo","""2024-11-12T18:35:24.387Z""","877","materials/imgs/D75.png","arrowright","","[""materials/imgs/D14.png"",""materials/imgs/D20.png""]","false","random","","",""
"","","","","","html-keyboard-response","357","395496","0.0-19.0-0.1-0.8","ddw1o2jalo","","ddw1o2jalo","""2024-11-12T18:35:24.387Z""","null","+","null","","","","","","",""
"","","","","","image-keyboard-response","358","396595","0.0-19.0-0.1-1.8","ddw1o2jalo","","ddw1o2jalo","""2024-11-12T18:35:24.387Z""","1098","materials/imgs/D51.png","arrowright","","[""materials/imgs/D66.png"",""materials/imgs/D24.png""]","false","random","","",""
"","","","","","html-keyboard-response","359","397102","0.0-19.0-0.1-0.9","ddw1o2jalo","","ddw1o2jalo","""2024-11-12T18:35:24.387Z""","null","+","null","","","","","","",""
"","","","","","image-keyboard-response","360","398139","0.0-19.0-0.1-1.9","ddw1o2jalo","","ddw1o2jalo","""2024-11-12T18:35:24.387Z""","1036","materials/imgs/D85.png","arrowleft","","[""materials/imgs/D77.png"",""materials/imgs/D75.png""]","false","random","","",""
"","","","","","html-keyboard-response","361","398651","0.0-19.0-0.1-0.10","ddw1o2jalo","","ddw1o2jalo","""2024-11-12T18:35:24.387Z""","null","+","null","","","","","","",""
"","","","","","image-keyboard-response","362","400258","0.0-19.0-0.1-1.10","ddw1o2jalo","","ddw1o2jalo","""2024-11-12T18:35:24.387Z""","1605","materials/imgs/D68.png","arrowleft","","[""materials/imgs/D17.png"",""materials/imgs/D55.png""]","false","random","","",""
"","","","","","html-keyboard-response","363","400760","0.0-19.0-0.1-0.11","ddw1o2jalo","","ddw1o2jalo","""2024-11-12T18:35:24.387Z""","null","+","null","","","","","","",""
"","","","","","image-keyboard-response","364","402111","0.0-19.0-0.1-1.11","ddw1o2jalo","","ddw1o2jalo","""2024-11-12T18:35:24.387Z""","1349","materials/imgs/D80.png","arrowleft","","[""materials/imgs/D6.png"",""materials/imgs/D94.png""]","false","random","","",""
"","","","","","html-keyboard-response","365","402617","0.0-19.0-0.1-0.12","ddw1o2jalo","","ddw1o2jalo","""2024-11-12T18:35:24.387Z""","null","+","null","","","","","","",""
"","","","","","image-keyboard-response","366","405452","0.0-19.0-0.1-1.12","ddw1o2jalo","","ddw1o2jalo","""2024-11-12T18:35:24.387Z""","2834","materials/imgs/D52.png","arrowright","","[""materials/imgs/D106.png"",""materials/imgs/D79.png""]","false","random","","",""
"","","","","","html-keyboard-response","367","405967","0.0-19.0-0.1-0.13","ddw1o2jalo","","ddw1o2jalo","""2024-11-12T18:35:24.387Z""","null","+","null","","","","","","",""
"","","","","","image-keyboard-response","368","407157","0.0-19.0-0.1-1.13","ddw1o2jalo","","ddw1o2jalo","""2024-11-12T18:35:24.387Z""","1188","materials/imgs/D85.png","arrowleft","","[""materials/imgs/D51.png"",""materials/imgs/D26.png""]","false","random","","",""
"","","","","","html-keyboard-response","369","407663","0.0-19.0-1.1-0.1","ddw1o2jalo","","ddw1o2jalo","""2024-11-12T18:35:24.387Z""","null","+","null","","","","","","",""
"","","","","","image-keyboard-response","370","408323","0.0-19.0-1.1-1.1","ddw1o2jalo","","ddw1o2jalo","""2024-11-12T18:35:24.387Z""","658","materials/imgs/D78.png","arrowright","","[""materials/imgs/D76.png"",""materials/imgs/D78.png""]","","check","materials/imgs/D78.png","1","true"
"","","","","","html-keyboard-response","371","408837","0.0-19.0-2.1-0.2","ddw1o2jalo","","ddw1o2jalo","""2024-11-12T18:35:24.387Z""","null","+","null","","","","","","",""
"","","","","","image-keyboard-response","372","409871","0.0-19.0-2.1-1.2","ddw1o2jalo","","ddw1o2jalo","""2024-11-12T18:35:24.387Z""","1032","materials/imgs/D19.png","arrowright","","[""materials/imgs/D111.png"",""materials/imgs/D56.png""]","false","validation","","",""
"","","","","","html-keyboard-response","373","410375","0.0-19.0-2.1-0.3","ddw1o2jalo","","ddw1o2jalo","""2024-11-12T18:35:24.387Z""","null","+","null","","","","","","",""
"","","","","","image-keyboard-response","374","412411","0.0-19.0-2.1-1.3","ddw1o2jalo","","ddw1o2jalo","""2024-11-12T18:35:24.387Z""","2034","materials/imgs/D103.png","arrowleft","","[""materials/imgs/D76.png"",""materials/imgs/D106.png""]","false","validation","","",""
"","","","","","html-keyboard-response","375","412925","0.0-19.0-0.2-0.14","ddw1o2jalo","","ddw1o2jalo","""2024-11-12T18:35:24.387Z""","null","+","null","","","","","","",""
"","","","","","image-keyboard-response","376","414045","0.0-19.0-0.2-1.14","ddw1o2jalo","","ddw1o2jalo","""2024-11-12T18:35:24.387Z""","1117","materials/imgs/D48.png","arrowleft","","[""materials/imgs/D11.png"",""materials/imgs/D84.png""]","false","random","","",""
"","","","","","html-keyboard-response","377","414553","0.0-19.0-0.2-0.15","ddw1o2jalo","","ddw1o2jalo","""2024-11-12T18:35:24.387Z""","null","+","null","","","","","","",""
"","","","","","image-keyboard-response","378","415968","0.0-19.0-0.2-1.15","ddw1o2jalo","","ddw1o2jalo","""2024-11-12T18:35:24.387Z""","1413","materials/imgs/D20.png","arrowright","","[""materials/imgs/D34.png"",""materials/imgs/D56.png""]","false","random","","",""
"","","","","","html-keyboard-response","379","416477","0.0-19.0-0.2-0.16","ddw1o2jalo","","ddw1o2jalo","""2024-11-12T18:35:24.387Z""","null","+","null","","","","","","",""
"","","","","","image-keyboard-response","380","417399","0.0-19.0-0.2-1.16","ddw1o2jalo","","ddw1o2jalo","""2024-11-12T18:35:24.387Z""","920","materials/imgs/D65.png","arrowright","","[""materials/imgs/D9.png"",""materials/imgs/D84.png""]","false","random","","",""
"","","","","","html-keyboard-response","381","417914","0.0-19.0-0.2-0.17","ddw1o2jalo","","ddw1o2jalo","""2024-11-12T18:35:24.387Z""","null","+","null","","","","","","",""
"","","","","","image-keyboard-response","382","420730","0.0-19.0-0.2-1.17","ddw1o2jalo","","ddw1o2jalo","""2024-11-12T18:35:24.387Z""","2814","materials/imgs/D83.png","arrowright","","[""materials/imgs/D101.png"",""materials/imgs/D102.png""]","false","random","","",""
"","","","","","html-keyboard-response","383","421238","0.0-19.0-0.2-0.18","ddw1o2jalo","","ddw1o2jalo","""2024-11-12T18:35:24.387Z""","null","+","null","","","","","","",""
"","","","","","image-keyboard-response","384","422770","0.0-19.0-0.2-1.18","ddw1o2jalo","","ddw1o2jalo","""2024-11-12T18:35:24.387Z""","1531","materials/imgs/D20.png","arrowleft","","[""materials/imgs/D95.png"",""materials/imgs/D48.png""]","false","random","","",""
"","","","","","html-keyboard-response","385","423283","0.0-19.0-0.2-0.19","ddw1o2jalo","","ddw1o2jalo","""2024-11-12T18:35:24.387Z""","null","+","null","","","","","","",""
"","","","","","image-keyboard-response","386","424060","0.0-19.0-0.2-1.19","ddw1o2jalo","","ddw1o2jalo","""2024-11-12T18:35:24.387Z""","774","materials/imgs/D3.png","arrowleft","","[""materials/imgs/D52.png"",""materials/imgs/D51.png""]","false","random","","",""
"","","","","","html-keyboard-response","387","424572","0.0-19.0-0.2-0.20","ddw1o2jalo","","ddw1o2jalo","""2024-11-12T18:35:24.387Z""","null","+","null","","","","","","",""
"","","","","","image-keyboard-response","388","425644","0.0-19.0-0.2-1.20","ddw1o2jalo","","ddw1o2jalo","""2024-11-12T18:35:24.387Z""","1070","materials/imgs/D49.png","arrowright","","[""materials/imgs/D57.png"",""materials/imgs/D21.png""]","false","random","","",""
"","","","","","html-keyboard-response","389","426154","0.0-19.0-1.2-0.2","ddw1o2jalo","","ddw1o2jalo","""2024-11-12T18:35:24.387Z""","null","+","null","","","","","","",""
"","","","","","image-keyboard-response","390","426944","0.0-19.0-1.2-1.2","ddw1o2jalo","","ddw1o2jalo","""2024-11-12T18:35:24.387Z""","788","materials/imgs/D76.png","arrowleft","","[""materials/imgs/D76.png"",""materials/imgs/D78.png""]","","check","materials/imgs/D76.png","0","true"
"","","","","","html-keyboard-response","391","427447","0.0-19.0-2.2-0.4","ddw1o2jalo","","ddw1o2jalo","""2024-11-12T18:35:24.387Z""","null","+","null","","","","","","",""
"","","","","","image-keyboard-response","392","428047","0.0-19.0-2.2-1.4","ddw1o2jalo","","ddw1o2jalo","""2024-11-12T18:35:24.387Z""","599","materials/imgs/D53.png","arrowleft","","[""materials/imgs/D77.png"",""materials/imgs/D75.png""]","false","validation","","",""
"","","","","","html-keyboard-response","393","428553","0.0-19.0-2.2-0.5","ddw1o2jalo","","ddw1o2jalo","""2024-11-12T18:35:24.387Z""","null","+","null","","","","","","",""
"","","","","","image-keyboard-response","394","429563","0.0-19.0-2.2-1.5","ddw1o2jalo","","ddw1o2jalo","""2024-11-12T18:35:24.387Z""","1009","materials/imgs/D52.png","arrowleft","","[""materials/imgs/D9.png"",""materials/imgs/D19.png""]","false","validation","","",""
"","","","","","html-keyboard-response","395","430077","0.0-19.0-0.3-0.21","ddw1o2jalo","","ddw1o2jalo","""2024-11-12T18:35:24.387Z""","null","+","null","","","","","","",""
"","","","","","image-keyboard-response","396","431144","0.0-19.0-0.3-1.21","ddw1o2jalo","","ddw1o2jalo","""2024-11-12T18:35:24.387Z""","1066","materials/imgs/D84.png","arrowright","","[""materials/imgs/D47.png"",""materials/imgs/D65.png""]","false","random","","",""
"","","","","","html-keyboard-response","397","431654","0.0-19.0-0.3-0.22","ddw1o2jalo","","ddw1o2jalo","""2024-11-12T18:35:24.387Z""","null","+","null","","","","","","",""
"","","","","","image-keyboard-response","398","432290","0.0-19.0-0.3-1.22","ddw1o2jalo","","ddw1o2jalo","""2024-11-12T18:35:24.387Z""","634","materials/imgs/D55.png","arrowright","","[""materials/imgs/D1.png"",""materials/imgs/D53.png""]","false","random","","",""
"","","","","","html-keyboard-response","399","432793","0.0-19.0-0.3-0.23","ddw1o2jalo","","ddw1o2jalo","""2024-11-12T18:35:24.387Z""","null","+","null","","","","","","",""
"","","","","","image-keyboard-response","400","433835","0.0-19.0-0.3-1.23","ddw1o2jalo","","ddw1o2jalo","""2024-11-12T18:35:24.387Z""","1041","materials/imgs/D104.png","arrowleft","","[""materials/imgs/D8.png"",""materials/imgs/D21.png""]","false","random","","",""
"","","","","","html-keyboard-response","401","434342","0.0-19.0-0.3-0.24","ddw1o2jalo","","ddw1o2jalo","""2024-11-12T18:35:24.387Z""","null","+","null","","","","","","",""
"","","","","","image-keyboard-response","402","435112","0.0-19.0-0.3-1.24","ddw1o2jalo","","ddw1o2jalo","""2024-11-12T18:35:24.387Z""","768","materials/imgs/D66.png","arrowleft","","[""materials/imgs/D101.png"",""materials/imgs/D35.png""]","false","random","","",""
"","","","","","html-keyboard-response","403","435628","0.0-19.0-0.3-0.25","ddw1o2jalo","","ddw1o2jalo","""2024-11-12T18:35:24.387Z""","null","+","null","","","","","","",""
"","","","","","image-keyboard-response","404","436540","0.0-19.0-0.3-1.25","ddw1o2jalo","","ddw1o2jalo","""2024-11-12T18:35:24.387Z""","911","materials/imgs/D6.png","arrowright","","[""materials/imgs/D95.png"",""materials/imgs/D77.png""]","false","random","","",""
"","","","","","html-keyboard-response","405","437044","0.0-19.0-0.3-0.26","ddw1o2jalo","","ddw1o2jalo","""2024-11-12T18:35:24.387Z""","null","+","null","","","","","","",""
"","","","","","image-keyboard-response","406","437738","0.0-19.0-0.3-1.26","ddw1o2jalo","","ddw1o2jalo","""2024-11-12T18:35:24.387Z""","692","materials/imgs/D20.png","arrowright","","[""materials/imgs/D19.png"",""materials/imgs/D82.png""]","false","random","","",""
"","","","","","html-keyboard-response","407","438247","0.0-19.0-0.3-0.27","ddw1o2jalo","","ddw1o2jalo","""2024-11-12T18:35:24.387Z""","null","+","null","","","","","","",""
"","","","","","image-keyboard-response","408","439700","0.0-19.0-0.3-1.27","ddw1o2jalo","","ddw1o2jalo","""2024-11-12T18:35:24.387Z""","1451","materials/imgs/D14.png","arrowright","","[""materials/imgs/D94.png"",""materials/imgs/D83.png""]","false","random","","",""
"","","","","","html-keyboard-response","409","440213","0.0-19.0-1.3-0.3","ddw1o2jalo","","ddw1o2jalo","""2024-11-12T18:35:24.387Z""","null","+","null","","","","","","",""
"","","","","","image-keyboard-response","410","440787","0.0-19.0-1.3-1.3","ddw1o2jalo","","ddw1o2jalo","""2024-11-12T18:35:24.387Z""","572","materials/imgs/D53.png","arrowright","","[""materials/imgs/D64.png"",""materials/imgs/D53.png""]","","check","materials/imgs/D53.png","1","true"
"","","","","","html-keyboard-response","411","441290","0.0-19.0-2.3-0.6","ddw1o2jalo","","ddw1o2jalo","""2024-11-12T18:35:24.387Z""","null","+","null","","","","","","",""
"","","","","","image-keyboard-response","412","441904","0.0-19.0-2.3-1.6","ddw1o2jalo","","ddw1o2jalo","""2024-11-12T18:35:24.387Z""","612","materials/imgs/D19.png","arrowleft","","[""materials/imgs/D111.png"",""materials/imgs/D56.png""]","false","validation","","",""
"","","","","","html-keyboard-response","413","442406","0.0-19.0-2.3-0.7","ddw1o2jalo","","ddw1o2jalo","""2024-11-12T18:35:24.387Z""","null","+","null","","","","","","",""
"","","","","","image-keyboard-response","414","443298","0.0-19.0-2.3-1.7","ddw1o2jalo","","ddw1o2jalo","""2024-11-12T18:35:24.387Z""","890","materials/imgs/D79.png","arrowleft","","[""materials/imgs/D51.png"",""materials/imgs/D64.png""]","false","validation","","",""
"","","","","","html-keyboard-response","415","443813","0.0-19.0-0.4-0.28","ddw1o2jalo","","ddw1o2jalo","""2024-11-12T18:35:24.387Z""","null","+","null","","","","","","",""
"","","","","","image-keyboard-response","416","444360","0.0-19.0-0.4-1.28","ddw1o2jalo","","ddw1o2jalo","""2024-11-12T18:35:24.387Z""","545","materials/imgs/D18.png","arrowright","","[""materials/imgs/D84.png"",""materials/imgs/D47.png""]","false","random","","",""
"","","","","","html-keyboard-response","417","444864","0.0-19.0-0.4-0.29","ddw1o2jalo","","ddw1o2jalo","""2024-11-12T18:35:24.387Z""","null","+","null","","","","","","",""
"","","","","","image-keyboard-response","418","445489","0.0-19.0-0.4-1.29","ddw1o2jalo","","ddw1o2jalo","""2024-11-12T18:35:24.387Z""","623","materials/imgs/D6.png","arrowright","","[""materials/imgs/D48.png"",""materials/imgs/D56.png""]","false","random","","",""
"","","","","","html-keyboard-response","419","445996","0.0-19.0-0.4-0.30","ddw1o2jalo","","ddw1o2jalo","""2024-11-12T18:35:24.387Z""","null","+","null","","","","","","",""
"","","","","","image-keyboard-response","420","447361","0.0-19.0-0.4-1.30","ddw1o2jalo","","ddw1o2jalo","""2024-11-12T18:35:24.387Z""","1363","materials/imgs/D16.png","arrowleft","","[""materials/imgs/D65.png"",""materials/imgs/D87.png""]","false","random","","",""
"","","","","","html-keyboard-response","421","447869","0.0-19.0-0.4-0.31","ddw1o2jalo","","ddw1o2jalo","""2024-11-12T18:35:24.387Z""","null","+","null","","","","","","",""
"","","","","","image-keyboard-response","422","448668","0.0-19.0-0.4-1.31","ddw1o2jalo","","ddw1o2jalo","""2024-11-12T18:35:24.387Z""","797","materials/imgs/D104.png","arrowleft","","[""materials/imgs/D34.png"",""materials/imgs/D25.png""]","false","random","","",""
"","","","","","html-keyboard-response","423","449183","0.0-19.0-0.4-0.32","ddw1o2jalo","","ddw1o2jalo","""2024-11-12T18:35:24.387Z""","null","+","null","","","","","","",""
"","","","","","image-keyboard-response","424","450275","0.0-19.0-0.4-1.32","ddw1o2jalo","","ddw1o2jalo","""2024-11-12T18:35:24.387Z""","1091","materials/imgs/D85.png","arrowright","","[""materials/imgs/D77.png"",""materials/imgs/D21.png""]","false","random","","",""
"","","","","","html-keyboard-response","425","450779","0.0-19.0-0.4-0.33","ddw1o2jalo","","ddw1o2jalo","""2024-11-12T18:35:24.387Z""","null","+","null","","","","","","",""
"","","","","","image-keyboard-response","426","451441","0.0-19.0-0.4-1.33","ddw1o2jalo","","ddw1o2jalo","""2024-11-12T18:35:24.387Z""","660","materials/imgs/D83.png","arrowleft","","[""materials/imgs/D79.png"",""materials/imgs/D25.png""]","false","random","","",""
"","","","","","html-keyboard-response","427","451949","0.0-19.0-0.4-0.34","ddw1o2jalo","","ddw1o2jalo","""2024-11-12T18:35:24.387Z""","null","+","null","","","","","","",""
"","","","","","image-keyboard-response","428","452562","0.0-19.0-0.4-1.34","ddw1o2jalo","","ddw1o2jalo","""2024-11-12T18:35:24.387Z""","611","materials/imgs/D55.png","arrowright","","[""materials/imgs/D111.png"",""materials/imgs/D16.png""]","false","random","","",""
"","","","","","html-keyboard-response","429","453074","0.0-19.0-1.4-0.4","ddw1o2jalo","","ddw1o2jalo","""2024-11-12T18:35:24.387Z""","null","+","null","","","","","","",""
"","","","","","image-keyboard-response","430","453607","0.0-19.0-1.4-1.4","ddw1o2jalo","","ddw1o2jalo","""2024-11-12T18:35:24.387Z""","531","materials/imgs/D78.png","arrowright","","[""materials/imgs/D76.png"",""materials/imgs/D78.png""]","","check","materials/imgs/D78.png","1","true"
"","","","","","html-keyboard-response","431","454107","0.0-19.0-2.4-0.8","ddw1o2jalo","","ddw1o2jalo","""2024-11-12T18:35:24.387Z""","null","+","null","","","","","","",""
"","","","","","image-keyboard-response","432","454748","0.0-19.0-2.4-1.8","ddw1o2jalo","","ddw1o2jalo","""2024-11-12T18:35:24.387Z""","638","materials/imgs/D53.png","arrowleft","","[""materials/imgs/D77.png"",""materials/imgs/D75.png""]","false","validation","","",""
"","","","","","html-keyboard-response","433","455263","0.0-19.0-2.4-0.9","ddw1o2jalo","","ddw1o2jalo","""2024-11-12T18:35:24.387Z""","null","+","null","","","","","","",""
"","","","","","image-keyboard-response","434","456175","0.0-19.0-2.4-1.9","ddw1o2jalo","","ddw1o2jalo","""2024-11-12T18:35:24.387Z""","910","materials/imgs/D111.png","arrowleft","","[""materials/imgs/D82.png"",""materials/imgs/D95.png""]","false","validation","","",""
