"success","timeout","failed_images","failed_audio","failed_video","trial_type","trial_index","time_elapsed","internal_node_id","subject_id","sona_id","subjectID","dateInfo","rt","stimulus","response","question_order","choices","speedy","sampleAlg","selected_image","selected_index","correct"
"true","false","[]","[]","[]","preload","0","560","0.0-0.0","dyx4dlpmvc","","dyx4dlpmvc","""2024-11-12T18:25:24.765Z""","","","","","","","","","",""
"true","","","","","fullscreen","1","3280","0.0-1.0","dyx4dlpmvc","","dyx4dlpmvc","""2024-11-12T18:25:24.765Z""","","","","","","","","","",""
"","","","","","html-keyboard-response","2","3292","0.0-2.0","dyx4dlpmvc","","dyx4dlpmvc","""2024-11-12T18:25:24.765Z""","null","","null","","","","","","",""
"","","","","","html-button-response","3","5630","0.0-3.0","dyx4dlpmvc","","dyx4dlpmvc","""2024-11-12T18:25:24.765Z""","2336","<div style='text-align:center; font-size:20px; line-height:25px; width: 1200px;'>
                Welcome to our experiment! <br>
                <br>At the bottom of this screen, you will see a button that says 'Begin Experiment.
                <br>Please only click that button when you are ready to complete the 25 minute experiment in one sitting. <br>
                <br> Once you click that button, it will not be possible to restart the experiment. <br><br>","0","","","","","","",""
"true","","","","","fullscreen","4","8174","0.0-4.0","dyx4dlpmvc","","dyx4dlpmvc","""2024-11-12T18:25:24.765Z""","","","","","","","","","",""
"","","","","","survey-multi-select","5","13414","0.0-5.0","dyx4dlpmvc","","dyx4dlpmvc","""2024-11-12T18:25:24.765Z""","5236","","{""Consent"":[""<strong>I consent</strong>""]}","[0]","","","","","",""
"","","","","","html-button-response","6","17251","0.0-6.0","dyx4dlpmvc","","dyx4dlpmvc","""2024-11-12T18:25:24.765Z""","3835","Welcome! <p> This experiment involves two parts: demographic information, followed by the experimental task.<p> It will take about 25 minutes to complete both parts.","0","","","","","","",""
"","","","","","survey-text","7","55780","0.0-7.0","dyx4dlpmvc","","dyx4dlpmvc","""2024-11-12T18:25:24.765Z""","38525","","{""Age"":""18"",""Gender"":""Male"",""Race/ethnicity"":""White""}","","","","","","",""
"","","","","","html-button-response","8","167973","0.0-8.0","dyx4dlpmvc","","dyx4dlpmvc","""2024-11-12T18:25:24.765Z""","112191","<div style='text-align: center;'>
      <p>In each trial of this task, you will see three texture images: one target item on top, and two choices beneath the target item.</p>
      <p><strong>Please select the item that is most like the target item.</strong></p>
      <p>To select the option on the <strong>LEFT</strong>, press the <strong>LEFT ARROW</strong> key. 
      To select the option on the <strong>RIGHT</strong>, press the <strong>RIGHT ARROW</strong> key.</p>
                  <!-- Target Image at the Top -->
      <div style='margin: 20px;'>
        <img src='materials/imgs/instruction_images/InstructionImg1D78.png' alt='Target Image' style='width:200px; height:auto;' />
        <p><em>Target Image</em></p>
      </div>

      <!-- Two Choice Images Below -->
      <div style='display: flex; justify-content: center;'>
        <div style='margin-right: 50px;'>
          <img src='materials/imgs/instruction_images/InstructionImg2D34.png' alt='Choice Image 1' style='width:150px; height:auto;' />
          <p><em><strong>LEFT ARROW</strong></em></p>
        </div>
        <div style='margin-left: 50px;'>
          <img src='materials/imgs/instruction_images/InstructionImg3D80.png' alt='Choice Image 2' style='width:150px; height:auto;' />
          <p><em><strong>RIGHT ARROW</strong></em></p>
        </div>
      </div>
    </div>

      <p>When you are ready to proceed, please click 'Continue' to begin practice.</p>","0","","","","","","",""
"","","","","","html-keyboard-response","9","170494","0.0-9.0","dyx4dlpmvc","","dyx4dlpmvc","""2024-11-12T18:25:24.765Z""","null","+","null","","","","","","",""
"","","","","","html-keyboard-response","10","171010","0.0-10.0-0.0-0.0","dyx4dlpmvc","","dyx4dlpmvc","""2024-11-12T18:25:24.765Z""","null","+","null","","","","","","",""
"","","","","","image-keyboard-response","11","176041","0.0-10.0-0.0-1.0","dyx4dlpmvc","","dyx4dlpmvc","""2024-11-12T18:25:24.765Z""","5027","materials/imgs/D26.png","arrowleft","","[""materials/imgs/D53.png"",""materials/imgs/D9.png""]","false","random","","",""
"","","","","","html-keyboard-response","12","176543","0.0-10.0-0.0-0.1","dyx4dlpmvc","","dyx4dlpmvc","""2024-11-12T18:25:24.765Z""","null","+","null","","","","","","",""
"","","","","","image-keyboard-response","13","178172","0.0-10.0-0.0-1.1","dyx4dlpmvc","","dyx4dlpmvc","""2024-11-12T18:25:24.765Z""","1627","materials/imgs/D21.png","arrowleft","","[""materials/imgs/D77.png"",""materials/imgs/D29.png""]","false","random","","",""
"","","","","","html-keyboard-response","14","178680","0.0-10.0-0.0-0.2","dyx4dlpmvc","","dyx4dlpmvc","""2024-11-12T18:25:24.765Z""","null","+","null","","","","","","",""
"","","","","","image-keyboard-response","15","179856","0.0-10.0-0.0-1.2","dyx4dlpmvc","","dyx4dlpmvc","""2024-11-12T18:25:24.765Z""","1174","materials/imgs/D95.png","arrowleft","","[""materials/imgs/D79.png"",""materials/imgs/D56.png""]","false","random","","",""
"","","","","","html-keyboard-response","16","180367","0.0-10.0-0.0-0.3","dyx4dlpmvc","","dyx4dlpmvc","""2024-11-12T18:25:24.765Z""","null","+","null","","","","","","",""
"","","","","","image-keyboard-response","17","182649","0.0-10.0-0.0-1.3","dyx4dlpmvc","","dyx4dlpmvc","""2024-11-12T18:25:24.765Z""","2280","materials/imgs/D9.png","arrowleft","","[""materials/imgs/D81.png"",""materials/imgs/D8.png""]","false","random","","",""
"","","","","","html-keyboard-response","18","183154","0.0-10.0-0.0-0.4","dyx4dlpmvc","","dyx4dlpmvc","""2024-11-12T18:25:24.765Z""","null","+","null","","","","","","",""
"","","","","","image-keyboard-response","19","186094","0.0-10.0-0.0-1.4","dyx4dlpmvc","","dyx4dlpmvc","""2024-11-12T18:25:24.765Z""","2938","materials/imgs/D76.png","arrowright","","[""materials/imgs/D87.png"",""materials/imgs/D94.png""]","false","random","","",""
"","","","","","html-keyboard-response","20","186603","0.0-10.0-0.0-0.5","dyx4dlpmvc","","dyx4dlpmvc","""2024-11-12T18:25:24.765Z""","null","+","null","","","","","","",""
"","","","","","image-keyboard-response","21","189098","0.0-10.0-0.0-1.5","dyx4dlpmvc","","dyx4dlpmvc","""2024-11-12T18:25:24.765Z""","2493","materials/imgs/D66.png","arrowleft","","[""materials/imgs/D106.png"",""materials/imgs/D74.png""]","false","random","","",""
"","","","","","html-keyboard-response","22","189599","0.0-10.0-0.0-0.6","dyx4dlpmvc","","dyx4dlpmvc","""2024-11-12T18:25:24.765Z""","null","+","null","","","","","","",""
"","","","","","image-keyboard-response","23","191148","0.0-10.0-0.0-1.6","dyx4dlpmvc","","dyx4dlpmvc","""2024-11-12T18:25:24.765Z""","1547","materials/imgs/D52.png","arrowright","","[""materials/imgs/D6.png"",""materials/imgs/D14.png""]","false","random","","",""
"","","","","","html-keyboard-response","24","191659","0.0-10.0-0.0-0.7","dyx4dlpmvc","","dyx4dlpmvc","""2024-11-12T18:25:24.765Z""","null","+","null","","","","","","",""
"","","","","","image-keyboard-response","25","193901","0.0-10.0-0.0-1.7","dyx4dlpmvc","","dyx4dlpmvc","""2024-11-12T18:25:24.765Z""","2241","materials/imgs/D6.png","arrowright","","[""materials/imgs/D65.png"",""materials/imgs/D79.png""]","false","random","","",""
"","","","","","html-keyboard-response","26","194410","0.0-10.0-0.0-0.8","dyx4dlpmvc","","dyx4dlpmvc","""2024-11-12T18:25:24.765Z""","null","+","null","","","","","","",""
"","","","","","image-keyboard-response","27","195935","0.0-10.0-0.0-1.8","dyx4dlpmvc","","dyx4dlpmvc","""2024-11-12T18:25:24.765Z""","1523","materials/imgs/D3.png","arrowleft","","[""materials/imgs/D21.png"",""materials/imgs/D83.png""]","false","random","","",""
"","","","","","html-keyboard-response","28","196437","0.0-10.0-0.0-0.9","dyx4dlpmvc","","dyx4dlpmvc","""2024-11-12T18:25:24.765Z""","null","+","null","","","","","","",""
"","","","","","image-keyboard-response","29","197399","0.0-10.0-0.0-1.9","dyx4dlpmvc","","dyx4dlpmvc","""2024-11-12T18:25:24.765Z""","960","materials/imgs/D20.png","arrowleft","","[""materials/imgs/D53.png"",""materials/imgs/D96.png""]","false","random","","",""
"","","","","","html-button-response","30","200974","0.0-11.0","dyx4dlpmvc","","dyx4dlpmvc","""2024-11-12T18:25:24.765Z""","3575","<p>Great job!</p>
      <p>You are now ready to begin the experiment.</p>
      <p>There will be around 200 trials. You will have opportunities to take breaks at three stages of the trials.</p>
      <p>When you are ready to begin please click 'Continue'.</p>","0","","","","","","",""
"","","","","","html-keyboard-response","31","203495","0.0-12.0","dyx4dlpmvc","","dyx4dlpmvc","""2024-11-12T18:25:24.765Z""","null","+","null","","","","","","",""
"","","","","","html-keyboard-response","32","204010","0.0-13.0-0.0-0.0","dyx4dlpmvc","","dyx4dlpmvc","""2024-11-12T18:25:24.765Z""","null","+","null","","","","","","",""
"","","","","","image-keyboard-response","33","205127","0.0-13.0-0.0-1.0","dyx4dlpmvc","","dyx4dlpmvc","""2024-11-12T18:25:24.765Z""","1115","materials/imgs/D25.png","arrowleft","","[""materials/imgs/D16.png"",""materials/imgs/D36.png""]","false","random","","",""
"","","","","","html-keyboard-response","34","205642","0.0-13.0-0.0-0.1","dyx4dlpmvc","","dyx4dlpmvc","""2024-11-12T18:25:24.765Z""","null","+","null","","","","","","",""
"","","","","","image-keyboard-response","35","206221","0.0-13.0-0.0-1.1","dyx4dlpmvc","","dyx4dlpmvc","""2024-11-12T18:25:24.765Z""","577","materials/imgs/D14.png","arrowleft","","[""materials/imgs/D76.png"",""materials/imgs/D101.png""]","false","random","","",""
"","","","","","html-keyboard-response","36","206734","0.0-13.0-0.0-0.2","dyx4dlpmvc","","dyx4dlpmvc","""2024-11-12T18:25:24.765Z""","null","+","null","","","","","","",""
"","","","","","image-keyboard-response","37","207230","0.0-13.0-0.0-1.2","dyx4dlpmvc","","dyx4dlpmvc","""2024-11-12T18:25:24.765Z""","494","materials/imgs/D82.png","arrowright","","[""materials/imgs/D64.png"",""materials/imgs/D16.png""]","true","random","","",""
"","","","","","html-keyboard-response","38","209712","0.0-13.0-0.0-2.2-0.2","dyx4dlpmvc","","dyx4dlpmvc","""2024-11-12T18:25:24.765Z""","2481","<p><strong>You're going too fast.</strong><p>Please slow down and assess each triplet.<p>Press 'y' to continue.</p></p>","y","","","","","","",""
"","","","","","html-keyboard-response","39","210227","0.0-13.0-0.0-0.3","dyx4dlpmvc","","dyx4dlpmvc","""2024-11-12T18:25:24.765Z""","null","+","null","","","","","","",""
"","","","","","image-keyboard-response","40","212360","0.0-13.0-0.0-1.3","dyx4dlpmvc","","dyx4dlpmvc","""2024-11-12T18:25:24.765Z""","2131","materials/imgs/D8.png","arrowright","","[""materials/imgs/D3.png"",""materials/imgs/D4.png""]","false","random","","",""
"","","","","","html-keyboard-response","41","212866","0.0-13.0-0.0-0.4","dyx4dlpmvc","","dyx4dlpmvc","""2024-11-12T18:25:24.765Z""","null","+","null","","","","","","",""
"","","","","","image-keyboard-response","42","215033","0.0-13.0-0.0-1.4","dyx4dlpmvc","","dyx4dlpmvc","""2024-11-12T18:25:24.765Z""","2165","materials/imgs/D79.png","arrowleft","","[""materials/imgs/D22.png"",""materials/imgs/D106.png""]","false","random","","",""
"","","","","","html-keyboard-response","43","215548","0.0-13.0-0.0-0.5","dyx4dlpmvc","","dyx4dlpmvc","""2024-11-12T18:25:24.765Z""","null","+","null","","","","","","",""
"","","","","","image-keyboard-response","44","216866","0.0-13.0-0.0-1.5","dyx4dlpmvc","","dyx4dlpmvc","""2024-11-12T18:25:24.765Z""","1317","materials/imgs/D4.png","arrowright","","[""materials/imgs/D20.png"",""materials/imgs/D14.png""]","false","random","","",""
"","","","","","html-keyboard-response","45","217372","0.0-13.0-0.0-0.6","dyx4dlpmvc","","dyx4dlpmvc","""2024-11-12T18:25:24.765Z""","null","+","null","","","","","","",""
"","","","","","image-keyboard-response","46","218710","0.0-13.0-0.0-1.6","dyx4dlpmvc","","dyx4dlpmvc","""2024-11-12T18:25:24.765Z""","1335","materials/imgs/D111.png","arrowleft","","[""materials/imgs/D6.png"",""materials/imgs/D16.png""]","false","random","","",""
"","","","","","html-keyboard-response","47","219220","0.0-13.0-1.0-0.0","dyx4dlpmvc","","dyx4dlpmvc","""2024-11-12T18:25:24.765Z""","null","+","null","","","","","","",""
"","","","","","image-keyboard-response","48","220549","0.0-13.0-1.0-1.0","dyx4dlpmvc","","dyx4dlpmvc","""2024-11-12T18:25:24.765Z""","1328","materials/imgs/D64.png","arrowright","","[""materials/imgs/D64.png"",""materials/imgs/D53.png""]","","check","materials/imgs/D53.png","1","false"
"","","","","","html-keyboard-response","49","225531","0.0-13.0-1.0-2.0-0.0","dyx4dlpmvc","","dyx4dlpmvc","""2024-11-12T18:25:24.765Z""","4981","<p><strong>Incorrect!</strong></p>That was an attention check. Please pay attention while completing this task.<p>Press 'y' to continue.</p>","y","","","","","","",""
"","","","","","html-keyboard-response","50","226044","0.0-13.0-2.0-0.0","dyx4dlpmvc","","dyx4dlpmvc","""2024-11-12T18:25:24.765Z""","null","+","null","","","","","","",""
"","","","","","image-keyboard-response","51","227895","0.0-13.0-2.0-1.0","dyx4dlpmvc","","dyx4dlpmvc","""2024-11-12T18:25:24.765Z""","1849","materials/imgs/D32.png","arrowleft","","[""materials/imgs/D68.png"",""materials/imgs/D96.png""]","false","validation","","",""
"","","","","","html-keyboard-response","52","228398","0.0-13.0-2.0-0.1","dyx4dlpmvc","","dyx4dlpmvc","""2024-11-12T18:25:24.765Z""","null","+","null","","","","","","",""
"","","","","","image-keyboard-response","53","230893","0.0-13.0-2.0-1.1","dyx4dlpmvc","","dyx4dlpmvc","""2024-11-12T18:25:24.765Z""","2494","materials/imgs/D96.png","arrowleft","","[""materials/imgs/D46.png"",""materials/imgs/D18.png""]","false","validation","","",""
"","","","","","html-keyboard-response","54","231397","0.0-13.0-0.1-0.7","dyx4dlpmvc","","dyx4dlpmvc","""2024-11-12T18:25:24.765Z""","null","+","null","","","","","","",""
"","","","","","image-keyboard-response","55","232454","0.0-13.0-0.1-1.7","dyx4dlpmvc","","dyx4dlpmvc","""2024-11-12T18:25:24.765Z""","1055","materials/imgs/D76.png","arrowright","","[""materials/imgs/D66.png"",""materials/imgs/D19.png""]","false","random","","",""
"","","","","","html-keyboard-response","56","232957","0.0-13.0-0.1-0.8","dyx4dlpmvc","","dyx4dlpmvc","""2024-11-12T18:25:24.765Z""","null","+","null","","","","","","",""
"","","","","","image-keyboard-response","57","234823","0.0-13.0-0.1-1.8","dyx4dlpmvc","","dyx4dlpmvc","""2024-11-12T18:25:24.765Z""","1865","materials/imgs/D96.png","arrowleft","","[""materials/imgs/D17.png"",""materials/imgs/D95.png""]","false","random","","",""
"","","","","","html-keyboard-response","58","235329","0.0-13.0-0.1-0.9","dyx4dlpmvc","","dyx4dlpmvc","""2024-11-12T18:25:24.765Z""","null","+","null","","","","","","",""
"","","","","","image-keyboard-response","59","237444","0.0-13.0-0.1-1.9","dyx4dlpmvc","","dyx4dlpmvc","""2024-11-12T18:25:24.765Z""","2113","materials/imgs/D55.png","arrowright","","[""materials/imgs/D64.png"",""materials/imgs/D37.png""]","false","random","","",""
"","","","","","html-keyboard-response","60","237958","0.0-13.0-0.1-0.10","dyx4dlpmvc","","dyx4dlpmvc","""2024-11-12T18:25:24.765Z""","null","+","null","","","","","","",""
"","","","","","image-keyboard-response","61","239697","0.0-13.0-0.1-1.10","dyx4dlpmvc","","dyx4dlpmvc","""2024-11-12T18:25:24.765Z""","1738","materials/imgs/D56.png","arrowleft","","[""materials/imgs/D53.png"",""materials/imgs/D75.png""]","false","random","","",""
"","","","","","html-keyboard-response","62","240198","0.0-13.0-0.1-0.11","dyx4dlpmvc","","dyx4dlpmvc","""2024-11-12T18:25:24.765Z""","null","+","null","","","","","","",""
"","","","","","image-keyboard-response","63","241622","0.0-13.0-0.1-1.11","dyx4dlpmvc","","dyx4dlpmvc","""2024-11-12T18:25:24.765Z""","1423","materials/imgs/D48.png","arrowleft","","[""materials/imgs/D103.png"",""materials/imgs/D105.png""]","false","random","","",""
"","","","","","html-keyboard-response","64","242125","0.0-13.0-0.1-0.12","dyx4dlpmvc","","dyx4dlpmvc","""2024-11-12T18:25:24.765Z""","null","+","null","","","","","","",""
"","","","","","image-keyboard-response","65","243012","0.0-13.0-0.1-1.12","dyx4dlpmvc","","dyx4dlpmvc","""2024-11-12T18:25:24.765Z""","885","materials/imgs/D81.png","arrowleft","","[""materials/imgs/D96.png"",""materials/imgs/D77.png""]","false","random","","",""
"","","","","","html-keyboard-response","66","243514","0.0-13.0-0.1-0.13","dyx4dlpmvc","","dyx4dlpmvc","""2024-11-12T18:25:24.765Z""","null","+","null","","","","","","",""
"","","","","","image-keyboard-response","67","245816","0.0-13.0-0.1-1.13","dyx4dlpmvc","","dyx4dlpmvc","""2024-11-12T18:25:24.765Z""","2300","materials/imgs/D79.png","arrowright","","[""materials/imgs/D3.png"",""materials/imgs/D24.png""]","false","random","","",""
"","","","","","html-keyboard-response","68","246322","0.0-13.0-1.1-0.1","dyx4dlpmvc","","dyx4dlpmvc","""2024-11-12T18:25:24.765Z""","null","+","null","","","","","","",""
"","","","","","image-keyboard-response","69","247794","0.0-13.0-1.1-1.1","dyx4dlpmvc","","dyx4dlpmvc","""2024-11-12T18:25:24.765Z""","1470","materials/imgs/D101.png","arrowleft","","[""materials/imgs/D106.png"",""materials/imgs/D101.png""]","","check","materials/imgs/D106.png","0","false"
"","","","","","html-keyboard-response","70","249637","0.0-13.0-1.1-2.1-0.1","dyx4dlpmvc","","dyx4dlpmvc","""2024-11-12T18:25:24.765Z""","1843","<p><strong>Incorrect!</strong></p>That was an attention check. Please pay attention while completing this task.<p>Press 'y' to continue.</p>","y","","","","","","",""
"","","","","","html-keyboard-response","71","250140","0.0-13.0-2.1-0.2","dyx4dlpmvc","","dyx4dlpmvc","""2024-11-12T18:25:24.765Z""","null","+","null","","","","","","",""
"","","","","","image-keyboard-response","72","251431","0.0-13.0-2.1-1.2","dyx4dlpmvc","","dyx4dlpmvc","""2024-11-12T18:25:24.765Z""","1290","materials/imgs/D106.png","arrowleft","","[""materials/imgs/D57.png"",""materials/imgs/D18.png""]","false","validation","","",""
"","","","","","html-keyboard-response","73","251932","0.0-13.0-2.1-0.3","dyx4dlpmvc","","dyx4dlpmvc","""2024-11-12T18:25:24.765Z""","null","+","null","","","","","","",""
"","","","","","image-keyboard-response","74","253693","0.0-13.0-2.1-1.3","dyx4dlpmvc","","dyx4dlpmvc","""2024-11-12T18:25:24.765Z""","1760","materials/imgs/D53.png","arrowleft","","[""materials/imgs/D77.png"",""materials/imgs/D75.png""]","false","validation","","",""
"","","","","","html-keyboard-response","75","254197","0.0-13.0-0.2-0.14","dyx4dlpmvc","","dyx4dlpmvc","""2024-11-12T18:25:24.765Z""","null","+","null","","","","","","",""
"","","","","","image-keyboard-response","76","256425","0.0-13.0-0.2-1.14","dyx4dlpmvc","","dyx4dlpmvc","""2024-11-12T18:25:24.765Z""","2227","materials/imgs/D4.png","arrowleft","","[""materials/imgs/D101.png"",""materials/imgs/D74.png""]","false","random","","",""
"","","","","","html-keyboard-response","77","256939","0.0-13.0-0.2-0.15","dyx4dlpmvc","","dyx4dlpmvc","""2024-11-12T18:25:24.765Z""","null","+","null","","","","","","",""
"","","","","","image-keyboard-response","78","259151","0.0-13.0-0.2-1.15","dyx4dlpmvc","","dyx4dlpmvc","""2024-11-12T18:25:24.765Z""","2211","materials/imgs/D96.png","arrowleft","","[""materials/imgs/D24.png"",""materials/imgs/D34.png""]","false","random","","",""
"","","","","","html-keyboard-response","79","259663","0.0-13.0-0.2-0.16","dyx4dlpmvc","","dyx4dlpmvc","""2024-11-12T18:25:24.765Z""","null","+","null","","","","","","",""
"","","","","","image-keyboard-response","80","260721","0.0-13.0-0.2-1.16","dyx4dlpmvc","","dyx4dlpmvc","""2024-11-12T18:25:24.765Z""","1057","materials/imgs/D19.png","arrowleft","","[""materials/imgs/D85.png"",""materials/imgs/D46.png""]","false","random","","",""
"","","","","","html-keyboard-response","81","261237","0.0-13.0-0.2-0.17","dyx4dlpmvc","","dyx4dlpmvc","""2024-11-12T18:25:24.765Z""","null","+","null","","","","","","",""
"","","","","","image-keyboard-response","82","263243","0.0-13.0-0.2-1.17","dyx4dlpmvc","","dyx4dlpmvc","""2024-11-12T18:25:24.765Z""","2005","materials/imgs/D17.png","arrowleft","","[""materials/imgs/D55.png"",""materials/imgs/D20.png""]","false","random","","",""
"","","","","","html-keyboard-response","83","263756","0.0-13.0-0.2-0.18","dyx4dlpmvc","","dyx4dlpmvc","""2024-11-12T18:25:24.765Z""","null","+","null","","","","","","",""
"","","","","","image-keyboard-response","84","265681","0.0-13.0-0.2-1.18","dyx4dlpmvc","","dyx4dlpmvc","""2024-11-12T18:25:24.765Z""","1924","materials/imgs/D92.png","arrowright","","[""materials/imgs/D47.png"",""materials/imgs/D101.png""]","false","random","","",""
"","","","","","html-keyboard-response","85","266188","0.0-13.0-0.2-0.19","dyx4dlpmvc","","dyx4dlpmvc","""2024-11-12T18:25:24.765Z""","null","+","null","","","","","","",""
"","","","","","image-keyboard-response","86","267718","0.0-13.0-0.2-1.19","dyx4dlpmvc","","dyx4dlpmvc","""2024-11-12T18:25:24.765Z""","1529","materials/imgs/D77.png","arrowleft","","[""materials/imgs/D6.png"",""materials/imgs/D37.png""]","false","random","","",""
"","","","","","html-keyboard-response","87","268230","0.0-13.0-0.2-0.20","dyx4dlpmvc","","dyx4dlpmvc","""2024-11-12T18:25:24.765Z""","null","+","null","","","","","","",""
"","","","","","image-keyboard-response","88","270122","0.0-13.0-0.2-1.20","dyx4dlpmvc","","dyx4dlpmvc","""2024-11-12T18:25:24.765Z""","1891","materials/imgs/D64.png","arrowleft","","[""materials/imgs/D94.png"",""materials/imgs/D4.png""]","false","random","","",""
"","","","","","html-keyboard-response","89","270630","0.0-13.0-1.2-0.2","dyx4dlpmvc","","dyx4dlpmvc","""2024-11-12T18:25:24.765Z""","null","+","null","","","","","","",""
"","","","","","image-keyboard-response","90","271772","0.0-13.0-1.2-1.2","dyx4dlpmvc","","dyx4dlpmvc","""2024-11-12T18:25:24.765Z""","1140","materials/imgs/D101.png","arrowright","","[""materials/imgs/D106.png"",""materials/imgs/D101.png""]","","check","materials/imgs/D101.png","1","true"
"","","","","","html-keyboard-response","91","272281","0.0-13.0-2.2-0.4","dyx4dlpmvc","","dyx4dlpmvc","""2024-11-12T18:25:24.765Z""","null","+","null","","","","","","",""
"","","","","","image-keyboard-response","92","274270","0.0-13.0-2.2-1.4","dyx4dlpmvc","","dyx4dlpmvc","""2024-11-12T18:25:24.765Z""","1987","materials/imgs/D47.png","arrowleft","","[""materials/imgs/D1.png"",""materials/imgs/D52.png""]","false","validation","","",""
"","","","","","html-keyboard-response","93","274777","0.0-13.0-2.2-0.5","dyx4dlpmvc","","dyx4dlpmvc","""2024-11-12T18:25:24.765Z""","null","+","null","","","","","","",""
"","","","","","image-keyboard-response","94","276294","0.0-13.0-2.2-1.5","dyx4dlpmvc","","dyx4dlpmvc","""2024-11-12T18:25:24.765Z""","1517","materials/imgs/D68.png","arrowleft","","[""materials/imgs/D96.png"",""materials/imgs/D48.png""]","false","validation","","",""
"","","","","","html-keyboard-response","95","276809","0.0-13.0-0.3-0.21","dyx4dlpmvc","","dyx4dlpmvc","""2024-11-12T18:25:24.765Z""","null","+","null","","","","","","",""
"","","","","","image-keyboard-response","96","278568","0.0-13.0-0.3-1.21","dyx4dlpmvc","","dyx4dlpmvc","""2024-11-12T18:25:24.765Z""","1757","materials/imgs/D25.png","arrowleft","","[""materials/imgs/D79.png"",""materials/imgs/D111.png""]","false","random","","",""
"","","","","","html-keyboard-response","97","279072","0.0-13.0-0.3-0.22","dyx4dlpmvc","","dyx4dlpmvc","""2024-11-12T18:25:24.765Z""","null","+","null","","","","","","",""
"","","","","","image-keyboard-response","98","281035","0.0-13.0-0.3-1.22","dyx4dlpmvc","","dyx4dlpmvc","""2024-11-12T18:25:24.765Z""","1961","materials/imgs/D92.png","arrowright","","[""materials/imgs/D95.png"",""materials/imgs/D52.png""]","false","random","","",""
"","","","","","html-keyboard-response","99","281547","0.0-13.0-0.3-0.23","dyx4dlpmvc","","dyx4dlpmvc","""2024-11-12T18:25:24.765Z""","null","+","null","","","","","","",""
"","","","","","image-keyboard-response","100","282875","0.0-13.0-0.3-1.23","dyx4dlpmvc","","dyx4dlpmvc","""2024-11-12T18:25:24.765Z""","1326","materials/imgs/D94.png","arrowright","","[""materials/imgs/D75.png"",""materials/imgs/D106.png""]","false","random","","",""
"","","","","","html-keyboard-response","101","283383","0.0-13.0-0.3-0.24","dyx4dlpmvc","","dyx4dlpmvc","""2024-11-12T18:25:24.765Z""","null","+","null","","","","","","",""
"","","","","","image-keyboard-response","102","285992","0.0-13.0-0.3-1.24","dyx4dlpmvc","","dyx4dlpmvc","""2024-11-12T18:25:24.765Z""","2608","materials/imgs/D55.png","arrowleft","","[""materials/imgs/D18.png"",""materials/imgs/D46.png""]","false","random","","",""
"","","","","","html-keyboard-response","103","286497","0.0-13.0-0.3-0.25","dyx4dlpmvc","","dyx4dlpmvc","""2024-11-12T18:25:24.765Z""","null","+","null","","","","","","",""
"","","","","","image-keyboard-response","104","287882","0.0-13.0-0.3-1.25","dyx4dlpmvc","","dyx4dlpmvc","""2024-11-12T18:25:24.765Z""","1384","materials/imgs/D96.png","arrowright","","[""materials/imgs/D106.png"",""materials/imgs/D85.png""]","false","random","","",""
"","","","","","html-keyboard-response","105","288384","0.0-13.0-0.3-0.26","dyx4dlpmvc","","dyx4dlpmvc","""2024-11-12T18:25:24.765Z""","null","+","null","","","","","","",""
"","","","","","image-keyboard-response","106","290420","0.0-13.0-0.3-1.26","dyx4dlpmvc","","dyx4dlpmvc","""2024-11-12T18:25:24.765Z""","2034","materials/imgs/D48.png","arrowright","","[""materials/imgs/D57.png"",""materials/imgs/D14.png""]","false","random","","",""
"","","","","","html-keyboard-response","107","290926","0.0-13.0-0.3-0.27","dyx4dlpmvc","","dyx4dlpmvc","""2024-11-12T18:25:24.765Z""","null","+","null","","","","","","",""
"","","","","","image-keyboard-response","108","292945","0.0-13.0-0.3-1.27","dyx4dlpmvc","","dyx4dlpmvc","""2024-11-12T18:25:24.765Z""","2018","materials/imgs/D87.png","arrowleft","","[""materials/imgs/D8.png"",""materials/imgs/D95.png""]","false","random","","",""
"","","","","","html-keyboard-response","109","293449","0.0-13.0-1.3-0.3","dyx4dlpmvc","","dyx4dlpmvc","""2024-11-12T18:25:24.765Z""","null","+","null","","","","","","",""
"","","","","","image-keyboard-response","110","294625","0.0-13.0-1.3-1.3","dyx4dlpmvc","","dyx4dlpmvc","""2024-11-12T18:25:24.765Z""","1175","materials/imgs/D78.png","arrowright","","[""materials/imgs/D76.png"",""materials/imgs/D78.png""]","","check","materials/imgs/D78.png","1","true"
"","","","","","html-keyboard-response","111","295130","0.0-13.0-2.3-0.6","dyx4dlpmvc","","dyx4dlpmvc","""2024-11-12T18:25:24.765Z""","null","+","null","","","","","","",""
"","","","","","image-keyboard-response","112","296486","0.0-13.0-2.3-1.6","dyx4dlpmvc","","dyx4dlpmvc","""2024-11-12T18:25:24.765Z""","1355","materials/imgs/D35.png","arrowright","","[""materials/imgs/D83.png"",""materials/imgs/D24.png""]","false","validation","","",""
"","","","","","html-keyboard-response","113","296989","0.0-13.0-2.3-0.7","dyx4dlpmvc","","dyx4dlpmvc","""2024-11-12T18:25:24.765Z""","null","+","null","","","","","","",""
"","","","","","image-keyboard-response","114","298783","0.0-13.0-2.3-1.7","dyx4dlpmvc","","dyx4dlpmvc","""2024-11-12T18:25:24.765Z""","1794","materials/imgs/D37.png","arrowright","","[""materials/imgs/D84.png"",""materials/imgs/D111.png""]","false","validation","","",""
"","","","","","html-keyboard-response","115","299291","0.0-13.0-0.4-0.28","dyx4dlpmvc","","dyx4dlpmvc","""2024-11-12T18:25:24.765Z""","null","+","null","","","","","","",""
"","","","","","image-keyboard-response","116","301537","0.0-13.0-0.4-1.28","dyx4dlpmvc","","dyx4dlpmvc","""2024-11-12T18:25:24.765Z""","2244","materials/imgs/D46.png","arrowright","","[""materials/imgs/D102.png"",""materials/imgs/D26.png""]","false","random","","",""
"","","","","","html-keyboard-response","117","302046","0.0-13.0-0.4-0.29","dyx4dlpmvc","","dyx4dlpmvc","""2024-11-12T18:25:24.765Z""","null","+","null","","","","","","",""
"","","","","","image-keyboard-response","118","303003","0.0-13.0-0.4-1.29","dyx4dlpmvc","","dyx4dlpmvc","""2024-11-12T18:25:24.765Z""","955","materials/imgs/D83.png","arrowleft","","[""materials/imgs/D95.png"",""materials/imgs/D22.png""]","false","random","","",""
"","","","","","html-keyboard-response","119","303506","0.0-13.0-0.4-0.30","dyx4dlpmvc","","dyx4dlpmvc","""2024-11-12T18:25:24.765Z""","null","+","null","","","","","","",""
"","","","","","image-keyboard-response","120","305380","0.0-13.0-0.4-1.30","dyx4dlpmvc","","dyx4dlpmvc","""2024-11-12T18:25:24.765Z""","1872","materials/imgs/D19.png","arrowleft","","[""materials/imgs/D78.png"",""materials/imgs/D8.png""]","false","random","","",""
"","","","","","html-keyboard-response","121","305894","0.0-13.0-0.4-0.31","dyx4dlpmvc","","dyx4dlpmvc","""2024-11-12T18:25:24.765Z""","null","+","null","","","","","","",""
"","","","","","image-keyboard-response","122","307321","0.0-13.0-0.4-1.31","dyx4dlpmvc","","dyx4dlpmvc","""2024-11-12T18:25:24.765Z""","1425","materials/imgs/D52.png","arrowright","","[""materials/imgs/D95.png"",""materials/imgs/D18.png""]","false","random","","",""
"","","","","","html-keyboard-response","123","307830","0.0-13.0-0.4-0.32","dyx4dlpmvc","","dyx4dlpmvc","""2024-11-12T18:25:24.765Z""","null","+","null","","","","","","",""
"","","","","","image-keyboard-response","124","309154","0.0-13.0-0.4-1.32","dyx4dlpmvc","","dyx4dlpmvc","""2024-11-12T18:25:24.765Z""","1322","materials/imgs/D96.png","arrowright","","[""materials/imgs/D106.png"",""materials/imgs/D46.png""]","false","random","","",""
"","","","","","html-keyboard-response","125","309668","0.0-13.0-0.4-0.33","dyx4dlpmvc","","dyx4dlpmvc","""2024-11-12T18:25:24.765Z""","null","+","null","","","","","","",""
"","","","","","image-keyboard-response","126","310743","0.0-13.0-0.4-1.33","dyx4dlpmvc","","dyx4dlpmvc","""2024-11-12T18:25:24.765Z""","1074","materials/imgs/D36.png","arrowright","","[""materials/imgs/D94.png"",""materials/imgs/D53.png""]","false","random","","",""
"","","","","","html-keyboard-response","127","311258","0.0-13.0-0.4-0.34","dyx4dlpmvc","","dyx4dlpmvc","""2024-11-12T18:25:24.765Z""","null","+","null","","","","","","",""
"","","","","","image-keyboard-response","128","312672","0.0-13.0-0.4-1.34","dyx4dlpmvc","","dyx4dlpmvc","""2024-11-12T18:25:24.765Z""","1411","materials/imgs/D4.png","arrowright","","[""materials/imgs/D101.png"",""materials/imgs/D24.png""]","false","random","","",""
"","","","","","html-keyboard-response","129","313182","0.0-13.0-1.4-0.4","dyx4dlpmvc","","dyx4dlpmvc","""2024-11-12T18:25:24.765Z""","null","+","null","","","","","","",""
"","","","","","image-keyboard-response","130","314518","0.0-13.0-1.4-1.4","dyx4dlpmvc","","dyx4dlpmvc","""2024-11-12T18:25:24.765Z""","1335","materials/imgs/D101.png","arrowright","","[""materials/imgs/D106.png"",""materials/imgs/D101.png""]","","check","materials/imgs/D101.png","1","true"
"","","","","","html-keyboard-response","131","315024","0.0-13.0-2.4-0.8","dyx4dlpmvc","","dyx4dlpmvc","""2024-11-12T18:25:24.765Z""","null","+","null","","","","","","",""
"","","","","","image-keyboard-response","132","317442","0.0-13.0-2.4-1.8","dyx4dlpmvc","","dyx4dlpmvc","""2024-11-12T18:25:24.765Z""","2416","materials/imgs/D111.png","arrowleft","","[""materials/imgs/D82.png"",""materials/imgs/D95.png""]","false","validation","","",""
"","","","","","html-keyboard-response","133","317949","0.0-13.0-2.4-0.9","dyx4dlpmvc","","dyx4dlpmvc","""2024-11-12T18:25:24.765Z""","null","+","null","","","","","","",""
"","","","","","image-keyboard-response","134","319224","0.0-13.0-2.4-1.9","dyx4dlpmvc","","dyx4dlpmvc","""2024-11-12T18:25:24.765Z""","1273","materials/imgs/D79.png","arrowright","","[""materials/imgs/D51.png"",""materials/imgs/D64.png""]","false","validation","","",""
"","","","","","html-button-response","135","321244","0.0-14.0","dyx4dlpmvc","","dyx4dlpmvc","""2024-11-12T18:25:24.765Z""","2019","You have completed 25% of the trials. Please click 'Continue' when you are ready proceed.","0","","","","","","",""
"","","","","","html-keyboard-response","136","321750","0.0-15.0-0.0-0.0","dyx4dlpmvc","","dyx4dlpmvc","""2024-11-12T18:25:24.765Z""","null","+","null","","","","","","",""
"","","","","","image-keyboard-response","137","322708","0.0-15.0-0.0-1.0","dyx4dlpmvc","","dyx4dlpmvc","""2024-11-12T18:25:24.765Z""","957","materials/imgs/D46.png","arrowright","","[""materials/imgs/D105.png"",""materials/imgs/D48.png""]","false","random","","",""
"","","","","","html-keyboard-response","138","323214","0.0-15.0-0.0-0.1","dyx4dlpmvc","","dyx4dlpmvc","""2024-11-12T18:25:24.765Z""","null","+","null","","","","","","",""
"","","","","","image-keyboard-response","139","323939","0.0-15.0-0.0-1.1","dyx4dlpmvc","","dyx4dlpmvc","""2024-11-12T18:25:24.765Z""","725","materials/imgs/D103.png","arrowright","","[""materials/imgs/D32.png"",""materials/imgs/D26.png""]","false","random","","",""
"","","","","","html-keyboard-response","140","324451","0.0-15.0-0.0-0.2","dyx4dlpmvc","","dyx4dlpmvc","""2024-11-12T18:25:24.765Z""","null","+","null","","","","","","",""
"","","","","","image-keyboard-response","141","325939","0.0-15.0-0.0-1.2","dyx4dlpmvc","","dyx4dlpmvc","""2024-11-12T18:25:24.765Z""","1487","materials/imgs/D57.png","arrowright","","[""materials/imgs/D66.png"",""materials/imgs/D25.png""]","false","random","","",""
"","","","","","html-keyboard-response","142","326445","0.0-15.0-0.0-0.3","dyx4dlpmvc","","dyx4dlpmvc","""2024-11-12T18:25:24.765Z""","null","+","null","","","","","","",""
"","","","","","image-keyboard-response","143","327968","0.0-15.0-0.0-1.3","dyx4dlpmvc","","dyx4dlpmvc","""2024-11-12T18:25:24.765Z""","1521","materials/imgs/D68.png","arrowleft","","[""materials/imgs/D66.png"",""materials/imgs/D20.png""]","false","random","","",""
"","","","","","html-keyboard-response","144","328470","0.0-15.0-0.0-0.4","dyx4dlpmvc","","dyx4dlpmvc","""2024-11-12T18:25:24.765Z""","null","+","null","","","","","","",""
"","","","","","image-keyboard-response","145","330364","0.0-15.0-0.0-1.4","dyx4dlpmvc","","dyx4dlpmvc","""2024-11-12T18:25:24.765Z""","1891","materials/imgs/D78.png","arrowright","","[""materials/imgs/D75.png"",""materials/imgs/D82.png""]","false","random","","",""
"","","","","","html-keyboard-response","146","330867","0.0-15.0-0.0-0.5","dyx4dlpmvc","","dyx4dlpmvc","""2024-11-12T18:25:24.765Z""","null","+","null","","","","","","",""
"","","","","","image-keyboard-response","147","331823","0.0-15.0-0.0-1.5","dyx4dlpmvc","","dyx4dlpmvc","""2024-11-12T18:25:24.765Z""","955","materials/imgs/D83.png","arrowright","","[""materials/imgs/D49.png"",""materials/imgs/D95.png""]","false","random","","",""
"","","","","","html-keyboard-response","148","332332","0.0-15.0-0.0-0.6","dyx4dlpmvc","","dyx4dlpmvc","""2024-11-12T18:25:24.765Z""","null","+","null","","","","","","",""
"","","","","","image-keyboard-response","149","333323","0.0-15.0-0.0-1.6","dyx4dlpmvc","","dyx4dlpmvc","""2024-11-12T18:25:24.765Z""","990","materials/imgs/D101.png","arrowleft","","[""materials/imgs/D11.png"",""materials/imgs/D36.png""]","false","random","","",""
"","","","","","html-keyboard-response","150","333826","0.0-15.0-1.0-0.0","dyx4dlpmvc","","dyx4dlpmvc","""2024-11-12T18:25:24.765Z""","null","+","null","","","","","","",""
"","","","","","image-keyboard-response","151","334726","0.0-15.0-1.0-1.0","dyx4dlpmvc","","dyx4dlpmvc","""2024-11-12T18:25:24.765Z""","898","materials/imgs/D8.png","arrowright","","[""materials/imgs/D18.png"",""materials/imgs/D8.png""]","","check","materials/imgs/D8.png","1","true"
"","","","","","html-keyboard-response","152","335227","0.0-15.0-2.0-0.0","dyx4dlpmvc","","dyx4dlpmvc","""2024-11-12T18:25:24.765Z""","null","+","null","","","","","","",""
"","","","","","image-keyboard-response","153","336212","0.0-15.0-2.0-1.0","dyx4dlpmvc","","dyx4dlpmvc","""2024-11-12T18:25:24.765Z""","983","materials/imgs/D35.png","arrowright","","[""materials/imgs/D83.png"",""materials/imgs/D24.png""]","false","validation","","",""
"","","","","","html-keyboard-response","154","336723","0.0-15.0-2.0-0.1","dyx4dlpmvc","","dyx4dlpmvc","""2024-11-12T18:25:24.765Z""","null","+","null","","","","","","",""
"","","","","","image-keyboard-response","155","337886","0.0-15.0-2.0-1.1","dyx4dlpmvc","","dyx4dlpmvc","""2024-11-12T18:25:24.765Z""","1162","materials/imgs/D52.png","arrowleft","","[""materials/imgs/D9.png"",""materials/imgs/D19.png""]","false","validation","","",""
"","","","","","html-keyboard-response","156","338394","0.0-15.0-0.1-0.7","dyx4dlpmvc","","dyx4dlpmvc","""2024-11-12T18:25:24.765Z""","null","+","null","","","","","","",""
"","","","","","image-keyboard-response","157","339743","0.0-15.0-0.1-1.7","dyx4dlpmvc","","dyx4dlpmvc","""2024-11-12T18:25:24.765Z""","1347","materials/imgs/D4.png","arrowleft","","[""materials/imgs/D46.png"",""materials/imgs/D53.png""]","false","random","","",""
"","","","","","html-keyboard-response","158","340252","0.0-15.0-0.1-0.8","dyx4dlpmvc","","dyx4dlpmvc","""2024-11-12T18:25:24.765Z""","null","+","null","","","","","","",""
"","","","","","image-keyboard-response","159","341487","0.0-15.0-0.1-1.8","dyx4dlpmvc","","dyx4dlpmvc","""2024-11-12T18:25:24.765Z""","1234","materials/imgs/D52.png","arrowright","","[""materials/imgs/D37.png"",""materials/imgs/D36.png""]","false","random","","",""
"","","","","","html-keyboard-response","160","341994","0.0-15.0-0.1-0.9","dyx4dlpmvc","","dyx4dlpmvc","""2024-11-12T18:25:24.765Z""","null","+","null","","","","","","",""
"","","","","","image-keyboard-response","161","343194","0.0-15.0-0.1-1.9","dyx4dlpmvc","","dyx4dlpmvc","""2024-11-12T18:25:24.765Z""","1198","materials/imgs/D32.png","arrowright","","[""materials/imgs/D11.png"",""materials/imgs/D103.png""]","false","random","","",""
"","","","","","html-keyboard-response","162","343708","0.0-15.0-0.1-0.10","dyx4dlpmvc","","dyx4dlpmvc","""2024-11-12T18:25:24.765Z""","null","+","null","","","","","","",""
"","","","","","image-keyboard-response","163","347230","0.0-15.0-0.1-1.10","dyx4dlpmvc","","dyx4dlpmvc","""2024-11-12T18:25:24.765Z""","3521","materials/imgs/D79.png","arrowright","","[""materials/imgs/D66.png"",""materials/imgs/D16.png""]","false","random","","",""
"","","","","","html-keyboard-response","164","347736","0.0-15.0-0.1-0.11","dyx4dlpmvc","","dyx4dlpmvc","""2024-11-12T18:25:24.765Z""","null","+","null","","","","","","",""
"","","","","","image-keyboard-response","165","348873","0.0-15.0-0.1-1.11","dyx4dlpmvc","","dyx4dlpmvc","""2024-11-12T18:25:24.765Z""","1135","materials/imgs/D74.png","arrowleft","","[""materials/imgs/D22.png"",""materials/imgs/D101.png""]","false","random","","",""
"","","","","","html-keyboard-response","166","349375","0.0-15.0-0.1-0.12","dyx4dlpmvc","","dyx4dlpmvc","""2024-11-12T18:25:24.765Z""","null","+","null","","","","","","",""
"","","","","","image-keyboard-response","167","352596","0.0-15.0-0.1-1.12","dyx4dlpmvc","","dyx4dlpmvc","""2024-11-12T18:25:24.765Z""","3219","materials/imgs/D20.png","arrowright","","[""materials/imgs/D105.png"",""materials/imgs/D22.png""]","false","random","","",""
"","","","","","html-keyboard-response","168","353110","0.0-15.0-0.1-0.13","dyx4dlpmvc","","dyx4dlpmvc","""2024-11-12T18:25:24.765Z""","null","+","null","","","","","","",""
"","","","","","image-keyboard-response","169","354184","0.0-15.0-0.1-1.13","dyx4dlpmvc","","dyx4dlpmvc","""2024-11-12T18:25:24.765Z""","1072","materials/imgs/D87.png","arrowright","","[""materials/imgs/D78.png"",""materials/imgs/D6.png""]","false","random","","",""
"","","","","","html-keyboard-response","170","354691","0.0-15.0-1.1-0.1","dyx4dlpmvc","","dyx4dlpmvc","""2024-11-12T18:25:24.765Z""","null","+","null","","","","","","",""
"","","","","","image-keyboard-response","171","355675","0.0-15.0-1.1-1.1","dyx4dlpmvc","","dyx4dlpmvc","""2024-11-12T18:25:24.765Z""","983","materials/imgs/D18.png","arrowright","","[""materials/imgs/D8.png"",""materials/imgs/D18.png""]","","check","materials/imgs/D18.png","1","true"
"","","","","","html-keyboard-response","172","356187","0.0-15.0-2.1-0.2","dyx4dlpmvc","","dyx4dlpmvc","""2024-11-12T18:25:24.765Z""","null","+","null","","","","","","",""
"","","","","","image-keyboard-response","173","357847","0.0-15.0-2.1-1.2","dyx4dlpmvc","","dyx4dlpmvc","""2024-11-12T18:25:24.765Z""","1659","materials/imgs/D57.png","arrowright","","[""materials/imgs/D111.png"",""materials/imgs/D4.png""]","false","validation","","",""
"","","","","","html-keyboard-response","174","358356","0.0-15.0-2.1-0.3","dyx4dlpmvc","","dyx4dlpmvc","""2024-11-12T18:25:24.765Z""","null","+","null","","","","","","",""
"","","","","","image-keyboard-response","175","359478","0.0-15.0-2.1-1.3","dyx4dlpmvc","","dyx4dlpmvc","""2024-11-12T18:25:24.765Z""","1120","materials/imgs/D19.png","arrowright","","[""materials/imgs/D111.png"",""materials/imgs/D56.png""]","false","validation","","",""
"","","","","","html-keyboard-response","176","359979","0.0-15.0-0.2-0.14","dyx4dlpmvc","","dyx4dlpmvc","""2024-11-12T18:25:24.765Z""","null","+","null","","","","","","",""
"","","","","","image-keyboard-response","177","361096","0.0-15.0-0.2-1.14","dyx4dlpmvc","","dyx4dlpmvc","""2024-11-12T18:25:24.765Z""","1116","materials/imgs/D111.png","arrowright","","[""materials/imgs/D64.png"",""materials/imgs/D66.png""]","false","random","","",""
"","","","","","html-keyboard-response","178","361599","0.0-15.0-0.2-0.15","dyx4dlpmvc","","dyx4dlpmvc","""2024-11-12T18:25:24.765Z""","null","+","null","","","","","","",""
"","","","","","image-keyboard-response","179","362600","0.0-15.0-0.2-1.15","dyx4dlpmvc","","dyx4dlpmvc","""2024-11-12T18:25:24.765Z""","1000","materials/imgs/D79.png","arrowright","","[""materials/imgs/D49.png"",""materials/imgs/D3.png""]","false","random","","",""
"","","","","","html-keyboard-response","180","363109","0.0-15.0-0.2-0.16","dyx4dlpmvc","","dyx4dlpmvc","""2024-11-12T18:25:24.765Z""","null","+","null","","","","","","",""
"","","","","","image-keyboard-response","181","364107","0.0-15.0-0.2-1.16","dyx4dlpmvc","","dyx4dlpmvc","""2024-11-12T18:25:24.765Z""","996","materials/imgs/D51.png","arrowleft","","[""materials/imgs/D55.png"",""materials/imgs/D87.png""]","false","random","","",""
"","","","","","html-keyboard-response","182","364622","0.0-15.0-0.2-0.17","dyx4dlpmvc","","dyx4dlpmvc","""2024-11-12T18:25:24.765Z""","null","+","null","","","","","","",""
"","","","","","image-keyboard-response","183","366107","0.0-15.0-0.2-1.17","dyx4dlpmvc","","dyx4dlpmvc","""2024-11-12T18:25:24.765Z""","1484","materials/imgs/D85.png","arrowright","","[""materials/imgs/D25.png"",""materials/imgs/D104.png""]","false","random","","",""
"","","","","","html-keyboard-response","184","366621","0.0-15.0-0.2-0.18","dyx4dlpmvc","","dyx4dlpmvc","""2024-11-12T18:25:24.765Z""","null","+","null","","","","","","",""
"","","","","","image-keyboard-response","185","368111","0.0-15.0-0.2-1.18","dyx4dlpmvc","","dyx4dlpmvc","""2024-11-12T18:25:24.765Z""","1489","materials/imgs/D47.png","arrowleft","","[""materials/imgs/D75.png"",""materials/imgs/D56.png""]","false","random","","",""
"","","","","","html-keyboard-response","186","368621","0.0-15.0-0.2-0.19","dyx4dlpmvc","","dyx4dlpmvc","""2024-11-12T18:25:24.765Z""","null","+","null","","","","","","",""
"","","","","","image-keyboard-response","187","369894","0.0-15.0-0.2-1.19","dyx4dlpmvc","","dyx4dlpmvc","""2024-11-12T18:25:24.765Z""","1272","materials/imgs/D111.png","arrowright","","[""materials/imgs/D106.png"",""materials/imgs/D57.png""]","false","random","","",""
"","","","","","html-keyboard-response","188","370398","0.0-15.0-0.2-0.20","dyx4dlpmvc","","dyx4dlpmvc","""2024-11-12T18:25:24.765Z""","null","+","null","","","","","","",""
"","","","","","image-keyboard-response","189","372424","0.0-15.0-0.2-1.20","dyx4dlpmvc","","dyx4dlpmvc","""2024-11-12T18:25:24.765Z""","2024","materials/imgs/D37.png","arrowleft","","[""materials/imgs/D18.png"",""materials/imgs/D85.png""]","false","random","","",""
"","","","","","html-keyboard-response","190","372926","0.0-15.0-1.2-0.2","dyx4dlpmvc","","dyx4dlpmvc","""2024-11-12T18:25:24.765Z""","null","+","null","","","","","","",""
"","","","","","image-keyboard-response","191","374617","0.0-15.0-1.2-1.2","dyx4dlpmvc","","dyx4dlpmvc","""2024-11-12T18:25:24.765Z""","1689","materials/imgs/D18.png","arrowright","","[""materials/imgs/D8.png"",""materials/imgs/D18.png""]","","check","materials/imgs/D18.png","1","true"
"","","","","","html-keyboard-response","192","375123","0.0-15.0-2.2-0.4","dyx4dlpmvc","","dyx4dlpmvc","""2024-11-12T18:25:24.765Z""","null","+","null","","","","","","",""
"","","","","","image-keyboard-response","193","376600","0.0-15.0-2.2-1.4","dyx4dlpmvc","","dyx4dlpmvc","""2024-11-12T18:25:24.765Z""","1476","materials/imgs/D81.png","arrowright","","[""materials/imgs/D105.png"",""materials/imgs/D24.png""]","false","validation","","",""
"","","","","","html-keyboard-response","194","377103","0.0-15.0-2.2-0.5","dyx4dlpmvc","","dyx4dlpmvc","""2024-11-12T18:25:24.765Z""","null","+","null","","","","","","",""
"","","","","","image-keyboard-response","195","380836","0.0-15.0-2.2-1.5","dyx4dlpmvc","","dyx4dlpmvc","""2024-11-12T18:25:24.765Z""","3721","materials/imgs/D18.png","arrowleft","","[""materials/imgs/D32.png"",""materials/imgs/D57.png""]","false","validation","","",""
"","","","","","html-keyboard-response","196","381342","0.0-15.0-0.3-0.21","dyx4dlpmvc","","dyx4dlpmvc","""2024-11-12T18:25:24.765Z""","null","+","null","","","","","","",""
"","","","","","image-keyboard-response","197","383017","0.0-15.0-0.3-1.21","dyx4dlpmvc","","dyx4dlpmvc","""2024-11-12T18:25:24.765Z""","1674","materials/imgs/D103.png","arrowleft","","[""materials/imgs/D46.png"",""materials/imgs/D95.png""]","false","random","","",""
"","","","","","html-keyboard-response","198","383524","0.0-15.0-0.3-0.22","dyx4dlpmvc","","dyx4dlpmvc","""2024-11-12T18:25:24.765Z""","null","+","null","","","","","","",""
"","","","","","image-keyboard-response","199","385133","0.0-15.0-0.3-1.22","dyx4dlpmvc","","dyx4dlpmvc","""2024-11-12T18:25:24.765Z""","1607","materials/imgs/D103.png","arrowleft","","[""materials/imgs/D4.png"",""materials/imgs/D26.png""]","false","random","","",""
"","","","","","html-keyboard-response","200","385643","0.0-15.0-0.3-0.23","dyx4dlpmvc","","dyx4dlpmvc","""2024-11-12T18:25:24.765Z""","null","+","null","","","","","","",""
"","","","","","image-keyboard-response","201","387814","0.0-15.0-0.3-1.23","dyx4dlpmvc","","dyx4dlpmvc","""2024-11-12T18:25:24.765Z""","2170","materials/imgs/D80.png","arrowright","","[""materials/imgs/D65.png"",""materials/imgs/D51.png""]","false","random","","",""
"","","","","","html-keyboard-response","202","388319","0.0-15.0-0.3-0.24","dyx4dlpmvc","","dyx4dlpmvc","""2024-11-12T18:25:24.765Z""","null","+","null","","","","","","",""
"","","","","","image-keyboard-response","203","389261","0.0-15.0-0.3-1.24","dyx4dlpmvc","","dyx4dlpmvc","""2024-11-12T18:25:24.765Z""","941","materials/imgs/D46.png","arrowleft","","[""materials/imgs/D81.png"",""materials/imgs/D85.png""]","false","random","","",""
"","","","","","html-keyboard-response","204","389766","0.0-15.0-0.3-0.25","dyx4dlpmvc","","dyx4dlpmvc","""2024-11-12T18:25:24.765Z""","null","+","null","","","","","","",""
"","","","","","image-keyboard-response","205","391800","0.0-15.0-0.3-1.25","dyx4dlpmvc","","dyx4dlpmvc","""2024-11-12T18:25:24.765Z""","2032","materials/imgs/D85.png","arrowleft","","[""materials/imgs/D57.png"",""materials/imgs/D6.png""]","false","random","","",""
"","","","","","html-keyboard-response","206","392309","0.0-15.0-0.3-0.26","dyx4dlpmvc","","dyx4dlpmvc","""2024-11-12T18:25:24.765Z""","null","+","null","","","","","","",""
"","","","","","image-keyboard-response","207","394527","0.0-15.0-0.3-1.26","dyx4dlpmvc","","dyx4dlpmvc","""2024-11-12T18:25:24.765Z""","2216","materials/imgs/D25.png","arrowleft","","[""materials/imgs/D9.png"",""materials/imgs/D47.png""]","false","random","","",""
"","","","","","html-keyboard-response","208","395037","0.0-15.0-0.3-0.27","dyx4dlpmvc","","dyx4dlpmvc","""2024-11-12T18:25:24.765Z""","null","+","null","","","","","","",""
"","","","","","image-keyboard-response","209","397559","0.0-15.0-0.3-1.27","dyx4dlpmvc","","dyx4dlpmvc","""2024-11-12T18:25:24.765Z""","2521","materials/imgs/D75.png","arrowleft","","[""materials/imgs/D80.png"",""materials/imgs/D47.png""]","false","random","","",""
"","","","","","html-keyboard-response","210","398069","0.0-15.0-1.3-0.3","dyx4dlpmvc","","dyx4dlpmvc","""2024-11-12T18:25:24.765Z""","null","+","null","","","","","","",""
"","","","","","image-keyboard-response","211","399230","0.0-15.0-1.3-1.3","dyx4dlpmvc","","dyx4dlpmvc","""2024-11-12T18:25:24.765Z""","1160","materials/imgs/D26.png","arrowleft","","[""materials/imgs/D26.png"",""materials/imgs/D46.png""]","","check","materials/imgs/D26.png","0","true"
"","","","","","html-keyboard-response","212","399737","0.0-15.0-2.3-0.6","dyx4dlpmvc","","dyx4dlpmvc","""2024-11-12T18:25:24.765Z""","null","+","null","","","","","","",""
"","","","","","image-keyboard-response","213","401062","0.0-15.0-2.3-1.6","dyx4dlpmvc","","dyx4dlpmvc","""2024-11-12T18:25:24.765Z""","1325","materials/imgs/D76.png","arrowright","","[""materials/imgs/D83.png"",""materials/imgs/D6.png""]","false","validation","","",""
"","","","","","html-keyboard-response","214","401577","0.0-15.0-2.3-0.7","dyx4dlpmvc","","dyx4dlpmvc","""2024-11-12T18:25:24.765Z""","null","+","null","","","","","","",""
"","","","","","image-keyboard-response","215","404683","0.0-15.0-2.3-1.7","dyx4dlpmvc","","dyx4dlpmvc","""2024-11-12T18:25:24.765Z""","3104","materials/imgs/D25.png","arrowleft","","[""materials/imgs/D103.png"",""materials/imgs/D64.png""]","false","validation","","",""
"","","","","","html-keyboard-response","216","405195","0.0-15.0-0.4-0.28","dyx4dlpmvc","","dyx4dlpmvc","""2024-11-12T18:25:24.765Z""","null","+","null","","","","","","",""
"","","","","","image-keyboard-response","217","406643","0.0-15.0-0.4-1.28","dyx4dlpmvc","","dyx4dlpmvc","""2024-11-12T18:25:24.765Z""","1446","materials/imgs/D106.png","arrowright","","[""materials/imgs/D26.png"",""materials/imgs/D84.png""]","false","random","","",""
"","","","","","html-keyboard-response","218","407152","0.0-15.0-0.4-0.29","dyx4dlpmvc","","dyx4dlpmvc","""2024-11-12T18:25:24.765Z""","null","+","null","","","","","","",""
"","","","","","image-keyboard-response","219","410997","0.0-15.0-0.4-1.29","dyx4dlpmvc","","dyx4dlpmvc","""2024-11-12T18:25:24.765Z""","3844","materials/imgs/D85.png","arrowleft","","[""materials/imgs/D64.png"",""materials/imgs/D52.png""]","false","random","","",""
"","","","","","html-keyboard-response","220","411506","0.0-15.0-0.4-0.30","dyx4dlpmvc","","dyx4dlpmvc","""2024-11-12T18:25:24.765Z""","null","+","null","","","","","","",""
"","","","","","image-keyboard-response","221","413741","0.0-15.0-0.4-1.30","dyx4dlpmvc","","dyx4dlpmvc","""2024-11-12T18:25:24.765Z""","2233","materials/imgs/D74.png","arrowright","","[""materials/imgs/D84.png"",""materials/imgs/D22.png""]","false","random","","",""
"","","","","","html-keyboard-response","222","414245","0.0-15.0-0.4-0.31","dyx4dlpmvc","","dyx4dlpmvc","""2024-11-12T18:25:24.765Z""","null","+","null","","","","","","",""
"","","","","","image-keyboard-response","223","415743","0.0-15.0-0.4-1.31","dyx4dlpmvc","","dyx4dlpmvc","""2024-11-12T18:25:24.765Z""","1497","materials/imgs/D57.png","arrowright","","[""materials/imgs/D79.png"",""materials/imgs/D29.png""]","false","random","","",""
"","","","","","html-keyboard-response","224","416254","0.0-15.0-0.4-0.32","dyx4dlpmvc","","dyx4dlpmvc","""2024-11-12T18:25:24.765Z""","null","+","null","","","","","","",""
"","","","","","image-keyboard-response","225","417021","0.0-15.0-0.4-1.32","dyx4dlpmvc","","dyx4dlpmvc","""2024-11-12T18:25:24.765Z""","767","materials/imgs/D49.png","arrowright","","[""materials/imgs/D18.png"",""materials/imgs/D55.png""]","false","random","","",""
"","","","","","html-keyboard-response","226","417532","0.0-15.0-0.4-0.33","dyx4dlpmvc","","dyx4dlpmvc","""2024-11-12T18:25:24.765Z""","null","+","null","","","","","","",""
"","","","","","image-keyboard-response","227","418635","0.0-15.0-0.4-1.33","dyx4dlpmvc","","dyx4dlpmvc","""2024-11-12T18:25:24.765Z""","1102","materials/imgs/D102.png","arrowleft","","[""materials/imgs/D1.png"",""materials/imgs/D6.png""]","false","random","","",""
"","","","","","html-keyboard-response","228","419150","0.0-15.0-0.4-0.34","dyx4dlpmvc","","dyx4dlpmvc","""2024-11-12T18:25:24.765Z""","null","+","null","","","","","","",""
"","","","","","image-keyboard-response","229","421536","0.0-15.0-0.4-1.34","dyx4dlpmvc","","dyx4dlpmvc","""2024-11-12T18:25:24.765Z""","2385","materials/imgs/D85.png","arrowleft","","[""materials/imgs/D53.png"",""materials/imgs/D22.png""]","false","random","","",""
"","","","","","html-keyboard-response","230","422039","0.0-15.0-1.4-0.4","dyx4dlpmvc","","dyx4dlpmvc","""2024-11-12T18:25:24.765Z""","null","+","null","","","","","","",""
"","","","","","image-keyboard-response","231","422714","0.0-15.0-1.4-1.4","dyx4dlpmvc","","dyx4dlpmvc","""2024-11-12T18:25:24.765Z""","674","materials/imgs/D106.png","arrowleft","","[""materials/imgs/D106.png"",""materials/imgs/D101.png""]","","check","materials/imgs/D106.png","0","true"
"","","","","","html-keyboard-response","232","423224","0.0-15.0-2.4-0.8","dyx4dlpmvc","","dyx4dlpmvc","""2024-11-12T18:25:24.765Z""","null","+","null","","","","","","",""
"","","","","","image-keyboard-response","233","425554","0.0-15.0-2.4-1.8","dyx4dlpmvc","","dyx4dlpmvc","""2024-11-12T18:25:24.765Z""","2329","materials/imgs/D66.png","arrowleft","","[""materials/imgs/D85.png"",""materials/imgs/D25.png""]","false","validation","","",""
"","","","","","html-keyboard-response","234","426059","0.0-15.0-2.4-0.9","dyx4dlpmvc","","dyx4dlpmvc","""2024-11-12T18:25:24.765Z""","null","+","null","","","","","","",""
"","","","","","image-keyboard-response","235","427811","0.0-15.0-2.4-1.9","dyx4dlpmvc","","dyx4dlpmvc","""2024-11-12T18:25:24.765Z""","1751","materials/imgs/D82.png","arrowleft","","[""materials/imgs/D83.png"",""materials/imgs/D22.png""]","false","validation","","",""
"","","","","","html-button-response","236","429584","0.0-16.0","dyx4dlpmvc","","dyx4dlpmvc","""2024-11-12T18:25:24.765Z""","1772","You have completed 50% of the trials. Please click 'Continue' when you are ready proceed.","0","","","","","","",""
"","","","","","html-keyboard-response","237","430089","0.0-17.0-0.0-0.0","dyx4dlpmvc","","dyx4dlpmvc","""2024-11-12T18:25:24.765Z""","null","+","null","","","","","","",""
"","","","","","image-keyboard-response","238","431158","0.0-17.0-0.0-1.0","dyx4dlpmvc","","dyx4dlpmvc","""2024-11-12T18:25:24.765Z""","1067","materials/imgs/D22.png","arrowleft","","[""materials/imgs/D92.png"",""materials/imgs/D11.png""]","false","random","","",""
"","","","","","html-keyboard-response","239","431663","0.0-17.0-0.0-0.1","dyx4dlpmvc","","dyx4dlpmvc","""2024-11-12T18:25:24.765Z""","null","+","null","","","","","","",""
"","","","","","image-keyboard-response","240","434618","0.0-17.0-0.0-1.1","dyx4dlpmvc","","dyx4dlpmvc","""2024-11-12T18:25:24.765Z""","2954","materials/imgs/D84.png","arrowleft","","[""materials/imgs/D83.png"",""materials/imgs/D29.png""]","false","random","","",""
"","","","","","html-keyboard-response","241","435132","0.0-17.0-0.0-0.2","dyx4dlpmvc","","dyx4dlpmvc","""2024-11-12T18:25:24.765Z""","null","+","null","","","","","","",""
"","","","","","image-keyboard-response","242","436424","0.0-17.0-0.0-1.2","dyx4dlpmvc","","dyx4dlpmvc","""2024-11-12T18:25:24.765Z""","1291","materials/imgs/D65.png","arrowright","","[""materials/imgs/D17.png"",""materials/imgs/D83.png""]","false","random","","",""
"","","","","","html-keyboard-response","243","436938","0.0-17.0-0.0-0.3","dyx4dlpmvc","","dyx4dlpmvc","""2024-11-12T18:25:24.765Z""","null","+","null","","","","","","",""
"","","","","","image-keyboard-response","244","438236","0.0-17.0-0.0-1.3","dyx4dlpmvc","","dyx4dlpmvc","""2024-11-12T18:25:24.765Z""","1297","materials/imgs/D35.png","arrowright","","[""materials/imgs/D65.png"",""materials/imgs/D36.png""]","false","random","","",""
"","","","","","html-keyboard-response","245","438748","0.0-17.0-0.0-0.4","dyx4dlpmvc","","dyx4dlpmvc","""2024-11-12T18:25:24.765Z""","null","+","null","","","","","","",""
"","","","","","image-keyboard-response","246","439880","0.0-17.0-0.0-1.4","dyx4dlpmvc","","dyx4dlpmvc","""2024-11-12T18:25:24.765Z""","1131","materials/imgs/D87.png","arrowleft","","[""materials/imgs/D36.png"",""materials/imgs/D17.png""]","false","random","","",""
"","","","","","html-keyboard-response","247","440391","0.0-17.0-0.0-0.5","dyx4dlpmvc","","dyx4dlpmvc","""2024-11-12T18:25:24.765Z""","null","+","null","","","","","","",""
"","","","","","image-keyboard-response","248","444649","0.0-17.0-0.0-1.5","dyx4dlpmvc","","dyx4dlpmvc","""2024-11-12T18:25:24.765Z""","4256","materials/imgs/D94.png","arrowright","","[""materials/imgs/D80.png"",""materials/imgs/D83.png""]","false","random","","",""
"","","","","","html-keyboard-response","249","445155","0.0-17.0-0.0-0.6","dyx4dlpmvc","","dyx4dlpmvc","""2024-11-12T18:25:24.765Z""","null","+","null","","","","","","",""
"","","","","","image-keyboard-response","250","446409","0.0-17.0-0.0-1.6","dyx4dlpmvc","","dyx4dlpmvc","""2024-11-12T18:25:24.765Z""","1252","materials/imgs/D1.png","arrowright","","[""materials/imgs/D53.png"",""materials/imgs/D18.png""]","false","random","","",""
"","","","","","html-keyboard-response","251","446919","0.0-17.0-1.0-0.0","dyx4dlpmvc","","dyx4dlpmvc","""2024-11-12T18:25:24.765Z""","null","+","null","","","","","","",""
"","","","","","image-keyboard-response","252","447508","0.0-17.0-1.0-1.0","dyx4dlpmvc","","dyx4dlpmvc","""2024-11-12T18:25:24.765Z""","588","materials/imgs/D8.png","arrowright","","[""materials/imgs/D18.png"",""materials/imgs/D8.png""]","","check","materials/imgs/D8.png","1","true"
"","","","","","html-keyboard-response","253","448009","0.0-17.0-2.0-0.0","dyx4dlpmvc","","dyx4dlpmvc","""2024-11-12T18:25:24.765Z""","null","+","null","","","","","","",""
"","","","","","image-keyboard-response","254","449351","0.0-17.0-2.0-1.0","dyx4dlpmvc","","dyx4dlpmvc","""2024-11-12T18:25:24.765Z""","1342","materials/imgs/D18.png","arrowright","","[""materials/imgs/D32.png"",""materials/imgs/D57.png""]","false","validation","","",""
"","","","","","html-keyboard-response","255","449856","0.0-17.0-2.0-0.1","dyx4dlpmvc","","dyx4dlpmvc","""2024-11-12T18:25:24.765Z""","null","+","null","","","","","","",""
"","","","","","image-keyboard-response","256","452907","0.0-17.0-2.0-1.1","dyx4dlpmvc","","dyx4dlpmvc","""2024-11-12T18:25:24.765Z""","3049","materials/imgs/D49.png","arrowright","","[""materials/imgs/D8.png"",""materials/imgs/D101.png""]","false","validation","","",""
"","","","","","html-keyboard-response","257","453418","0.0-17.0-0.1-0.7","dyx4dlpmvc","","dyx4dlpmvc","""2024-11-12T18:25:24.765Z""","null","+","null","","","","","","",""
"","","","","","image-keyboard-response","258","455175","0.0-17.0-0.1-1.7","dyx4dlpmvc","","dyx4dlpmvc","""2024-11-12T18:25:24.765Z""","1757","materials/imgs/D20.png","arrowleft","","[""materials/imgs/D34.png"",""materials/imgs/D3.png""]","false","random","","",""
"","","","","","html-keyboard-response","259","455681","0.0-17.0-0.1-0.8","dyx4dlpmvc","","dyx4dlpmvc","""2024-11-12T18:25:24.765Z""","null","+","null","","","","","","",""
"","","","","","image-keyboard-response","260","458526","0.0-17.0-0.1-1.8","dyx4dlpmvc","","dyx4dlpmvc","""2024-11-12T18:25:24.765Z""","2844","materials/imgs/D3.png","arrowright","","[""materials/imgs/D94.png"",""materials/imgs/D64.png""]","false","random","","",""
"","","","","","html-keyboard-response","261","459039","0.0-17.0-0.1-0.9","dyx4dlpmvc","","dyx4dlpmvc","""2024-11-12T18:25:24.765Z""","null","+","null","","","","","","",""
"","","","","","image-keyboard-response","262","460301","0.0-17.0-0.1-1.9","dyx4dlpmvc","","dyx4dlpmvc","""2024-11-12T18:25:24.765Z""","1262","materials/imgs/D111.png","arrowleft","","[""materials/imgs/D4.png"",""materials/imgs/D96.png""]","false","random","","",""
"","","","","","html-keyboard-response","263","460802","0.0-17.0-0.1-0.10","dyx4dlpmvc","","dyx4dlpmvc","""2024-11-12T18:25:24.765Z""","null","+","null","","","","","","",""
"","","","","","image-keyboard-response","264","462100","0.0-17.0-0.1-1.10","dyx4dlpmvc","","dyx4dlpmvc","""2024-11-12T18:25:24.765Z""","1296","materials/imgs/D14.png","arrowright","","[""materials/imgs/D102.png"",""materials/imgs/D20.png""]","false","random","","",""
"","","","","","html-keyboard-response","265","462606","0.0-17.0-0.1-0.11","dyx4dlpmvc","","dyx4dlpmvc","""2024-11-12T18:25:24.765Z""","null","+","null","","","","","","",""
"","","","","","image-keyboard-response","266","464287","0.0-17.0-0.1-1.11","dyx4dlpmvc","","dyx4dlpmvc","""2024-11-12T18:25:24.765Z""","1680","materials/imgs/D29.png","arrowleft","","[""materials/imgs/D68.png"",""materials/imgs/D1.png""]","false","random","","",""
"","","","","","html-keyboard-response","267","464795","0.0-17.0-0.1-0.12","dyx4dlpmvc","","dyx4dlpmvc","""2024-11-12T18:25:24.765Z""","null","+","null","","","","","","",""
"","","","","","image-keyboard-response","268","467045","0.0-17.0-0.1-1.12","dyx4dlpmvc","","dyx4dlpmvc","""2024-11-12T18:25:24.765Z""","2249","materials/imgs/D106.png","arrowright","","[""materials/imgs/D26.png"",""materials/imgs/D49.png""]","false","random","","",""
"","","","","","html-keyboard-response","269","467547","0.0-17.0-0.1-0.13","dyx4dlpmvc","","dyx4dlpmvc","""2024-11-12T18:25:24.765Z""","null","+","null","","","","","","",""
"","","","","","image-keyboard-response","270","471276","0.0-17.0-0.1-1.13","dyx4dlpmvc","","dyx4dlpmvc","""2024-11-12T18:25:24.765Z""","3728","materials/imgs/D84.png","arrowright","","[""materials/imgs/D106.png"",""materials/imgs/D64.png""]","false","random","","",""
"","","","","","html-keyboard-response","271","471784","0.0-17.0-1.1-0.1","dyx4dlpmvc","","dyx4dlpmvc","""2024-11-12T18:25:24.765Z""","null","+","null","","","","","","",""
"","","","","","image-keyboard-response","272","472874","0.0-17.0-1.1-1.1","dyx4dlpmvc","","dyx4dlpmvc","""2024-11-12T18:25:24.765Z""","1088","materials/imgs/D18.png","arrowright","","[""materials/imgs/D8.png"",""materials/imgs/D18.png""]","","check","materials/imgs/D18.png","1","true"
"","","","","","html-keyboard-response","273","473377","0.0-17.0-2.1-0.2","dyx4dlpmvc","","dyx4dlpmvc","""2024-11-12T18:25:24.765Z""","null","+","null","","","","","","",""
"","","","","","image-keyboard-response","274","474316","0.0-17.0-2.1-1.2","dyx4dlpmvc","","dyx4dlpmvc","""2024-11-12T18:25:24.765Z""","937","materials/imgs/D20.png","arrowleft","","[""materials/imgs/D84.png"",""materials/imgs/D85.png""]","false","validation","","",""
"","","","","","html-keyboard-response","275","474827","0.0-17.0-2.1-0.3","dyx4dlpmvc","","dyx4dlpmvc","""2024-11-12T18:25:24.765Z""","null","+","null","","","","","","",""
"","","","","","image-keyboard-response","276","476929","0.0-17.0-2.1-1.3","dyx4dlpmvc","","dyx4dlpmvc","""2024-11-12T18:25:24.765Z""","2102","materials/imgs/D48.png","arrowright","","[""materials/imgs/D4.png"",""materials/imgs/D37.png""]","false","validation","","",""
"","","","","","html-keyboard-response","277","477444","0.0-17.0-0.2-0.14","dyx4dlpmvc","","dyx4dlpmvc","""2024-11-12T18:25:24.765Z""","null","+","null","","","","","","",""
"","","","","","image-keyboard-response","278","479863","0.0-17.0-0.2-1.14","dyx4dlpmvc","","dyx4dlpmvc","""2024-11-12T18:25:24.765Z""","2418","materials/imgs/D24.png","arrowleft","","[""materials/imgs/D6.png"",""materials/imgs/D82.png""]","false","random","","",""
"","","","","","html-keyboard-response","279","480373","0.0-17.0-0.2-0.15","dyx4dlpmvc","","dyx4dlpmvc","""2024-11-12T18:25:24.765Z""","null","+","null","","","","","","",""
"","","","","","image-keyboard-response","280","481342","0.0-17.0-0.2-1.15","dyx4dlpmvc","","dyx4dlpmvc","""2024-11-12T18:25:24.765Z""","967","materials/imgs/D9.png","arrowleft","","[""materials/imgs/D66.png"",""materials/imgs/D51.png""]","false","random","","",""
"","","","","","html-keyboard-response","281","481843","0.0-17.0-0.2-0.16","dyx4dlpmvc","","dyx4dlpmvc","""2024-11-12T18:25:24.765Z""","null","+","null","","","","","","",""
"","","","","","image-keyboard-response","282","483070","0.0-17.0-0.2-1.16","dyx4dlpmvc","","dyx4dlpmvc","""2024-11-12T18:25:24.765Z""","1226","materials/imgs/D48.png","arrowright","","[""materials/imgs/D4.png"",""materials/imgs/D105.png""]","false","random","","",""
"","","","","","html-keyboard-response","283","483576","0.0-17.0-0.2-0.17","dyx4dlpmvc","","dyx4dlpmvc","""2024-11-12T18:25:24.765Z""","null","+","null","","","","","","",""
"","","","","","image-keyboard-response","284","486943","0.0-17.0-0.2-1.17","dyx4dlpmvc","","dyx4dlpmvc","""2024-11-12T18:25:24.765Z""","3365","materials/imgs/D3.png","arrowright","","[""materials/imgs/D102.png"",""materials/imgs/D87.png""]","false","random","","",""
"","","","","","html-keyboard-response","285","487445","0.0-17.0-0.2-0.18","dyx4dlpmvc","","dyx4dlpmvc","""2024-11-12T18:25:24.765Z""","null","+","null","","","","","","",""
"","","","","","image-keyboard-response","286","488278","0.0-17.0-0.2-1.18","dyx4dlpmvc","","dyx4dlpmvc","""2024-11-12T18:25:24.765Z""","832","materials/imgs/D106.png","arrowright","","[""materials/imgs/D96.png"",""materials/imgs/D85.png""]","false","random","","",""
"","","","","","html-keyboard-response","287","488785","0.0-17.0-0.2-0.19","dyx4dlpmvc","","dyx4dlpmvc","""2024-11-12T18:25:24.765Z""","null","+","null","","","","","","",""
"","","","","","image-keyboard-response","288","489908","0.0-17.0-0.2-1.19","dyx4dlpmvc","","dyx4dlpmvc","""2024-11-12T18:25:24.765Z""","1121","materials/imgs/D46.png","arrowleft","","[""materials/imgs/D37.png"",""materials/imgs/D55.png""]","false","random","","",""
"","","","","","html-keyboard-response","289","490409","0.0-17.0-0.2-0.20","dyx4dlpmvc","","dyx4dlpmvc","""2024-11-12T18:25:24.765Z""","null","+","null","","","","","","",""
"","","","","","image-keyboard-response","290","493537","0.0-17.0-0.2-1.20","dyx4dlpmvc","","dyx4dlpmvc","""2024-11-12T18:25:24.765Z""","3127","materials/imgs/D94.png","arrowright","","[""materials/imgs/D9.png"",""materials/imgs/D74.png""]","false","random","","",""
"","","","","","html-keyboard-response","291","494042","0.0-17.0-1.2-0.2","dyx4dlpmvc","","dyx4dlpmvc","""2024-11-12T18:25:24.765Z""","null","+","null","","","","","","",""
"","","","","","image-keyboard-response","292","494866","0.0-17.0-1.2-1.2","dyx4dlpmvc","","dyx4dlpmvc","""2024-11-12T18:25:24.765Z""","823","materials/imgs/D106.png","arrowleft","","[""materials/imgs/D106.png"",""materials/imgs/D101.png""]","","check","materials/imgs/D106.png","0","true"
"","","","","","html-keyboard-response","293","495367","0.0-17.0-2.2-0.4","dyx4dlpmvc","","dyx4dlpmvc","""2024-11-12T18:25:24.765Z""","null","+","null","","","","","","",""
"","","","","","image-keyboard-response","294","496443","0.0-17.0-2.2-1.4","dyx4dlpmvc","","dyx4dlpmvc","""2024-11-12T18:25:24.765Z""","1074","materials/imgs/D56.png","arrowright","","[""materials/imgs/D25.png"",""materials/imgs/D105.png""]","false","validation","","",""
"","","","","","html-keyboard-response","295","496955","0.0-17.0-2.2-0.5","dyx4dlpmvc","","dyx4dlpmvc","""2024-11-12T18:25:24.765Z""","null","+","null","","","","","","",""
"","","","","","image-keyboard-response","296","497814","0.0-17.0-2.2-1.5","dyx4dlpmvc","","dyx4dlpmvc","""2024-11-12T18:25:24.765Z""","857","materials/imgs/D46.png","arrowleft","","[""materials/imgs/D92.png"",""materials/imgs/D77.png""]","false","validation","","",""
"","","","","","html-keyboard-response","297","498329","0.0-17.0-0.3-0.21","dyx4dlpmvc","","dyx4dlpmvc","""2024-11-12T18:25:24.765Z""","null","+","null","","","","","","",""
"","","","","","image-keyboard-response","298","499190","0.0-17.0-0.3-1.21","dyx4dlpmvc","","dyx4dlpmvc","""2024-11-12T18:25:24.765Z""","858","materials/imgs/D11.png","arrowleft","","[""materials/imgs/D83.png"",""materials/imgs/D104.png""]","false","random","","",""
"","","","","","html-keyboard-response","299","499701","0.0-17.0-0.3-0.22","dyx4dlpmvc","","dyx4dlpmvc","""2024-11-12T18:25:24.765Z""","null","+","null","","","","","","",""
"","","","","","image-keyboard-response","300","500953","0.0-17.0-0.3-1.22","dyx4dlpmvc","","dyx4dlpmvc","""2024-11-12T18:25:24.765Z""","1252","materials/imgs/D24.png","arrowleft","","[""materials/imgs/D46.png"",""materials/imgs/D14.png""]","false","random","","",""
"","","","","","html-keyboard-response","301","501463","0.0-17.0-0.3-0.23","dyx4dlpmvc","","dyx4dlpmvc","""2024-11-12T18:25:24.765Z""","null","+","null","","","","","","",""
"","","","","","image-keyboard-response","302","502033","0.0-17.0-0.3-1.23","dyx4dlpmvc","","dyx4dlpmvc","""2024-11-12T18:25:24.765Z""","569","materials/imgs/D22.png","arrowleft","","[""materials/imgs/D20.png"",""materials/imgs/D48.png""]","false","random","","",""
"","","","","","html-keyboard-response","303","502538","0.0-17.0-0.3-0.24","dyx4dlpmvc","","dyx4dlpmvc","""2024-11-12T18:25:24.765Z""","null","+","null","","","","","","",""
"","","","","","image-keyboard-response","304","503401","0.0-17.0-0.3-1.24","dyx4dlpmvc","","dyx4dlpmvc","""2024-11-12T18:25:24.765Z""","862","materials/imgs/D82.png","arrowright","","[""materials/imgs/D48.png"",""materials/imgs/D6.png""]","false","random","","",""
"","","","","","html-keyboard-response","305","503909","0.0-17.0-0.3-0.25","dyx4dlpmvc","","dyx4dlpmvc","""2024-11-12T18:25:24.765Z""","null","+","null","","","","","","",""
"","","","","","image-keyboard-response","306","504698","0.0-17.0-0.3-1.25","dyx4dlpmvc","","dyx4dlpmvc","""2024-11-12T18:25:24.765Z""","787","materials/imgs/D57.png","arrowright","","[""materials/imgs/D48.png"",""materials/imgs/D68.png""]","false","random","","",""
"","","","","","html-keyboard-response","307","505205","0.0-17.0-0.3-0.26","dyx4dlpmvc","","dyx4dlpmvc","""2024-11-12T18:25:24.765Z""","null","+","null","","","","","","",""
"","","","","","image-keyboard-response","308","505866","0.0-17.0-0.3-1.26","dyx4dlpmvc","","dyx4dlpmvc","""2024-11-12T18:25:24.765Z""","660","materials/imgs/D82.png","arrowleft","","[""materials/imgs/D103.png"",""materials/imgs/D25.png""]","false","random","","",""
"","","","","","html-keyboard-response","309","506379","0.0-17.0-0.3-0.27","dyx4dlpmvc","","dyx4dlpmvc","""2024-11-12T18:25:24.765Z""","null","+","null","","","","","","",""
"","","","","","image-keyboard-response","310","507973","0.0-17.0-0.3-1.27","dyx4dlpmvc","","dyx4dlpmvc","""2024-11-12T18:25:24.765Z""","1592","materials/imgs/D26.png","arrowleft","","[""materials/imgs/D68.png"",""materials/imgs/D34.png""]","false","random","","",""
"","","","","","html-keyboard-response","311","508476","0.0-17.0-1.3-0.3","dyx4dlpmvc","","dyx4dlpmvc","""2024-11-12T18:25:24.765Z""","null","+","null","","","","","","",""
"","","","","","image-keyboard-response","312","509011","0.0-17.0-1.3-1.3","dyx4dlpmvc","","dyx4dlpmvc","""2024-11-12T18:25:24.765Z""","533","materials/imgs/D8.png","arrowright","","[""materials/imgs/D18.png"",""materials/imgs/D8.png""]","","check","materials/imgs/D8.png","1","true"
"","","","","","html-keyboard-response","313","509522","0.0-17.0-2.3-0.6","dyx4dlpmvc","","dyx4dlpmvc","""2024-11-12T18:25:24.765Z""","null","+","null","","","","","","",""
"","","","","","image-keyboard-response","314","510114","0.0-17.0-2.3-1.6","dyx4dlpmvc","","dyx4dlpmvc","""2024-11-12T18:25:24.765Z""","580","materials/imgs/D57.png","arrowright","","[""materials/imgs/D111.png"",""materials/imgs/D4.png""]","false","validation","","",""
"","","","","","html-keyboard-response","315","510629","0.0-17.0-2.3-0.7","dyx4dlpmvc","","dyx4dlpmvc","""2024-11-12T18:25:24.765Z""","null","+","null","","","","","","",""
"","","","","","image-keyboard-response","316","511649","0.0-17.0-2.3-1.7","dyx4dlpmvc","","dyx4dlpmvc","""2024-11-12T18:25:24.765Z""","1019","materials/imgs/D103.png","arrowleft","","[""materials/imgs/D76.png"",""materials/imgs/D106.png""]","false","validation","","",""
"","","","","","html-keyboard-response","317","512158","0.0-17.0-0.4-0.28","dyx4dlpmvc","","dyx4dlpmvc","""2024-11-12T18:25:24.765Z""","null","+","null","","","","","","",""
"","","","","","image-keyboard-response","318","512897","0.0-17.0-0.4-1.28","dyx4dlpmvc","","dyx4dlpmvc","""2024-11-12T18:25:24.765Z""","738","materials/imgs/D84.png","arrowright","","[""materials/imgs/D78.png"",""materials/imgs/D80.png""]","false","random","","",""
"","","","","","html-keyboard-response","319","513404","0.0-17.0-0.4-0.29","dyx4dlpmvc","","dyx4dlpmvc","""2024-11-12T18:25:24.765Z""","null","+","null","","","","","","",""
"","","","","","image-keyboard-response","320","514441","0.0-17.0-0.4-1.29","dyx4dlpmvc","","dyx4dlpmvc","""2024-11-12T18:25:24.765Z""","1037","materials/imgs/D9.png","arrowleft","","[""materials/imgs/D84.png"",""materials/imgs/D16.png""]","false","random","","",""
"","","","","","html-keyboard-response","321","514951","0.0-17.0-0.4-0.30","dyx4dlpmvc","","dyx4dlpmvc","""2024-11-12T18:25:24.765Z""","null","+","null","","","","","","",""
"","","","","","image-keyboard-response","322","515617","0.0-17.0-0.4-1.30","dyx4dlpmvc","","dyx4dlpmvc","""2024-11-12T18:25:24.765Z""","665","materials/imgs/D57.png","arrowleft","","[""materials/imgs/D24.png"",""materials/imgs/D81.png""]","false","random","","",""
"","","","","","html-keyboard-response","323","516119","0.0-17.0-0.4-0.31","dyx4dlpmvc","","dyx4dlpmvc","""2024-11-12T18:25:24.765Z""","null","+","null","","","","","","",""
"","","","","","image-keyboard-response","324","516721","0.0-17.0-0.4-1.31","dyx4dlpmvc","","dyx4dlpmvc","""2024-11-12T18:25:24.765Z""","600","materials/imgs/D85.png","arrowright","","[""materials/imgs/D76.png"",""materials/imgs/D77.png""]","false","random","","",""
"","","","","","html-keyboard-response","325","517225","0.0-17.0-0.4-0.32","dyx4dlpmvc","","dyx4dlpmvc","""2024-11-12T18:25:24.765Z""","null","+","null","","","","","","",""
"","","","","","image-keyboard-response","326","517946","0.0-17.0-0.4-1.32","dyx4dlpmvc","","dyx4dlpmvc","""2024-11-12T18:25:24.765Z""","720","materials/imgs/D81.png","arrowright","","[""materials/imgs/D75.png"",""materials/imgs/D68.png""]","false","random","","",""
"","","","","","html-keyboard-response","327","518453","0.0-17.0-0.4-0.33","dyx4dlpmvc","","dyx4dlpmvc","""2024-11-12T18:25:24.765Z""","null","+","null","","","","","","",""
"","","","","","image-keyboard-response","328","519647","0.0-17.0-0.4-1.33","dyx4dlpmvc","","dyx4dlpmvc","""2024-11-12T18:25:24.765Z""","1194","materials/imgs/D106.png","arrowleft","","[""materials/imgs/D17.png"",""materials/imgs/D3.png""]","false","random","","",""
"","","","","","html-keyboard-response","329","520155","0.0-17.0-0.4-0.34","dyx4dlpmvc","","dyx4dlpmvc","""2024-11-12T18:25:24.765Z""","null","+","null","","","","","","",""
"","","","","","image-keyboard-response","330","521772","0.0-17.0-0.4-1.34","dyx4dlpmvc","","dyx4dlpmvc","""2024-11-12T18:25:24.765Z""","1616","materials/imgs/D101.png","arrowleft","","[""materials/imgs/D78.png"",""materials/imgs/D24.png""]","false","random","","",""
"","","","","","html-keyboard-response","331","522280","0.0-17.0-1.4-0.4","dyx4dlpmvc","","dyx4dlpmvc","""2024-11-12T18:25:24.765Z""","null","+","null","","","","","","",""
"","","","","","image-keyboard-response","332","522862","0.0-17.0-1.4-1.4","dyx4dlpmvc","","dyx4dlpmvc","""2024-11-12T18:25:24.765Z""","581","materials/imgs/D76.png","arrowleft","","[""materials/imgs/D76.png"",""materials/imgs/D78.png""]","","check","materials/imgs/D76.png","0","true"
"","","","","","html-keyboard-response","333","523374","0.0-17.0-2.4-0.8","dyx4dlpmvc","","dyx4dlpmvc","""2024-11-12T18:25:24.765Z""","null","+","null","","","","","","",""
"","","","","","image-keyboard-response","334","524625","0.0-17.0-2.4-1.8","dyx4dlpmvc","","dyx4dlpmvc","""2024-11-12T18:25:24.765Z""","1251","materials/imgs/D92.png","arrowleft","","[""materials/imgs/D56.png"",""materials/imgs/D77.png""]","false","validation","","",""
"","","","","","html-keyboard-response","335","525137","0.0-17.0-2.4-0.9","dyx4dlpmvc","","dyx4dlpmvc","""2024-11-12T18:25:24.765Z""","null","+","null","","","","","","",""
"","","","","","image-keyboard-response","336","527782","0.0-17.0-2.4-1.9","dyx4dlpmvc","","dyx4dlpmvc","""2024-11-12T18:25:24.765Z""","2644","materials/imgs/D77.png","arrowright","","[""materials/imgs/D102.png"",""materials/imgs/D65.png""]","false","validation","","",""
"","","","","","html-button-response","337","529082","0.0-18.0","dyx4dlpmvc","","dyx4dlpmvc","""2024-11-12T18:25:24.765Z""","1300","You have completed 75% of the trials. Please click 'Continue' when you are ready proceed.","0","","","","","","",""
"","","","","","html-keyboard-response","338","529597","0.0-19.0-0.0-0.0","dyx4dlpmvc","","dyx4dlpmvc","""2024-11-12T18:25:24.765Z""","null","+","null","","","","","","",""
"","","","","","image-keyboard-response","339","530440","0.0-19.0-0.0-1.0","dyx4dlpmvc","","dyx4dlpmvc","""2024-11-12T18:25:24.765Z""","842","materials/imgs/D80.png","arrowright","","[""materials/imgs/D64.png"",""materials/imgs/D21.png""]","false","random","","",""
"","","","","","html-keyboard-response","340","530952","0.0-19.0-0.0-0.1","dyx4dlpmvc","","dyx4dlpmvc","""2024-11-12T18:25:24.765Z""","null","+","null","","","","","","",""
"","","","","","image-keyboard-response","341","531704","0.0-19.0-0.0-1.1","dyx4dlpmvc","","dyx4dlpmvc","""2024-11-12T18:25:24.765Z""","751","materials/imgs/D78.png","arrowright","","[""materials/imgs/D87.png"",""materials/imgs/D95.png""]","false","random","","",""
"","","","","","html-keyboard-response","342","532210","0.0-19.0-0.0-0.2","dyx4dlpmvc","","dyx4dlpmvc","""2024-11-12T18:25:24.765Z""","null","+","null","","","","","","",""
"","","","","","image-keyboard-response","343","532981","0.0-19.0-0.0-1.2","dyx4dlpmvc","","dyx4dlpmvc","""2024-11-12T18:25:24.765Z""","770","materials/imgs/D52.png","arrowright","","[""materials/imgs/D85.png"",""materials/imgs/D55.png""]","false","random","","",""
"","","","","","html-keyboard-response","344","533483","0.0-19.0-0.0-0.3","dyx4dlpmvc","","dyx4dlpmvc","""2024-11-12T18:25:24.765Z""","null","+","null","","","","","","",""
"","","","","","image-keyboard-response","345","534262","0.0-19.0-0.0-1.3","dyx4dlpmvc","","dyx4dlpmvc","""2024-11-12T18:25:24.765Z""","778","materials/imgs/D6.png","arrowright","","[""materials/imgs/D19.png"",""materials/imgs/D82.png""]","false","random","","",""
"","","","","","html-keyboard-response","346","534777","0.0-19.0-0.0-0.4","dyx4dlpmvc","","dyx4dlpmvc","""2024-11-12T18:25:24.765Z""","null","+","null","","","","","","",""
"","","","","","image-keyboard-response","347","536695","0.0-19.0-0.0-1.4","dyx4dlpmvc","","dyx4dlpmvc","""2024-11-12T18:25:24.765Z""","1917","materials/imgs/D66.png","arrowright","","[""materials/imgs/D64.png"",""materials/imgs/D20.png""]","false","random","","",""
"","","","","","html-keyboard-response","348","537209","0.0-19.0-0.0-0.5","dyx4dlpmvc","","dyx4dlpmvc","""2024-11-12T18:25:24.765Z""","null","+","null","","","","","","",""
"","","","","","image-keyboard-response","349","538306","0.0-19.0-0.0-1.5","dyx4dlpmvc","","dyx4dlpmvc","""2024-11-12T18:25:24.765Z""","1096","materials/imgs/D96.png","arrowleft","","[""materials/imgs/D11.png"",""materials/imgs/D36.png""]","false","random","","",""
"","","","","","html-keyboard-response","350","538811","0.0-19.0-0.0-0.6","dyx4dlpmvc","","dyx4dlpmvc","""2024-11-12T18:25:24.765Z""","null","+","null","","","","","","",""
"","","","","","image-keyboard-response","351","540112","0.0-19.0-0.0-1.6","dyx4dlpmvc","","dyx4dlpmvc","""2024-11-12T18:25:24.765Z""","1300","materials/imgs/D26.png","arrowright","","[""materials/imgs/D17.png"",""materials/imgs/D81.png""]","false","random","","",""
"","","","","","html-keyboard-response","352","540616","0.0-19.0-1.0-0.0","dyx4dlpmvc","","dyx4dlpmvc","""2024-11-12T18:25:24.765Z""","null","+","null","","","","","","",""
"","","","","","image-keyboard-response","353","541648","0.0-19.0-1.0-1.0","dyx4dlpmvc","","dyx4dlpmvc","""2024-11-12T18:25:24.765Z""","1031","materials/imgs/D18.png","arrowright","","[""materials/imgs/D8.png"",""materials/imgs/D18.png""]","","check","materials/imgs/D18.png","1","true"
"","","","","","html-keyboard-response","354","542159","0.0-19.0-2.0-0.0","dyx4dlpmvc","","dyx4dlpmvc","""2024-11-12T18:25:24.765Z""","null","+","null","","","","","","",""
"","","","","","image-keyboard-response","355","544243","0.0-19.0-2.0-1.0","dyx4dlpmvc","","dyx4dlpmvc","""2024-11-12T18:25:24.765Z""","2083","materials/imgs/D84.png","arrowleft","","[""materials/imgs/D106.png"",""materials/imgs/D37.png""]","false","validation","","",""
"","","","","","html-keyboard-response","356","544759","0.0-19.0-2.0-0.1","dyx4dlpmvc","","dyx4dlpmvc","""2024-11-12T18:25:24.765Z""","null","+","null","","","","","","",""
"","","","","","image-keyboard-response","357","546718","0.0-19.0-2.0-1.1","dyx4dlpmvc","","dyx4dlpmvc","""2024-11-12T18:25:24.765Z""","1957","materials/imgs/D4.png","arrowright","","[""materials/imgs/D52.png"",""materials/imgs/D83.png""]","false","validation","","",""
"","","","","","html-keyboard-response","358","547222","0.0-19.0-0.1-0.7","dyx4dlpmvc","","dyx4dlpmvc","""2024-11-12T18:25:24.765Z""","null","+","null","","","","","","",""
"","","","","","image-keyboard-response","359","548533","0.0-19.0-0.1-1.7","dyx4dlpmvc","","dyx4dlpmvc","""2024-11-12T18:25:24.765Z""","1310","materials/imgs/D104.png","arrowright","","[""materials/imgs/D82.png"",""materials/imgs/D87.png""]","false","random","","",""
"","","","","","html-keyboard-response","360","549041","0.0-19.0-0.1-0.8","dyx4dlpmvc","","dyx4dlpmvc","""2024-11-12T18:25:24.765Z""","null","+","null","","","","","","",""
"","","","","","image-keyboard-response","361","550279","0.0-19.0-0.1-1.8","dyx4dlpmvc","","dyx4dlpmvc","""2024-11-12T18:25:24.765Z""","1236","materials/imgs/D74.png","arrowright","","[""materials/imgs/D17.png"",""materials/imgs/D24.png""]","false","random","","",""
"","","","","","html-keyboard-response","362","550779","0.0-19.0-0.1-0.9","dyx4dlpmvc","","dyx4dlpmvc","""2024-11-12T18:25:24.765Z""","null","+","null","","","","","","",""
"","","","","","image-keyboard-response","363","551638","0.0-19.0-0.1-1.9","dyx4dlpmvc","","dyx4dlpmvc","""2024-11-12T18:25:24.765Z""","857","materials/imgs/D104.png","arrowleft","","[""materials/imgs/D78.png"",""materials/imgs/D4.png""]","false","random","","",""
"","","","","","html-keyboard-response","364","552145","0.0-19.0-0.1-0.10","dyx4dlpmvc","","dyx4dlpmvc","""2024-11-12T18:25:24.765Z""","null","+","null","","","","","","",""
"","","","","","image-keyboard-response","365","553805","0.0-19.0-0.1-1.10","dyx4dlpmvc","","dyx4dlpmvc","""2024-11-12T18:25:24.765Z""","1659","materials/imgs/D94.png","arrowleft","","[""materials/imgs/D75.png"",""materials/imgs/D29.png""]","false","random","","",""
"","","","","","html-keyboard-response","366","554307","0.0-19.0-0.1-0.11","dyx4dlpmvc","","dyx4dlpmvc","""2024-11-12T18:25:24.765Z""","null","+","null","","","","","","",""
"","","","","","image-keyboard-response","367","555584","0.0-19.0-0.1-1.11","dyx4dlpmvc","","dyx4dlpmvc","""2024-11-12T18:25:24.765Z""","1276","materials/imgs/D36.png","arrowright","","[""materials/imgs/D20.png"",""materials/imgs/D24.png""]","false","random","","",""
"","","","","","html-keyboard-response","368","556086","0.0-19.0-0.1-0.12","dyx4dlpmvc","","dyx4dlpmvc","""2024-11-12T18:25:24.765Z""","null","+","null","","","","","","",""
"","","","","","image-keyboard-response","369","557167","0.0-19.0-0.1-1.12","dyx4dlpmvc","","dyx4dlpmvc","""2024-11-12T18:25:24.765Z""","1079","materials/imgs/D18.png","arrowright","","[""materials/imgs/D17.png"",""materials/imgs/D80.png""]","false","random","","",""
"","","","","","html-keyboard-response","370","557674","0.0-19.0-0.1-0.13","dyx4dlpmvc","","dyx4dlpmvc","""2024-11-12T18:25:24.765Z""","null","+","null","","","","","","",""
"","","","","","image-keyboard-response","371","559107","0.0-19.0-0.1-1.13","dyx4dlpmvc","","dyx4dlpmvc","""2024-11-12T18:25:24.765Z""","1431","materials/imgs/D16.png","arrowleft","","[""materials/imgs/D47.png"",""materials/imgs/D66.png""]","false","random","","",""
"","","","","","html-keyboard-response","372","559622","0.0-19.0-1.1-0.1","dyx4dlpmvc","","dyx4dlpmvc","""2024-11-12T18:25:24.765Z""","null","+","null","","","","","","",""
"","","","","","image-keyboard-response","373","560608","0.0-19.0-1.1-1.1","dyx4dlpmvc","","dyx4dlpmvc","""2024-11-12T18:25:24.765Z""","985","materials/imgs/D101.png","arrowright","","[""materials/imgs/D106.png"",""materials/imgs/D101.png""]","","check","materials/imgs/D101.png","1","true"
"","","","","","html-keyboard-response","374","561116","0.0-19.0-2.1-0.2","dyx4dlpmvc","","dyx4dlpmvc","""2024-11-12T18:25:24.765Z""","null","+","null","","","","","","",""
"","","","","","image-keyboard-response","375","561736","0.0-19.0-2.1-1.2","dyx4dlpmvc","","dyx4dlpmvc","""2024-11-12T18:25:24.765Z""","618","materials/imgs/D9.png","arrowright","","[""materials/imgs/D103.png"",""materials/imgs/D4.png""]","false","validation","","",""
"","","","","","html-keyboard-response","376","562238","0.0-19.0-2.1-0.3","dyx4dlpmvc","","dyx4dlpmvc","""2024-11-12T18:25:24.765Z""","null","+","null","","","","","","",""
"","","","","","image-keyboard-response","377","563310","0.0-19.0-2.1-1.3","dyx4dlpmvc","","dyx4dlpmvc","""2024-11-12T18:25:24.765Z""","1070","materials/imgs/D16.png","arrowleft","","[""materials/imgs/D52.png"",""materials/imgs/D25.png""]","false","validation","","",""
"","","","","","html-keyboard-response","378","563810","0.0-19.0-0.2-0.14","dyx4dlpmvc","","dyx4dlpmvc","""2024-11-12T18:25:24.765Z""","null","+","null","","","","","","",""
"","","","","","image-keyboard-response","379","564814","0.0-19.0-0.2-1.14","dyx4dlpmvc","","dyx4dlpmvc","""2024-11-12T18:25:24.765Z""","1002","materials/imgs/D57.png","arrowright","","[""materials/imgs/D34.png"",""materials/imgs/D22.png""]","false","random","","",""
"","","","","","html-keyboard-response","380","565322","0.0-19.0-0.2-0.15","dyx4dlpmvc","","dyx4dlpmvc","""2024-11-12T18:25:24.765Z""","null","+","null","","","","","","",""
"","","","","","image-keyboard-response","381","566333","0.0-19.0-0.2-1.15","dyx4dlpmvc","","dyx4dlpmvc","""2024-11-12T18:25:24.765Z""","1009","materials/imgs/D104.png","arrowleft","","[""materials/imgs/D82.png"",""materials/imgs/D4.png""]","false","random","","",""
"","","","","","html-keyboard-response","382","566847","0.0-19.0-0.2-0.16","dyx4dlpmvc","","dyx4dlpmvc","""2024-11-12T18:25:24.765Z""","null","+","null","","","","","","",""
"","","","","","image-keyboard-response","383","567911","0.0-19.0-0.2-1.16","dyx4dlpmvc","","dyx4dlpmvc","""2024-11-12T18:25:24.765Z""","1063","materials/imgs/D16.png","arrowleft","","[""materials/imgs/D104.png"",""materials/imgs/D74.png""]","false","random","","",""
"","","","","","html-keyboard-response","384","568419","0.0-19.0-0.2-0.17","dyx4dlpmvc","","dyx4dlpmvc","""2024-11-12T18:25:24.765Z""","null","+","null","","","","","","",""
"","","","","","image-keyboard-response","385","569579","0.0-19.0-0.2-1.17","dyx4dlpmvc","","dyx4dlpmvc","""2024-11-12T18:25:24.765Z""","1159","materials/imgs/D14.png","arrowright","","[""materials/imgs/D26.png"",""materials/imgs/D9.png""]","false","random","","",""
"","","","","","html-keyboard-response","386","570084","0.0-19.0-0.2-0.18","dyx4dlpmvc","","dyx4dlpmvc","""2024-11-12T18:25:24.765Z""","null","+","null","","","","","","",""
"","","","","","image-keyboard-response","387","571500","0.0-19.0-0.2-1.18","dyx4dlpmvc","","dyx4dlpmvc","""2024-11-12T18:25:24.765Z""","1414","materials/imgs/D55.png","arrowright","","[""materials/imgs/D66.png"",""materials/imgs/D4.png""]","false","random","","",""
"","","","","","html-keyboard-response","388","572014","0.0-19.0-0.2-0.19","dyx4dlpmvc","","dyx4dlpmvc","""2024-11-12T18:25:24.765Z""","null","+","null","","","","","","",""
"","","","","","image-keyboard-response","389","573596","0.0-19.0-0.2-1.19","dyx4dlpmvc","","dyx4dlpmvc","""2024-11-12T18:25:24.765Z""","1581","materials/imgs/D48.png","arrowleft","","[""materials/imgs/D87.png"",""materials/imgs/D65.png""]","false","random","","",""
"","","","","","html-keyboard-response","390","574098","0.0-19.0-0.2-0.20","dyx4dlpmvc","","dyx4dlpmvc","""2024-11-12T18:25:24.765Z""","null","+","null","","","","","","",""
"","","","","","image-keyboard-response","391","575930","0.0-19.0-0.2-1.20","dyx4dlpmvc","","dyx4dlpmvc","""2024-11-12T18:25:24.765Z""","1831","materials/imgs/D66.png","arrowright","","[""materials/imgs/D55.png"",""materials/imgs/D96.png""]","false","random","","",""
"","","","","","html-keyboard-response","392","576439","0.0-19.0-1.2-0.2","dyx4dlpmvc","","dyx4dlpmvc","""2024-11-12T18:25:24.765Z""","null","+","null","","","","","","",""
"","","","","","image-keyboard-response","393","577328","0.0-19.0-1.2-1.2","dyx4dlpmvc","","dyx4dlpmvc","""2024-11-12T18:25:24.765Z""","887","materials/imgs/D26.png","arrowleft","","[""materials/imgs/D26.png"",""materials/imgs/D46.png""]","","check","materials/imgs/D26.png","0","true"
"","","","","","html-keyboard-response","394","577830","0.0-19.0-2.2-0.4","dyx4dlpmvc","","dyx4dlpmvc","""2024-11-12T18:25:24.765Z""","null","+","null","","","","","","",""
"","","","","","image-keyboard-response","395","579805","0.0-19.0-2.2-1.4","dyx4dlpmvc","","dyx4dlpmvc","""2024-11-12T18:25:24.765Z""","1973","materials/imgs/D19.png","arrowleft","","[""materials/imgs/D111.png"",""materials/imgs/D56.png""]","false","validation","","",""
"","","","","","html-keyboard-response","396","580311","0.0-19.0-2.2-0.5","dyx4dlpmvc","","dyx4dlpmvc","""2024-11-12T18:25:24.765Z""","null","+","null","","","","","","",""
"","","","","","image-keyboard-response","397","582513","0.0-19.0-2.2-1.5","dyx4dlpmvc","","dyx4dlpmvc","""2024-11-12T18:25:24.765Z""","2202","materials/imgs/D65.png","arrowright","","[""materials/imgs/D4.png"",""materials/imgs/D16.png""]","false","validation","","",""
"","","","","","html-keyboard-response","398","583027","0.0-19.0-0.3-0.21","dyx4dlpmvc","","dyx4dlpmvc","""2024-11-12T18:25:24.765Z""","null","+","null","","","","","","",""
"","","","","","image-keyboard-response","399","584202","0.0-19.0-0.3-1.21","dyx4dlpmvc","","dyx4dlpmvc","""2024-11-12T18:25:24.765Z""","1174","materials/imgs/D16.png","arrowright","","[""materials/imgs/D22.png"",""materials/imgs/D14.png""]","false","random","","",""
"","","","","","html-keyboard-response","400","584709","0.0-19.0-0.3-0.22","dyx4dlpmvc","","dyx4dlpmvc","""2024-11-12T18:25:24.765Z""","null","+","null","","","","","","",""
"","","","","","image-keyboard-response","401","585787","0.0-19.0-0.3-1.22","dyx4dlpmvc","","dyx4dlpmvc","""2024-11-12T18:25:24.765Z""","1076","materials/imgs/D78.png","arrowleft","","[""materials/imgs/D77.png"",""materials/imgs/D25.png""]","false","random","","",""
"","","","","","html-keyboard-response","402","586300","0.0-19.0-0.3-0.23","dyx4dlpmvc","","dyx4dlpmvc","""2024-11-12T18:25:24.765Z""","null","+","null","","","","","","",""
"","","","","","image-keyboard-response","403","587423","0.0-19.0-0.3-1.23","dyx4dlpmvc","","dyx4dlpmvc","""2024-11-12T18:25:24.765Z""","1121","materials/imgs/D46.png","arrowleft","","[""materials/imgs/D53.png"",""materials/imgs/D26.png""]","false","random","","",""
"","","","","","html-keyboard-response","404","587924","0.0-19.0-0.3-0.24","dyx4dlpmvc","","dyx4dlpmvc","""2024-11-12T18:25:24.765Z""","null","+","null","","","","","","",""
"","","","","","image-keyboard-response","405","589158","0.0-19.0-0.3-1.24","dyx4dlpmvc","","dyx4dlpmvc","""2024-11-12T18:25:24.765Z""","1233","materials/imgs/D49.png","arrowright","","[""materials/imgs/D24.png"",""materials/imgs/D82.png""]","false","random","","",""
"","","","","","html-keyboard-response","406","589668","0.0-19.0-0.3-0.25","dyx4dlpmvc","","dyx4dlpmvc","""2024-11-12T18:25:24.765Z""","null","+","null","","","","","","",""
"","","","","","image-keyboard-response","407","590362","0.0-19.0-0.3-1.25","dyx4dlpmvc","","dyx4dlpmvc","""2024-11-12T18:25:24.765Z""","693","materials/imgs/D77.png","arrowleft","","[""materials/imgs/D14.png"",""materials/imgs/D80.png""]","false","random","","",""
"","","","","","html-keyboard-response","408","590868","0.0-19.0-0.3-0.26","dyx4dlpmvc","","dyx4dlpmvc","""2024-11-12T18:25:24.765Z""","null","+","null","","","","","","",""
"","","","","","image-keyboard-response","409","591753","0.0-19.0-0.3-1.26","dyx4dlpmvc","","dyx4dlpmvc","""2024-11-12T18:25:24.765Z""","884","materials/imgs/D8.png","arrowleft","","[""materials/imgs/D78.png"",""materials/imgs/D53.png""]","false","random","","",""
"","","","","","html-keyboard-response","410","592256","0.0-19.0-0.3-0.27","dyx4dlpmvc","","dyx4dlpmvc","""2024-11-12T18:25:24.765Z""","null","+","null","","","","","","",""
"","","","","","image-keyboard-response","411","593576","0.0-19.0-0.3-1.27","dyx4dlpmvc","","dyx4dlpmvc","""2024-11-12T18:25:24.765Z""","1318","materials/imgs/D37.png","arrowright","","[""materials/imgs/D32.png"",""materials/imgs/D3.png""]","false","random","","",""
"","","","","","html-keyboard-response","412","594092","0.0-19.0-1.3-0.3","dyx4dlpmvc","","dyx4dlpmvc","""2024-11-12T18:25:24.765Z""","null","+","null","","","","","","",""
"","","","","","image-keyboard-response","413","594724","0.0-19.0-1.3-1.3","dyx4dlpmvc","","dyx4dlpmvc","""2024-11-12T18:25:24.765Z""","632","materials/imgs/D76.png","arrowleft","","[""materials/imgs/D76.png"",""materials/imgs/D78.png""]","","check","materials/imgs/D76.png","0","true"
"","","","","","html-keyboard-response","414","595234","0.0-19.0-2.3-0.6","dyx4dlpmvc","","dyx4dlpmvc","""2024-11-12T18:25:24.765Z""","null","+","null","","","","","","",""
"","","","","","image-keyboard-response","415","596618","0.0-19.0-2.3-1.6","dyx4dlpmvc","","dyx4dlpmvc","""2024-11-12T18:25:24.765Z""","1383","materials/imgs/D66.png","arrowleft","","[""materials/imgs/D85.png"",""materials/imgs/D25.png""]","false","validation","","",""
"","","","","","html-keyboard-response","416","597124","0.0-19.0-2.3-0.7","dyx4dlpmvc","","dyx4dlpmvc","""2024-11-12T18:25:24.765Z""","null","+","null","","","","","","",""
"","","","","","image-keyboard-response","417","598067","0.0-19.0-2.3-1.7","dyx4dlpmvc","","dyx4dlpmvc","""2024-11-12T18:25:24.765Z""","941","materials/imgs/D75.png","arrowright","","[""materials/imgs/D96.png"",""materials/imgs/D4.png""]","false","validation","","",""
"","","","","","html-keyboard-response","418","598576","0.0-19.0-0.4-0.28","dyx4dlpmvc","","dyx4dlpmvc","""2024-11-12T18:25:24.765Z""","null","+","null","","","","","","",""
"","","","","","image-keyboard-response","419","599335","0.0-19.0-0.4-1.28","dyx4dlpmvc","","dyx4dlpmvc","""2024-11-12T18:25:24.765Z""","757","materials/imgs/D77.png","arrowright","","[""materials/imgs/D96.png"",""materials/imgs/D55.png""]","false","random","","",""
"","","","","","html-keyboard-response","420","599846","0.0-19.0-0.4-0.29","dyx4dlpmvc","","dyx4dlpmvc","""2024-11-12T18:25:24.765Z""","null","+","null","","","","","","",""
"","","","","","image-keyboard-response","421","600743","0.0-19.0-0.4-1.29","dyx4dlpmvc","","dyx4dlpmvc","""2024-11-12T18:25:24.765Z""","896","materials/imgs/D106.png","arrowright","","[""materials/imgs/D111.png"",""materials/imgs/D36.png""]","false","random","","",""
"","","","","","html-keyboard-response","422","601245","0.0-19.0-0.4-0.30","dyx4dlpmvc","","dyx4dlpmvc","""2024-11-12T18:25:24.765Z""","null","+","null","","","","","","",""
"","","","","","image-keyboard-response","423","603059","0.0-19.0-0.4-1.30","dyx4dlpmvc","","dyx4dlpmvc","""2024-11-12T18:25:24.765Z""","1813","materials/imgs/D18.png","arrowleft","","[""materials/imgs/D51.png"",""materials/imgs/D74.png""]","false","random","","",""
"","","","","","html-keyboard-response","424","603570","0.0-19.0-0.4-0.31","dyx4dlpmvc","","dyx4dlpmvc","""2024-11-12T18:25:24.765Z""","null","+","null","","","","","","",""
"","","","","","image-keyboard-response","425","605150","0.0-19.0-0.4-1.31","dyx4dlpmvc","","dyx4dlpmvc","""2024-11-12T18:25:24.765Z""","1579","materials/imgs/D56.png","arrowright","","[""materials/imgs/D22.png"",""materials/imgs/D52.png""]","false","random","","",""
"","","","","","html-keyboard-response","426","605663","0.0-19.0-0.4-0.32","dyx4dlpmvc","","dyx4dlpmvc","""2024-11-12T18:25:24.765Z""","null","+","null","","","","","","",""
"","","","","","image-keyboard-response","427","607172","0.0-19.0-0.4-1.32","dyx4dlpmvc","","dyx4dlpmvc","""2024-11-12T18:25:24.765Z""","1507","materials/imgs/D66.png","arrowright","","[""materials/imgs/D106.png"",""materials/imgs/D75.png""]","false","random","","",""
"","","","","","html-keyboard-response","428","607675","0.0-19.0-0.4-0.33","dyx4dlpmvc","","dyx4dlpmvc","""2024-11-12T18:25:24.765Z""","null","+","null","","","","","","",""
"","","","","","image-keyboard-response","429","610728","0.0-19.0-0.4-1.33","dyx4dlpmvc","","dyx4dlpmvc","""2024-11-12T18:25:24.765Z""","3052","materials/imgs/D65.png","arrowright","","[""materials/imgs/D78.png"",""materials/imgs/D76.png""]","false","random","","",""
"","","","","","html-keyboard-response","430","611243","0.0-19.0-0.4-0.34","dyx4dlpmvc","","dyx4dlpmvc","""2024-11-12T18:25:24.765Z""","null","+","null","","","","","","",""
"","","","","","image-keyboard-response","431","612522","0.0-19.0-0.4-1.34","dyx4dlpmvc","","dyx4dlpmvc","""2024-11-12T18:25:24.765Z""","1278","materials/imgs/D21.png","arrowleft","","[""materials/imgs/D84.png"",""materials/imgs/D18.png""]","false","random","","",""
"","","","","","html-keyboard-response","432","613035","0.0-19.0-1.4-0.4","dyx4dlpmvc","","dyx4dlpmvc","""2024-11-12T18:25:24.765Z""","null","+","null","","","","","","",""
"","","","","","image-keyboard-response","433","613784","0.0-19.0-1.4-1.4","dyx4dlpmvc","","dyx4dlpmvc","""2024-11-12T18:25:24.765Z""","740","materials/imgs/D78.png","arrowright","","[""materials/imgs/D76.png"",""materials/imgs/D78.png""]","","check","materials/imgs/D78.png","1","true"
"","","","","","html-keyboard-response","434","614300","0.0-19.0-2.4-0.8","dyx4dlpmvc","","dyx4dlpmvc","""2024-11-12T18:25:24.765Z""","null","+","null","","","","","","",""
"","","","","","image-keyboard-response","435","616165","0.0-19.0-2.4-1.8","dyx4dlpmvc","","dyx4dlpmvc","""2024-11-12T18:25:24.765Z""","1864","materials/imgs/D52.png","arrowright","","[""materials/imgs/D9.png"",""materials/imgs/D19.png""]","false","validation","","",""
"","","","","","html-keyboard-response","436","616670","0.0-19.0-2.4-0.9","dyx4dlpmvc","","dyx4dlpmvc","""2024-11-12T18:25:24.765Z""","null","+","null","","","","","","",""
"","","","","","image-keyboard-response","437","618017","0.0-19.0-2.4-1.9","dyx4dlpmvc","","dyx4dlpmvc","""2024-11-12T18:25:24.765Z""","1346","materials/imgs/D1.png","arrowright","","[""materials/imgs/D57.png"",""materials/imgs/D76.png""]","false","validation","","",""
