"success","timeout","failed_images","failed_audio","failed_video","trial_type","trial_index","time_elapsed","internal_node_id","subject_id","sona_id","subjectID","dateInfo","rt","stimulus","response","question_order","choices","speedy","sampleAlg","selected_image","selected_index","correct"
"true","false","[]","[]","[]","preload","0","368","0.0-0.0","etsmnubx37","","etsmnubx37","""2024-11-13T01:10:52.275Z""","","","","","","","","","",""
"true","","","","","fullscreen","1","3716","0.0-1.0","etsmnubx37","","etsmnubx37","""2024-11-13T01:10:52.275Z""","","","","","","","","","",""
"","","","","","html-keyboard-response","2","3730","0.0-2.0","etsmnubx37","","etsmnubx37","""2024-11-13T01:10:52.275Z""","null","","null","","","","","","",""
"","","","","","html-button-response","3","9360","0.0-3.0","etsmnubx37","","etsmnubx37","""2024-11-13T01:10:52.275Z""","5627","<div style='text-align:center; font-size:20px; line-height:25px; width: 1200px;'>
                Welcome to our experiment! <br>
                <br>At the bottom of this screen, you will see a button that says 'Begin Experiment.
                <br>Please only click that button when you are ready to complete the 25 minute experiment in one sitting. <br>
                <br> Once you click that button, it will not be possible to restart the experiment. <br><br>","0","","","","","","",""
"true","","","","","fullscreen","4","12275","0.0-4.0","etsmnubx37","","etsmnubx37","""2024-11-13T01:10:52.275Z""","","","","","","","","","",""
"","","","","","survey-multi-select","5","19277","0.0-5.0","etsmnubx37","","etsmnubx37","""2024-11-13T01:10:52.275Z""","6997","","{""Consent"":[""<strong>I consent</strong>""]}","[0]","","","","","",""
"","","","","","html-button-response","6","21385","0.0-6.0","etsmnubx37","","etsmnubx37","""2024-11-13T01:10:52.275Z""","2106","Welcome! <p> This experiment involves two parts: demographic information, followed by the experimental task.<p> It will take about 25 minutes to complete both parts.","0","","","","","","",""
"","","","","","survey-text","7","31069","0.0-7.0","etsmnubx37","","etsmnubx37","""2024-11-13T01:10:52.275Z""","9680","","{""Age"":""18"",""Gender"":""female"",""Race/ethnicity"":""white""}","","","","","","",""
"","","","","","html-button-response","8","43981","0.0-8.0","etsmnubx37","","etsmnubx37","""2024-11-13T01:10:52.275Z""","12910","<div style='text-align: center;'>
      <p>In each trial of this task, you will see three texture images: one target item on top, and two choices beneath the target item.</p>
      <p><strong>Please select the item that is most like the target item.</strong></p>
      <p>To select the option on the <strong>LEFT</strong>, press the <strong>LEFT ARROW</strong> key. 
      To select the option on the <strong>RIGHT</strong>, press the <strong>RIGHT ARROW</strong> key.</p>
                  <!-- Target Image at the Top -->
      <div style='margin: 20px;'>
        <img src='materials/imgs/instruction_images/InstructionImg1D78.png' alt='Target Image' style='width:200px; height:auto;' />
        <p><em>Target Image</em></p>
      </div>

      <!-- Two Choice Images Below -->
      <div style='display: flex; justify-content: center;'>
        <div style='margin-right: 50px;'>
          <img src='materials/imgs/instruction_images/InstructionImg2D34.png' alt='Choice Image 1' style='width:150px; height:auto;' />
          <p><em><strong>LEFT ARROW</strong></em></p>
        </div>
        <div style='margin-left: 50px;'>
          <img src='materials/imgs/instruction_images/InstructionImg3D80.png' alt='Choice Image 2' style='width:150px; height:auto;' />
          <p><em><strong>RIGHT ARROW</strong></em></p>
        </div>
      </div>
    </div>

      <p>When you are ready to proceed, please click 'Continue' to begin practice.</p>","0","","","","","","",""
"","","","","","html-keyboard-response","9","46485","0.0-9.0","etsmnubx37","","etsmnubx37","""2024-11-13T01:10:52.275Z""","null","+","null","","","","","","",""
"","","","","","html-keyboard-response","10","46987","0.0-10.0-0.0-0.0","etsmnubx37","","etsmnubx37","""2024-11-13T01:10:52.275Z""","null","+","null","","","","","","",""
"","","","","","image-keyboard-response","11","54273","0.0-10.0-0.0-1.0","etsmnubx37","","etsmnubx37","""2024-11-13T01:10:52.275Z""","7281","materials/imgs/D34.png","arrowleft","","[""materials/imgs/D66.png"",""materials/imgs/D74.png""]","false","random","","",""
"","","","","","html-keyboard-response","12","54776","0.0-10.0-0.0-0.1","etsmnubx37","","etsmnubx37","""2024-11-13T01:10:52.275Z""","null","+","null","","","","","","",""
"","","","","","image-keyboard-response","13","60070","0.0-10.0-0.0-1.1","etsmnubx37","","etsmnubx37","""2024-11-13T01:10:52.275Z""","5292","materials/imgs/D95.png","arrowleft","","[""materials/imgs/D6.png"",""materials/imgs/D76.png""]","false","random","","",""
"","","","","","html-keyboard-response","14","60571","0.0-10.0-0.0-0.2","etsmnubx37","","etsmnubx37","""2024-11-13T01:10:52.275Z""","null","+","null","","","","","","",""
"","","","","","image-keyboard-response","15","63484","0.0-10.0-0.0-1.2","etsmnubx37","","etsmnubx37","""2024-11-13T01:10:52.275Z""","2911","materials/imgs/D80.png","arrowleft","","[""materials/imgs/D83.png"",""materials/imgs/D51.png""]","false","random","","",""
"","","","","","html-keyboard-response","16","63986","0.0-10.0-0.0-0.3","etsmnubx37","","etsmnubx37","""2024-11-13T01:10:52.275Z""","null","+","null","","","","","","",""
"","","","","","image-keyboard-response","17","66508","0.0-10.0-0.0-1.3","etsmnubx37","","etsmnubx37","""2024-11-13T01:10:52.275Z""","2520","materials/imgs/D18.png","arrowright","","[""materials/imgs/D76.png"",""materials/imgs/D21.png""]","false","random","","",""
"","","","","","html-keyboard-response","18","67009","0.0-10.0-0.0-0.4","etsmnubx37","","etsmnubx37","""2024-11-13T01:10:52.275Z""","null","+","null","","","","","","",""
"","","","","","image-keyboard-response","19","70289","0.0-10.0-0.0-1.4","etsmnubx37","","etsmnubx37","""2024-11-13T01:10:52.275Z""","3278","materials/imgs/D74.png","arrowright","","[""materials/imgs/D17.png"",""materials/imgs/D3.png""]","false","random","","",""
"","","","","","html-keyboard-response","20","70790","0.0-10.0-0.0-0.5","etsmnubx37","","etsmnubx37","""2024-11-13T01:10:52.275Z""","null","+","null","","","","","","",""
"","","","","","image-keyboard-response","21","78348","0.0-10.0-0.0-1.5","etsmnubx37","","etsmnubx37","""2024-11-13T01:10:52.275Z""","7556","materials/imgs/D82.png","arrowleft","","[""materials/imgs/D80.png"",""materials/imgs/D83.png""]","false","random","","",""
"","","","","","html-keyboard-response","22","78849","0.0-10.0-0.0-0.6","etsmnubx37","","etsmnubx37","""2024-11-13T01:10:52.275Z""","null","+","null","","","","","","",""
"","","","","","image-keyboard-response","23","86963","0.0-10.0-0.0-1.6","etsmnubx37","","etsmnubx37","""2024-11-13T01:10:52.275Z""","8112","materials/imgs/D82.png","arrowright","","[""materials/imgs/D103.png"",""materials/imgs/D104.png""]","false","random","","",""
"","","","","","html-keyboard-response","24","87464","0.0-10.0-0.0-0.7","etsmnubx37","","etsmnubx37","""2024-11-13T01:10:52.275Z""","null","+","null","","","","","","",""
"","","","","","image-keyboard-response","25","91038","0.0-10.0-0.0-1.7","etsmnubx37","","etsmnubx37","""2024-11-13T01:10:52.275Z""","3572","materials/imgs/D16.png","arrowleft","","[""materials/imgs/D64.png"",""materials/imgs/D79.png""]","false","random","","",""
"","","","","","html-keyboard-response","26","91539","0.0-10.0-0.0-0.8","etsmnubx37","","etsmnubx37","""2024-11-13T01:10:52.275Z""","null","+","null","","","","","","",""
"","","","","","image-keyboard-response","27","95767","0.0-10.0-0.0-1.8","etsmnubx37","","etsmnubx37","""2024-11-13T01:10:52.275Z""","4225","materials/imgs/D84.png","arrowleft","","[""materials/imgs/D83.png"",""materials/imgs/D106.png""]","false","random","","",""
"","","","","","html-keyboard-response","28","96268","0.0-10.0-0.0-0.9","etsmnubx37","","etsmnubx37","""2024-11-13T01:10:52.275Z""","null","+","null","","","","","","",""
"","","","","","image-keyboard-response","29","109248","0.0-10.0-0.0-1.9","etsmnubx37","","etsmnubx37","""2024-11-13T01:10:52.275Z""","12978","materials/imgs/D34.png","arrowright","","[""materials/imgs/D102.png"",""materials/imgs/D75.png""]","false","random","","",""
"","","","","","html-button-response","30","115854","0.0-11.0","etsmnubx37","","etsmnubx37","""2024-11-13T01:10:52.275Z""","6605","<p>Great job!</p>
      <p>You are now ready to begin the experiment.</p>
      <p>There will be around 200 trials. You will have opportunities to take breaks at three stages of the trials.</p>
      <p>When you are ready to begin please click 'Continue'.</p>","0","","","","","","",""
"","","","","","html-keyboard-response","31","118358","0.0-12.0","etsmnubx37","","etsmnubx37","""2024-11-13T01:10:52.275Z""","null","+","null","","","","","","",""
"","","","","","html-keyboard-response","32","118859","0.0-13.0-0.0-0.0","etsmnubx37","","etsmnubx37","""2024-11-13T01:10:52.275Z""","null","+","null","","","","","","",""
"","","","","","image-keyboard-response","33","125035","0.0-13.0-0.0-1.0","etsmnubx37","","etsmnubx37","""2024-11-13T01:10:52.275Z""","6167","materials/imgs/D64.png","arrowleft","","[""materials/imgs/D17.png"",""materials/imgs/D4.png""]","false","random","","",""
"","","","","","html-keyboard-response","34","125536","0.0-13.0-0.0-0.1","etsmnubx37","","etsmnubx37","""2024-11-13T01:10:52.275Z""","null","+","null","","","","","","",""
"","","","","","image-keyboard-response","35","127931","0.0-13.0-0.0-1.1","etsmnubx37","","etsmnubx37","""2024-11-13T01:10:52.275Z""","2393","materials/imgs/D6.png","arrowright","","[""materials/imgs/D57.png"",""materials/imgs/D85.png""]","false","random","","",""
"","","","","","html-keyboard-response","36","128432","0.0-13.0-0.0-0.2","etsmnubx37","","etsmnubx37","""2024-11-13T01:10:52.275Z""","null","+","null","","","","","","",""
"","","","","","image-keyboard-response","37","132287","0.0-13.0-0.0-1.2","etsmnubx37","","etsmnubx37","""2024-11-13T01:10:52.275Z""","3853","materials/imgs/D36.png","arrowleft","","[""materials/imgs/D55.png"",""materials/imgs/D85.png""]","false","random","","",""
"","","","","","html-keyboard-response","38","132788","0.0-13.0-0.0-0.3","etsmnubx37","","etsmnubx37","""2024-11-13T01:10:52.275Z""","null","+","null","","","","","","",""
"","","","","","image-keyboard-response","39","134232","0.0-13.0-0.0-1.3","etsmnubx37","","etsmnubx37","""2024-11-13T01:10:52.275Z""","1442","materials/imgs/D36.png","arrowright","","[""materials/imgs/D37.png"",""materials/imgs/D22.png""]","false","random","","",""
"","","","","","html-keyboard-response","40","134733","0.0-13.0-0.0-0.4","etsmnubx37","","etsmnubx37","""2024-11-13T01:10:52.275Z""","null","+","null","","","","","","",""
"","","","","","image-keyboard-response","41","139661","0.0-13.0-0.0-1.4","etsmnubx37","","etsmnubx37","""2024-11-13T01:10:52.275Z""","4927","materials/imgs/D104.png","arrowright","","[""materials/imgs/D37.png"",""materials/imgs/D101.png""]","false","random","","",""
"","","","","","html-keyboard-response","42","140163","0.0-13.0-0.0-0.5","etsmnubx37","","etsmnubx37","""2024-11-13T01:10:52.275Z""","null","+","null","","","","","","",""
"","","","","","image-keyboard-response","43","143611","0.0-13.0-0.0-1.5","etsmnubx37","","etsmnubx37","""2024-11-13T01:10:52.275Z""","3446","materials/imgs/D103.png","arrowleft","","[""materials/imgs/D8.png"",""materials/imgs/D6.png""]","false","random","","",""
"","","","","","html-keyboard-response","44","144112","0.0-13.0-0.0-0.6","etsmnubx37","","etsmnubx37","""2024-11-13T01:10:52.275Z""","null","+","null","","","","","","",""
"","","","","","image-keyboard-response","45","147293","0.0-13.0-0.0-1.6","etsmnubx37","","etsmnubx37","""2024-11-13T01:10:52.275Z""","3180","materials/imgs/D75.png","arrowleft","","[""materials/imgs/D84.png"",""materials/imgs/D65.png""]","false","random","","",""
"","","","","","html-keyboard-response","46","147794","0.0-13.0-1.0-0.0","etsmnubx37","","etsmnubx37","""2024-11-13T01:10:52.275Z""","null","+","null","","","","","","",""
"","","","","","image-keyboard-response","47","148972","0.0-13.0-1.0-1.0","etsmnubx37","","etsmnubx37","""2024-11-13T01:10:52.275Z""","1176","materials/imgs/D76.png","arrowleft","","[""materials/imgs/D76.png"",""materials/imgs/D78.png""]","","check","materials/imgs/D76.png","0","true"
"","","","","","html-keyboard-response","48","149474","0.0-13.0-2.0-0.0","etsmnubx37","","etsmnubx37","""2024-11-13T01:10:52.275Z""","null","+","null","","","","","","",""
"","","","","","image-keyboard-response","49","155317","0.0-13.0-2.0-1.0","etsmnubx37","","etsmnubx37","""2024-11-13T01:10:52.275Z""","5842","materials/imgs/D76.png","arrowleft","","[""materials/imgs/D83.png"",""materials/imgs/D6.png""]","false","validation","","",""
"","","","","","html-keyboard-response","50","155819","0.0-13.0-2.0-0.1","etsmnubx37","","etsmnubx37","""2024-11-13T01:10:52.275Z""","null","+","null","","","","","","",""
"","","","","","image-keyboard-response","51","158249","0.0-13.0-2.0-1.1","etsmnubx37","","etsmnubx37","""2024-11-13T01:10:52.275Z""","2429","materials/imgs/D32.png","arrowleft","","[""materials/imgs/D68.png"",""materials/imgs/D96.png""]","false","validation","","",""
"","","","","","html-keyboard-response","52","158751","0.0-13.0-0.1-0.7","etsmnubx37","","etsmnubx37","""2024-11-13T01:10:52.275Z""","null","+","null","","","","","","",""
"","","","","","image-keyboard-response","53","160018","0.0-13.0-0.1-1.7","etsmnubx37","","etsmnubx37","""2024-11-13T01:10:52.275Z""","1265","materials/imgs/D92.png","arrowleft","","[""materials/imgs/D57.png"",""materials/imgs/D49.png""]","false","random","","",""
"","","","","","html-keyboard-response","54","160519","0.0-13.0-0.1-0.8","etsmnubx37","","etsmnubx37","""2024-11-13T01:10:52.275Z""","null","+","null","","","","","","",""
"","","","","","image-keyboard-response","55","165647","0.0-13.0-0.1-1.8","etsmnubx37","","etsmnubx37","""2024-11-13T01:10:52.275Z""","5126","materials/imgs/D18.png","arrowright","","[""materials/imgs/D53.png"",""materials/imgs/D77.png""]","false","random","","",""
"","","","","","html-keyboard-response","56","166149","0.0-13.0-0.1-0.9","etsmnubx37","","etsmnubx37","""2024-11-13T01:10:52.275Z""","null","+","null","","","","","","",""
"","","","","","image-keyboard-response","57","168511","0.0-13.0-0.1-1.9","etsmnubx37","","etsmnubx37","""2024-11-13T01:10:52.275Z""","2361","materials/imgs/D6.png","arrowleft","","[""materials/imgs/D80.png"",""materials/imgs/D34.png""]","false","random","","",""
"","","","","","html-keyboard-response","58","169012","0.0-13.0-0.1-0.10","etsmnubx37","","etsmnubx37","""2024-11-13T01:10:52.275Z""","null","+","null","","","","","","",""
"","","","","","image-keyboard-response","59","179279","0.0-13.0-0.1-1.10","etsmnubx37","","etsmnubx37","""2024-11-13T01:10:52.275Z""","10265","materials/imgs/D36.png","arrowleft","","[""materials/imgs/D51.png"",""materials/imgs/D78.png""]","false","random","","",""
"","","","","","html-keyboard-response","60","179780","0.0-13.0-0.1-0.11","etsmnubx37","","etsmnubx37","""2024-11-13T01:10:52.275Z""","null","+","null","","","","","","",""
"","","","","","image-keyboard-response","61","182655","0.0-13.0-0.1-1.11","etsmnubx37","","etsmnubx37","""2024-11-13T01:10:52.275Z""","2873","materials/imgs/D49.png","arrowleft","","[""materials/imgs/D76.png"",""materials/imgs/D4.png""]","false","random","","",""
"","","","","","html-keyboard-response","62","183156","0.0-13.0-0.1-0.12","etsmnubx37","","etsmnubx37","""2024-11-13T01:10:52.275Z""","null","+","null","","","","","","",""
"","","","","","image-keyboard-response","63","185918","0.0-13.0-0.1-1.12","etsmnubx37","","etsmnubx37","""2024-11-13T01:10:52.275Z""","2760","materials/imgs/D68.png","arrowright","","[""materials/imgs/D25.png"",""materials/imgs/D83.png""]","false","random","","",""
"","","","","","html-keyboard-response","64","186419","0.0-13.0-0.1-0.13","etsmnubx37","","etsmnubx37","""2024-11-13T01:10:52.275Z""","null","+","null","","","","","","",""
"","","","","","image-keyboard-response","65","191523","0.0-13.0-0.1-1.13","etsmnubx37","","etsmnubx37","""2024-11-13T01:10:52.275Z""","5102","materials/imgs/D26.png","arrowright","","[""materials/imgs/D78.png"",""materials/imgs/D9.png""]","false","random","","",""
"","","","","","html-keyboard-response","66","192025","0.0-13.0-1.1-0.1","etsmnubx37","","etsmnubx37","""2024-11-13T01:10:52.275Z""","null","+","null","","","","","","",""
"","","","","","image-keyboard-response","67","192932","0.0-13.0-1.1-1.1","etsmnubx37","","etsmnubx37","""2024-11-13T01:10:52.275Z""","905","materials/imgs/D8.png","arrowright","","[""materials/imgs/D18.png"",""materials/imgs/D8.png""]","","check","materials/imgs/D8.png","1","true"
"","","","","","html-keyboard-response","68","193432","0.0-13.0-2.1-0.2","etsmnubx37","","etsmnubx37","""2024-11-13T01:10:52.275Z""","null","+","null","","","","","","",""
"","","","","","image-keyboard-response","69","200928","0.0-13.0-2.1-1.2","etsmnubx37","","etsmnubx37","""2024-11-13T01:10:52.275Z""","7494","materials/imgs/D56.png","arrowleft","","[""materials/imgs/D25.png"",""materials/imgs/D105.png""]","false","validation","","",""
"","","","","","html-keyboard-response","70","201429","0.0-13.0-2.1-0.3","etsmnubx37","","etsmnubx37","""2024-11-13T01:10:52.275Z""","null","+","null","","","","","","",""
"","","","","","image-keyboard-response","71","204787","0.0-13.0-2.1-1.3","etsmnubx37","","etsmnubx37","""2024-11-13T01:10:52.275Z""","3356","materials/imgs/D35.png","arrowright","","[""materials/imgs/D83.png"",""materials/imgs/D24.png""]","false","validation","","",""
"","","","","","html-keyboard-response","72","205288","0.0-13.0-0.2-0.14","etsmnubx37","","etsmnubx37","""2024-11-13T01:10:52.275Z""","null","+","null","","","","","","",""
"","","","","","image-keyboard-response","73","207838","0.0-13.0-0.2-1.14","etsmnubx37","","etsmnubx37","""2024-11-13T01:10:52.275Z""","2548","materials/imgs/D21.png","arrowright","","[""materials/imgs/D87.png"",""materials/imgs/D25.png""]","false","random","","",""
"","","","","","html-keyboard-response","74","208339","0.0-13.0-0.2-0.15","etsmnubx37","","etsmnubx37","""2024-11-13T01:10:52.275Z""","null","+","null","","","","","","",""
"","","","","","image-keyboard-response","75","211865","0.0-13.0-0.2-1.15","etsmnubx37","","etsmnubx37","""2024-11-13T01:10:52.275Z""","3525","materials/imgs/D24.png","arrowleft","","[""materials/imgs/D53.png"",""materials/imgs/D35.png""]","false","random","","",""
"","","","","","html-keyboard-response","76","212366","0.0-13.0-0.2-0.16","etsmnubx37","","etsmnubx37","""2024-11-13T01:10:52.275Z""","null","+","null","","","","","","",""
"","","","","","image-keyboard-response","77","215418","0.0-13.0-0.2-1.16","etsmnubx37","","etsmnubx37","""2024-11-13T01:10:52.275Z""","3050","materials/imgs/D51.png","arrowleft","","[""materials/imgs/D16.png"",""materials/imgs/D94.png""]","false","random","","",""
"","","","","","html-keyboard-response","78","215919","0.0-13.0-0.2-0.17","etsmnubx37","","etsmnubx37","""2024-11-13T01:10:52.275Z""","null","+","null","","","","","","",""
"","","","","","image-keyboard-response","79","224263","0.0-13.0-0.2-1.17","etsmnubx37","","etsmnubx37","""2024-11-13T01:10:52.275Z""","8342","materials/imgs/D83.png","arrowleft","","[""materials/imgs/D87.png"",""materials/imgs/D35.png""]","false","random","","",""
"","","","","","html-keyboard-response","80","224764","0.0-13.0-0.2-0.18","etsmnubx37","","etsmnubx37","""2024-11-13T01:10:52.275Z""","null","+","null","","","","","","",""
"","","","","","image-keyboard-response","81","229387","0.0-13.0-0.2-1.18","etsmnubx37","","etsmnubx37","""2024-11-13T01:10:52.275Z""","4621","materials/imgs/D21.png","arrowleft","","[""materials/imgs/D8.png"",""materials/imgs/D81.png""]","false","random","","",""
"","","","","","html-keyboard-response","82","229888","0.0-13.0-0.2-0.19","etsmnubx37","","etsmnubx37","""2024-11-13T01:10:52.275Z""","null","+","null","","","","","","",""
"","","","","","image-keyboard-response","83","233603","0.0-13.0-0.2-1.19","etsmnubx37","","etsmnubx37","""2024-11-13T01:10:52.275Z""","3713","materials/imgs/D46.png","arrowleft","","[""materials/imgs/D34.png"",""materials/imgs/D78.png""]","false","random","","",""
"","","","","","html-keyboard-response","84","234104","0.0-13.0-0.2-0.20","etsmnubx37","","etsmnubx37","""2024-11-13T01:10:52.275Z""","null","+","null","","","","","","",""
"","","","","","image-keyboard-response","85","237268","0.0-13.0-0.2-1.20","etsmnubx37","","etsmnubx37","""2024-11-13T01:10:52.275Z""","3162","materials/imgs/D105.png","arrowleft","","[""materials/imgs/D53.png"",""materials/imgs/D55.png""]","false","random","","",""
"","","","","","html-keyboard-response","86","237769","0.0-13.0-1.2-0.2","etsmnubx37","","etsmnubx37","""2024-11-13T01:10:52.275Z""","null","+","null","","","","","","",""
"","","","","","image-keyboard-response","87","238618","0.0-13.0-1.2-1.2","etsmnubx37","","etsmnubx37","""2024-11-13T01:10:52.275Z""","848","materials/imgs/D76.png","arrowleft","","[""materials/imgs/D76.png"",""materials/imgs/D78.png""]","","check","materials/imgs/D76.png","0","true"
"","","","","","html-keyboard-response","88","239119","0.0-13.0-2.2-0.4","etsmnubx37","","etsmnubx37","""2024-11-13T01:10:52.275Z""","null","+","null","","","","","","",""
"","","","","","image-keyboard-response","89","240665","0.0-13.0-2.2-1.4","etsmnubx37","","etsmnubx37","""2024-11-13T01:10:52.275Z""","1544","materials/imgs/D26.png","arrowright","","[""materials/imgs/D36.png"",""materials/imgs/D92.png""]","false","validation","","",""
"","","","","","html-keyboard-response","90","241166","0.0-13.0-2.2-0.5","etsmnubx37","","etsmnubx37","""2024-11-13T01:10:52.275Z""","null","+","null","","","","","","",""
"","","","","","image-keyboard-response","91","243082","0.0-13.0-2.2-1.5","etsmnubx37","","etsmnubx37","""2024-11-13T01:10:52.275Z""","1915","materials/imgs/D95.png","arrowright","","[""materials/imgs/D36.png"",""materials/imgs/D4.png""]","false","validation","","",""
"","","","","","html-keyboard-response","92","243584","0.0-13.0-0.3-0.21","etsmnubx37","","etsmnubx37","""2024-11-13T01:10:52.275Z""","null","+","null","","","","","","",""
"","","","","","image-keyboard-response","93","245388","0.0-13.0-0.3-1.21","etsmnubx37","","etsmnubx37","""2024-11-13T01:10:52.275Z""","1803","materials/imgs/D29.png","arrowright","","[""materials/imgs/D106.png"",""materials/imgs/D6.png""]","false","random","","",""
"","","","","","html-keyboard-response","94","245889","0.0-13.0-0.3-0.22","etsmnubx37","","etsmnubx37","""2024-11-13T01:10:52.275Z""","null","+","null","","","","","","",""
"","","","","","image-keyboard-response","95","247655","0.0-13.0-0.3-1.22","etsmnubx37","","etsmnubx37","""2024-11-13T01:10:52.275Z""","1763","materials/imgs/D18.png","arrowright","","[""materials/imgs/D79.png"",""materials/imgs/D55.png""]","false","random","","",""
"","","","","","html-keyboard-response","96","248156","0.0-13.0-0.3-0.23","etsmnubx37","","etsmnubx37","""2024-11-13T01:10:52.275Z""","null","+","null","","","","","","",""
"","","","","","image-keyboard-response","97","252658","0.0-13.0-0.3-1.23","etsmnubx37","","etsmnubx37","""2024-11-13T01:10:52.275Z""","4501","materials/imgs/D94.png","arrowright","","[""materials/imgs/D47.png"",""materials/imgs/D68.png""]","false","random","","",""
"","","","","","html-keyboard-response","98","253160","0.0-13.0-0.3-0.24","etsmnubx37","","etsmnubx37","""2024-11-13T01:10:52.275Z""","null","+","null","","","","","","",""
"","","","","","image-keyboard-response","99","257602","0.0-13.0-0.3-1.24","etsmnubx37","","etsmnubx37","""2024-11-13T01:10:52.275Z""","4440","materials/imgs/D85.png","arrowright","","[""materials/imgs/D101.png"",""materials/imgs/D8.png""]","false","random","","",""
"","","","","","html-keyboard-response","100","258103","0.0-13.0-0.3-0.25","etsmnubx37","","etsmnubx37","""2024-11-13T01:10:52.275Z""","null","+","null","","","","","","",""
"","","","","","image-keyboard-response","101","262742","0.0-13.0-0.3-1.25","etsmnubx37","","etsmnubx37","""2024-11-13T01:10:52.275Z""","4637","materials/imgs/D9.png","arrowleft","","[""materials/imgs/D26.png"",""materials/imgs/D55.png""]","false","random","","",""
"","","","","","html-keyboard-response","102","263244","0.0-13.0-0.3-0.26","etsmnubx37","","etsmnubx37","""2024-11-13T01:10:52.275Z""","null","+","null","","","","","","",""
"","","","","","image-keyboard-response","103","266289","0.0-13.0-0.3-1.26","etsmnubx37","","etsmnubx37","""2024-11-13T01:10:52.275Z""","3043","materials/imgs/D6.png","arrowleft","","[""materials/imgs/D29.png"",""materials/imgs/D24.png""]","false","random","","",""
"","","","","","html-keyboard-response","104","266790","0.0-13.0-0.3-0.27","etsmnubx37","","etsmnubx37","""2024-11-13T01:10:52.275Z""","null","+","null","","","","","","",""
"","","","","","image-keyboard-response","105","269223","0.0-13.0-0.3-1.27","etsmnubx37","","etsmnubx37","""2024-11-13T01:10:52.275Z""","2431","materials/imgs/D34.png","arrowright","","[""materials/imgs/D32.png"",""materials/imgs/D8.png""]","false","random","","",""
"","","","","","html-keyboard-response","106","269724","0.0-13.0-1.3-0.3","etsmnubx37","","etsmnubx37","""2024-11-13T01:10:52.275Z""","null","+","null","","","","","","",""
"","","","","","image-keyboard-response","107","270674","0.0-13.0-1.3-1.3","etsmnubx37","","etsmnubx37","""2024-11-13T01:10:52.275Z""","949","materials/imgs/D8.png","arrowright","","[""materials/imgs/D18.png"",""materials/imgs/D8.png""]","","check","materials/imgs/D8.png","1","true"
"","","","","","html-keyboard-response","108","271175","0.0-13.0-2.3-0.6","etsmnubx37","","etsmnubx37","""2024-11-13T01:10:52.275Z""","null","+","null","","","","","","",""
"","","","","","image-keyboard-response","109","276081","0.0-13.0-2.3-1.6","etsmnubx37","","etsmnubx37","""2024-11-13T01:10:52.275Z""","4905","materials/imgs/D20.png","arrowright","","[""materials/imgs/D84.png"",""materials/imgs/D85.png""]","false","validation","","",""
"","","","","","html-keyboard-response","110","276583","0.0-13.0-2.3-0.7","etsmnubx37","","etsmnubx37","""2024-11-13T01:10:52.275Z""","null","+","null","","","","","","",""
"","","","","","image-keyboard-response","111","278603","0.0-13.0-2.3-1.7","etsmnubx37","","etsmnubx37","""2024-11-13T01:10:52.275Z""","2019","materials/imgs/D111.png","arrowleft","","[""materials/imgs/D82.png"",""materials/imgs/D95.png""]","false","validation","","",""
"","","","","","html-keyboard-response","112","279105","0.0-13.0-0.4-0.28","etsmnubx37","","etsmnubx37","""2024-11-13T01:10:52.275Z""","null","+","null","","","","","","",""
"","","","","","image-keyboard-response","113","283511","0.0-13.0-0.4-1.28","etsmnubx37","","etsmnubx37","""2024-11-13T01:10:52.275Z""","4405","materials/imgs/D79.png","arrowright","","[""materials/imgs/D83.png"",""materials/imgs/D16.png""]","false","random","","",""
"","","","","","html-keyboard-response","114","284012","0.0-13.0-0.4-0.29","etsmnubx37","","etsmnubx37","""2024-11-13T01:10:52.275Z""","null","+","null","","","","","","",""
"","","","","","image-keyboard-response","115","286800","0.0-13.0-0.4-1.29","etsmnubx37","","etsmnubx37","""2024-11-13T01:10:52.275Z""","2779","materials/imgs/D26.png","arrowright","","[""materials/imgs/D22.png"",""materials/imgs/D84.png""]","false","random","","",""
"","","","","","html-keyboard-response","116","287301","0.0-13.0-0.4-0.30","etsmnubx37","","etsmnubx37","""2024-11-13T01:10:52.275Z""","null","+","null","","","","","","",""
"","","","","","image-keyboard-response","117","289610","0.0-13.0-0.4-1.30","etsmnubx37","","etsmnubx37","""2024-11-13T01:10:52.275Z""","2308","materials/imgs/D6.png","arrowright","","[""materials/imgs/D53.png"",""materials/imgs/D21.png""]","false","random","","",""
"","","","","","html-keyboard-response","118","290112","0.0-13.0-0.4-0.31","etsmnubx37","","etsmnubx37","""2024-11-13T01:10:52.275Z""","null","+","null","","","","","","",""
"","","","","","image-keyboard-response","119","292791","0.0-13.0-0.4-1.31","etsmnubx37","","etsmnubx37","""2024-11-13T01:10:52.275Z""","2678","materials/imgs/D85.png","arrowright","","[""materials/imgs/D77.png"",""materials/imgs/D1.png""]","false","random","","",""
"","","","","","html-keyboard-response","120","293293","0.0-13.0-0.4-0.32","etsmnubx37","","etsmnubx37","""2024-11-13T01:10:52.275Z""","null","+","null","","","","","","",""
"","","","","","image-keyboard-response","121","294077","0.0-13.0-0.4-1.32","etsmnubx37","","etsmnubx37","""2024-11-13T01:10:52.275Z""","783","materials/imgs/D49.png","arrowright","","[""materials/imgs/D9.png"",""materials/imgs/D16.png""]","false","random","","",""
"","","","","","html-keyboard-response","122","294578","0.0-13.0-0.4-0.33","etsmnubx37","","etsmnubx37","""2024-11-13T01:10:52.275Z""","null","+","null","","","","","","",""
"","","","","","image-keyboard-response","123","297350","0.0-13.0-0.4-1.33","etsmnubx37","","etsmnubx37","""2024-11-13T01:10:52.275Z""","2769","materials/imgs/D20.png","arrowleft","","[""materials/imgs/D19.png"",""materials/imgs/D102.png""]","false","random","","",""
"","","","","","html-keyboard-response","124","297851","0.0-13.0-0.4-0.34","etsmnubx37","","etsmnubx37","""2024-11-13T01:10:52.275Z""","null","+","null","","","","","","",""
"","","","","","image-keyboard-response","125","300245","0.0-13.0-0.4-1.34","etsmnubx37","","etsmnubx37","""2024-11-13T01:10:52.275Z""","2392","materials/imgs/D53.png","arrowright","","[""materials/imgs/D25.png"",""materials/imgs/D16.png""]","false","random","","",""
"","","","","","html-keyboard-response","126","300746","0.0-13.0-1.4-0.4","etsmnubx37","","etsmnubx37","""2024-11-13T01:10:52.275Z""","null","+","null","","","","","","",""
"","","","","","image-keyboard-response","127","301526","0.0-13.0-1.4-1.4","etsmnubx37","","etsmnubx37","""2024-11-13T01:10:52.275Z""","779","materials/imgs/D78.png","arrowright","","[""materials/imgs/D76.png"",""materials/imgs/D78.png""]","","check","materials/imgs/D78.png","1","true"
"","","","","","html-keyboard-response","128","302028","0.0-13.0-2.4-0.8","etsmnubx37","","etsmnubx37","""2024-11-13T01:10:52.275Z""","null","+","null","","","","","","",""
"","","","","","image-keyboard-response","129","303845","0.0-13.0-2.4-1.8","etsmnubx37","","etsmnubx37","""2024-11-13T01:10:52.275Z""","1816","materials/imgs/D64.png","arrowleft","","[""materials/imgs/D6.png"",""materials/imgs/D81.png""]","false","validation","","",""
"","","","","","html-keyboard-response","130","304347","0.0-13.0-2.4-0.9","etsmnubx37","","etsmnubx37","""2024-11-13T01:10:52.275Z""","null","+","null","","","","","","",""
"","","","","","image-keyboard-response","131","307718","0.0-13.0-2.4-1.9","etsmnubx37","","etsmnubx37","""2024-11-13T01:10:52.275Z""","3370","materials/imgs/D85.png","arrowleft","","[""materials/imgs/D6.png"",""materials/imgs/D111.png""]","false","validation","","",""
"","","","","","html-button-response","132","313023","0.0-14.0","etsmnubx37","","etsmnubx37","""2024-11-13T01:10:52.275Z""","5304","You have completed 25% of the trials. Please click 'Continue' when you are ready proceed.","0","","","","","","",""
"","","","","","html-keyboard-response","133","313525","0.0-15.0-0.0-0.0","etsmnubx37","","etsmnubx37","""2024-11-13T01:10:52.275Z""","null","+","null","","","","","","",""
"","","","","","image-keyboard-response","134","315353","0.0-15.0-0.0-1.0","etsmnubx37","","etsmnubx37","""2024-11-13T01:10:52.275Z""","1827","materials/imgs/D16.png","arrowright","","[""materials/imgs/D26.png"",""materials/imgs/D85.png""]","false","random","","",""
"","","","","","html-keyboard-response","135","315854","0.0-15.0-0.0-0.1","etsmnubx37","","etsmnubx37","""2024-11-13T01:10:52.275Z""","null","+","null","","","","","","",""
"","","","","","image-keyboard-response","136","316983","0.0-15.0-0.0-1.1","etsmnubx37","","etsmnubx37","""2024-11-13T01:10:52.275Z""","1127","materials/imgs/D74.png","arrowright","","[""materials/imgs/D32.png"",""materials/imgs/D29.png""]","false","random","","",""
"","","","","","html-keyboard-response","137","317485","0.0-15.0-0.0-0.2","etsmnubx37","","etsmnubx37","""2024-11-13T01:10:52.275Z""","null","+","null","","","","","","",""
"","","","","","image-keyboard-response","138","320629","0.0-15.0-0.0-1.2","etsmnubx37","","etsmnubx37","""2024-11-13T01:10:52.275Z""","3143","materials/imgs/D111.png","arrowleft","","[""materials/imgs/D81.png"",""materials/imgs/D25.png""]","false","random","","",""
"","","","","","html-keyboard-response","139","321130","0.0-15.0-0.0-0.3","etsmnubx37","","etsmnubx37","""2024-11-13T01:10:52.275Z""","null","+","null","","","","","","",""
"","","","","","image-keyboard-response","140","323313","0.0-15.0-0.0-1.3","etsmnubx37","","etsmnubx37","""2024-11-13T01:10:52.275Z""","2181","materials/imgs/D29.png","arrowright","","[""materials/imgs/D36.png"",""materials/imgs/D66.png""]","false","random","","",""
"","","","","","html-keyboard-response","141","323815","0.0-15.0-0.0-0.4","etsmnubx37","","etsmnubx37","""2024-11-13T01:10:52.275Z""","null","+","null","","","","","","",""
"","","","","","image-keyboard-response","142","325054","0.0-15.0-0.0-1.4","etsmnubx37","","etsmnubx37","""2024-11-13T01:10:52.275Z""","1237","materials/imgs/D76.png","arrowright","","[""materials/imgs/D101.png"",""materials/imgs/D51.png""]","false","random","","",""
"","","","","","html-keyboard-response","143","325555","0.0-15.0-0.0-0.5","etsmnubx37","","etsmnubx37","""2024-11-13T01:10:52.275Z""","null","+","null","","","","","","",""
"","","","","","image-keyboard-response","144","328133","0.0-15.0-0.0-1.5","etsmnubx37","","etsmnubx37","""2024-11-13T01:10:52.275Z""","2576","materials/imgs/D92.png","arrowright","","[""materials/imgs/D52.png"",""materials/imgs/D6.png""]","false","random","","",""
"","","","","","html-keyboard-response","145","328635","0.0-15.0-0.0-0.6","etsmnubx37","","etsmnubx37","""2024-11-13T01:10:52.275Z""","null","+","null","","","","","","",""
"","","","","","image-keyboard-response","146","331447","0.0-15.0-0.0-1.6","etsmnubx37","","etsmnubx37","""2024-11-13T01:10:52.275Z""","2810","materials/imgs/D19.png","arrowright","","[""materials/imgs/D84.png"",""materials/imgs/D11.png""]","false","random","","",""
"","","","","","html-keyboard-response","147","331948","0.0-15.0-1.0-0.0","etsmnubx37","","etsmnubx37","""2024-11-13T01:10:52.275Z""","null","+","null","","","","","","",""
"","","","","","image-keyboard-response","148","332907","0.0-15.0-1.0-1.0","etsmnubx37","","etsmnubx37","""2024-11-13T01:10:52.275Z""","957","materials/imgs/D76.png","arrowleft","","[""materials/imgs/D76.png"",""materials/imgs/D78.png""]","","check","materials/imgs/D76.png","0","true"
"","","","","","html-keyboard-response","149","333408","0.0-15.0-2.0-0.0","etsmnubx37","","etsmnubx37","""2024-11-13T01:10:52.275Z""","null","+","null","","","","","","",""
"","","","","","image-keyboard-response","150","335583","0.0-15.0-2.0-1.0","etsmnubx37","","etsmnubx37","""2024-11-13T01:10:52.275Z""","2173","materials/imgs/D65.png","arrowright","","[""materials/imgs/D4.png"",""materials/imgs/D16.png""]","false","validation","","",""
"","","","","","html-keyboard-response","151","336085","0.0-15.0-2.0-0.1","etsmnubx37","","etsmnubx37","""2024-11-13T01:10:52.275Z""","null","+","null","","","","","","",""
"","","","","","image-keyboard-response","152","337401","0.0-15.0-2.0-1.1","etsmnubx37","","etsmnubx37","""2024-11-13T01:10:52.275Z""","1315","materials/imgs/D92.png","arrowright","","[""materials/imgs/D56.png"",""materials/imgs/D77.png""]","false","validation","","",""
"","","","","","html-keyboard-response","153","337902","0.0-15.0-0.1-0.7","etsmnubx37","","etsmnubx37","""2024-11-13T01:10:52.275Z""","null","+","null","","","","","","",""
"","","","","","image-keyboard-response","154","339411","0.0-15.0-0.1-1.7","etsmnubx37","","etsmnubx37","""2024-11-13T01:10:52.275Z""","1508","materials/imgs/D64.png","arrowright","","[""materials/imgs/D66.png"",""materials/imgs/D105.png""]","false","random","","",""
"","","","","","html-keyboard-response","155","339912","0.0-15.0-0.1-0.8","etsmnubx37","","etsmnubx37","""2024-11-13T01:10:52.275Z""","null","+","null","","","","","","",""
"","","","","","image-keyboard-response","156","343141","0.0-15.0-0.1-1.8","etsmnubx37","","etsmnubx37","""2024-11-13T01:10:52.275Z""","3227","materials/imgs/D4.png","arrowleft","","[""materials/imgs/D106.png"",""materials/imgs/D66.png""]","false","random","","",""
"","","","","","html-keyboard-response","157","343643","0.0-15.0-0.1-0.9","etsmnubx37","","etsmnubx37","""2024-11-13T01:10:52.275Z""","null","+","null","","","","","","",""
"","","","","","image-keyboard-response","158","345586","0.0-15.0-0.1-1.9","etsmnubx37","","etsmnubx37","""2024-11-13T01:10:52.275Z""","1941","materials/imgs/D111.png","arrowleft","","[""materials/imgs/D8.png"",""materials/imgs/D83.png""]","false","random","","",""
"","","","","","html-keyboard-response","159","346087","0.0-15.0-0.1-0.10","etsmnubx37","","etsmnubx37","""2024-11-13T01:10:52.275Z""","null","+","null","","","","","","",""
"","","","","","image-keyboard-response","160","349049","0.0-15.0-0.1-1.10","etsmnubx37","","etsmnubx37","""2024-11-13T01:10:52.275Z""","2961","materials/imgs/D92.png","arrowright","","[""materials/imgs/D104.png"",""materials/imgs/D111.png""]","false","random","","",""
"","","","","","html-keyboard-response","161","349551","0.0-15.0-0.1-0.11","etsmnubx37","","etsmnubx37","""2024-11-13T01:10:52.275Z""","null","+","null","","","","","","",""
"","","","","","image-keyboard-response","162","351081","0.0-15.0-0.1-1.11","etsmnubx37","","etsmnubx37","""2024-11-13T01:10:52.275Z""","1528","materials/imgs/D55.png","arrowleft","","[""materials/imgs/D21.png"",""materials/imgs/D20.png""]","false","random","","",""
"","","","","","html-keyboard-response","163","351581","0.0-15.0-0.1-0.12","etsmnubx37","","etsmnubx37","""2024-11-13T01:10:52.275Z""","null","+","null","","","","","","",""
"","","","","","image-keyboard-response","164","352693","0.0-15.0-0.1-1.12","etsmnubx37","","etsmnubx37","""2024-11-13T01:10:52.275Z""","1110","materials/imgs/D94.png","arrowleft","","[""materials/imgs/D32.png"",""materials/imgs/D52.png""]","false","random","","",""
"","","","","","html-keyboard-response","165","353195","0.0-15.0-0.1-0.13","etsmnubx37","","etsmnubx37","""2024-11-13T01:10:52.275Z""","null","+","null","","","","","","",""
"","","","","","image-keyboard-response","166","356286","0.0-15.0-0.1-1.13","etsmnubx37","","etsmnubx37","""2024-11-13T01:10:52.275Z""","3089","materials/imgs/D85.png","arrowleft","","[""materials/imgs/D4.png"",""materials/imgs/D80.png""]","false","random","","",""
"","","","","","html-keyboard-response","167","356787","0.0-15.0-1.1-0.1","etsmnubx37","","etsmnubx37","""2024-11-13T01:10:52.275Z""","null","+","null","","","","","","",""
"","","","","","image-keyboard-response","168","357803","0.0-15.0-1.1-1.1","etsmnubx37","","etsmnubx37","""2024-11-13T01:10:52.275Z""","1015","materials/imgs/D101.png","arrowright","","[""materials/imgs/D106.png"",""materials/imgs/D101.png""]","","check","materials/imgs/D101.png","1","true"
"","","","","","html-keyboard-response","169","358305","0.0-15.0-2.1-0.2","etsmnubx37","","etsmnubx37","""2024-11-13T01:10:52.275Z""","null","+","null","","","","","","",""
"","","","","","image-keyboard-response","170","362775","0.0-15.0-2.1-1.2","etsmnubx37","","etsmnubx37","""2024-11-13T01:10:52.275Z""","4469","materials/imgs/D46.png","arrowright","","[""materials/imgs/D92.png"",""materials/imgs/D77.png""]","false","validation","","",""
"","","","","","html-keyboard-response","171","363277","0.0-15.0-2.1-0.3","etsmnubx37","","etsmnubx37","""2024-11-13T01:10:52.275Z""","null","+","null","","","","","","",""
"","","","","","image-keyboard-response","172","367739","0.0-15.0-2.1-1.3","etsmnubx37","","etsmnubx37","""2024-11-13T01:10:52.275Z""","4461","materials/imgs/D77.png","arrowleft","","[""materials/imgs/D102.png"",""materials/imgs/D65.png""]","false","validation","","",""
"","","","","","html-keyboard-response","173","368240","0.0-15.0-0.2-0.14","etsmnubx37","","etsmnubx37","""2024-11-13T01:10:52.275Z""","null","+","null","","","","","","",""
"","","","","","image-keyboard-response","174","370464","0.0-15.0-0.2-1.14","etsmnubx37","","etsmnubx37","""2024-11-13T01:10:52.275Z""","2222","materials/imgs/D84.png","arrowleft","","[""materials/imgs/D83.png"",""materials/imgs/D8.png""]","false","random","","",""
"","","","","","html-keyboard-response","175","370965","0.0-15.0-0.2-0.15","etsmnubx37","","etsmnubx37","""2024-11-13T01:10:52.275Z""","null","+","null","","","","","","",""
"","","","","","image-keyboard-response","176","373696","0.0-15.0-0.2-1.15","etsmnubx37","","etsmnubx37","""2024-11-13T01:10:52.275Z""","2728","materials/imgs/D106.png","arrowleft","","[""materials/imgs/D103.png"",""materials/imgs/D111.png""]","false","random","","",""
"","","","","","html-keyboard-response","177","374197","0.0-15.0-0.2-0.16","etsmnubx37","","etsmnubx37","""2024-11-13T01:10:52.275Z""","null","+","null","","","","","","",""
"","","","","","image-keyboard-response","178","377012","0.0-15.0-0.2-1.16","etsmnubx37","","etsmnubx37","""2024-11-13T01:10:52.275Z""","2813","materials/imgs/D80.png","arrowleft","","[""materials/imgs/D1.png"",""materials/imgs/D22.png""]","false","random","","",""
"","","","","","html-keyboard-response","179","377513","0.0-15.0-0.2-0.17","etsmnubx37","","etsmnubx37","""2024-11-13T01:10:52.275Z""","null","+","null","","","","","","",""
"","","","","","image-keyboard-response","180","381374","0.0-15.0-0.2-1.17","etsmnubx37","","etsmnubx37","""2024-11-13T01:10:52.275Z""","3859","materials/imgs/D75.png","arrowleft","","[""materials/imgs/D52.png"",""materials/imgs/D6.png""]","false","random","","",""
"","","","","","html-keyboard-response","181","381875","0.0-15.0-0.2-0.18","etsmnubx37","","etsmnubx37","""2024-11-13T01:10:52.275Z""","null","+","null","","","","","","",""
"","","","","","image-keyboard-response","182","383578","0.0-15.0-0.2-1.18","etsmnubx37","","etsmnubx37","""2024-11-13T01:10:52.275Z""","1701","materials/imgs/D46.png","arrowright","","[""materials/imgs/D21.png"",""materials/imgs/D6.png""]","false","random","","",""
"","","","","","html-keyboard-response","183","384080","0.0-15.0-0.2-0.19","etsmnubx37","","etsmnubx37","""2024-11-13T01:10:52.275Z""","null","+","null","","","","","","",""
"","","","","","image-keyboard-response","184","388171","0.0-15.0-0.2-1.19","etsmnubx37","","etsmnubx37","""2024-11-13T01:10:52.275Z""","4090","materials/imgs/D22.png","arrowright","","[""materials/imgs/D56.png"",""materials/imgs/D83.png""]","false","random","","",""
"","","","","","html-keyboard-response","185","388672","0.0-15.0-0.2-0.20","etsmnubx37","","etsmnubx37","""2024-11-13T01:10:52.275Z""","null","+","null","","","","","","",""
"","","","","","image-keyboard-response","186","391877","0.0-15.0-0.2-1.20","etsmnubx37","","etsmnubx37","""2024-11-13T01:10:52.275Z""","3203","materials/imgs/D83.png","arrowleft","","[""materials/imgs/D55.png"",""materials/imgs/D56.png""]","false","random","","",""
"","","","","","html-keyboard-response","187","392378","0.0-15.0-1.2-0.2","etsmnubx37","","etsmnubx37","""2024-11-13T01:10:52.275Z""","null","+","null","","","","","","",""
"","","","","","image-keyboard-response","188","393206","0.0-15.0-1.2-1.2","etsmnubx37","","etsmnubx37","""2024-11-13T01:10:52.275Z""","826","materials/imgs/D101.png","arrowright","","[""materials/imgs/D106.png"",""materials/imgs/D101.png""]","","check","materials/imgs/D101.png","1","true"
"","","","","","html-keyboard-response","189","393707","0.0-15.0-2.2-0.4","etsmnubx37","","etsmnubx37","""2024-11-13T01:10:52.275Z""","null","+","null","","","","","","",""
"","","","","","image-keyboard-response","190","395372","0.0-15.0-2.2-1.4","etsmnubx37","","etsmnubx37","""2024-11-13T01:10:52.275Z""","1664","materials/imgs/D95.png","arrowright","","[""materials/imgs/D36.png"",""materials/imgs/D4.png""]","false","validation","","",""
"","","","","","html-keyboard-response","191","395873","0.0-15.0-2.2-0.5","etsmnubx37","","etsmnubx37","""2024-11-13T01:10:52.275Z""","null","+","null","","","","","","",""
"","","","","","image-keyboard-response","192","397636","0.0-15.0-2.2-1.5","etsmnubx37","","etsmnubx37","""2024-11-13T01:10:52.275Z""","1761","materials/imgs/D3.png","arrowleft","","[""materials/imgs/D79.png"",""materials/imgs/D48.png""]","false","validation","","",""
"","","","","","html-keyboard-response","193","398137","0.0-15.0-0.3-0.21","etsmnubx37","","etsmnubx37","""2024-11-13T01:10:52.275Z""","null","+","null","","","","","","",""
"","","","","","image-keyboard-response","194","399478","0.0-15.0-0.3-1.21","etsmnubx37","","etsmnubx37","""2024-11-13T01:10:52.275Z""","1339","materials/imgs/D9.png","arrowleft","","[""materials/imgs/D24.png"",""materials/imgs/D95.png""]","false","random","","",""
"","","","","","html-keyboard-response","195","399979","0.0-15.0-0.3-0.22","etsmnubx37","","etsmnubx37","""2024-11-13T01:10:52.275Z""","null","+","null","","","","","","",""
"","","","","","image-keyboard-response","196","401104","0.0-15.0-0.3-1.22","etsmnubx37","","etsmnubx37","""2024-11-13T01:10:52.275Z""","1123","materials/imgs/D48.png","arrowright","","[""materials/imgs/D76.png"",""materials/imgs/D66.png""]","false","random","","",""
"","","","","","html-keyboard-response","197","401605","0.0-15.0-0.3-0.23","etsmnubx37","","etsmnubx37","""2024-11-13T01:10:52.275Z""","null","+","null","","","","","","",""
"","","","","","image-keyboard-response","198","406151","0.0-15.0-0.3-1.23","etsmnubx37","","etsmnubx37","""2024-11-13T01:10:52.275Z""","4544","materials/imgs/D87.png","arrowright","","[""materials/imgs/D75.png"",""materials/imgs/D104.png""]","false","random","","",""
"","","","","","html-keyboard-response","199","406653","0.0-15.0-0.3-0.24","etsmnubx37","","etsmnubx37","""2024-11-13T01:10:52.275Z""","null","+","null","","","","","","",""
"","","","","","image-keyboard-response","200","409891","0.0-15.0-0.3-1.24","etsmnubx37","","etsmnubx37","""2024-11-13T01:10:52.275Z""","3236","materials/imgs/D1.png","arrowleft","","[""materials/imgs/D79.png"",""materials/imgs/D75.png""]","false","random","","",""
"","","","","","html-keyboard-response","201","410392","0.0-15.0-0.3-0.25","etsmnubx37","","etsmnubx37","""2024-11-13T01:10:52.275Z""","null","+","null","","","","","","",""
"","","","","","image-keyboard-response","202","415475","0.0-15.0-0.3-1.25","etsmnubx37","","etsmnubx37","""2024-11-13T01:10:52.275Z""","5082","materials/imgs/D81.png","arrowright","","[""materials/imgs/D22.png"",""materials/imgs/D111.png""]","false","random","","",""
"","","","","","html-keyboard-response","203","415977","0.0-15.0-0.3-0.26","etsmnubx37","","etsmnubx37","""2024-11-13T01:10:52.275Z""","null","+","null","","","","","","",""
"","","","","","image-keyboard-response","204","422735","0.0-15.0-0.3-1.26","etsmnubx37","","etsmnubx37","""2024-11-13T01:10:52.275Z""","6756","materials/imgs/D14.png","arrowright","","[""materials/imgs/D96.png"",""materials/imgs/D66.png""]","false","random","","",""
"","","","","","html-keyboard-response","205","423236","0.0-15.0-0.3-0.27","etsmnubx37","","etsmnubx37","""2024-11-13T01:10:52.275Z""","null","+","null","","","","","","",""
"","","","","","image-keyboard-response","206","430474","0.0-15.0-0.3-1.27","etsmnubx37","","etsmnubx37","""2024-11-13T01:10:52.275Z""","7237","materials/imgs/D105.png","arrowright","","[""materials/imgs/D8.png"",""materials/imgs/D32.png""]","false","random","","",""
"","","","","","html-keyboard-response","207","430976","0.0-15.0-1.3-0.3","etsmnubx37","","etsmnubx37","""2024-11-13T01:10:52.275Z""","null","+","null","","","","","","",""
"","","","","","image-keyboard-response","208","432024","0.0-15.0-1.3-1.3","etsmnubx37","","etsmnubx37","""2024-11-13T01:10:52.275Z""","1047","materials/imgs/D64.png","arrowleft","","[""materials/imgs/D64.png"",""materials/imgs/D53.png""]","","check","materials/imgs/D64.png","0","true"
"","","","","","html-keyboard-response","209","432525","0.0-15.0-2.3-0.6","etsmnubx37","","etsmnubx37","""2024-11-13T01:10:52.275Z""","null","+","null","","","","","","",""
"","","","","","image-keyboard-response","210","437839","0.0-15.0-2.3-1.6","etsmnubx37","","etsmnubx37","""2024-11-13T01:10:52.275Z""","5313","materials/imgs/D36.png","arrowleft","","[""materials/imgs/D47.png"",""materials/imgs/D49.png""]","false","validation","","",""
"","","","","","html-keyboard-response","211","438341","0.0-15.0-2.3-0.7","etsmnubx37","","etsmnubx37","""2024-11-13T01:10:52.275Z""","null","+","null","","","","","","",""
"","","","","","image-keyboard-response","212","442121","0.0-15.0-2.3-1.7","etsmnubx37","","etsmnubx37","""2024-11-13T01:10:52.275Z""","3779","materials/imgs/D22.png","arrowleft","","[""materials/imgs/D4.png"",""materials/imgs/D25.png""]","false","validation","","",""
"","","","","","html-keyboard-response","213","442622","0.0-15.0-0.4-0.28","etsmnubx37","","etsmnubx37","""2024-11-13T01:10:52.275Z""","null","+","null","","","","","","",""
"","","","","","image-keyboard-response","214","447802","0.0-15.0-0.4-1.28","etsmnubx37","","etsmnubx37","""2024-11-13T01:10:52.275Z""","5178","materials/imgs/D49.png","arrowleft","","[""materials/imgs/D103.png"",""materials/imgs/D19.png""]","false","random","","",""
"","","","","","html-keyboard-response","215","448304","0.0-15.0-0.4-0.29","etsmnubx37","","etsmnubx37","""2024-11-13T01:10:52.275Z""","null","+","null","","","","","","",""
"","","","","","image-keyboard-response","216","452697","0.0-15.0-0.4-1.29","etsmnubx37","","etsmnubx37","""2024-11-13T01:10:52.275Z""","4392","materials/imgs/D37.png","arrowright","","[""materials/imgs/D78.png"",""materials/imgs/D65.png""]","false","random","","",""
"","","","","","html-keyboard-response","217","453199","0.0-15.0-0.4-0.30","etsmnubx37","","etsmnubx37","""2024-11-13T01:10:52.275Z""","null","+","null","","","","","","",""
"","","","","","image-keyboard-response","218","454211","0.0-15.0-0.4-1.30","etsmnubx37","","etsmnubx37","""2024-11-13T01:10:52.275Z""","1010","materials/imgs/D4.png","arrowleft","","[""materials/imgs/D32.png"",""materials/imgs/D78.png""]","false","random","","",""
"","","","","","html-keyboard-response","219","454713","0.0-15.0-0.4-0.31","etsmnubx37","","etsmnubx37","""2024-11-13T01:10:52.275Z""","null","+","null","","","","","","",""
"","","","","","image-keyboard-response","220","456884","0.0-15.0-0.4-1.31","etsmnubx37","","etsmnubx37","""2024-11-13T01:10:52.275Z""","2170","materials/imgs/D80.png","arrowleft","","[""materials/imgs/D53.png"",""materials/imgs/D96.png""]","false","random","","",""
"","","","","","html-keyboard-response","221","457385","0.0-15.0-0.4-0.32","etsmnubx37","","etsmnubx37","""2024-11-13T01:10:52.275Z""","null","+","null","","","","","","",""
"","","","","","image-keyboard-response","222","458941","0.0-15.0-0.4-1.32","etsmnubx37","","etsmnubx37","""2024-11-13T01:10:52.275Z""","1554","materials/imgs/D85.png","arrowright","","[""materials/imgs/D22.png"",""materials/imgs/D77.png""]","false","random","","",""
"","","","","","html-keyboard-response","223","459442","0.0-15.0-0.4-0.33","etsmnubx37","","etsmnubx37","""2024-11-13T01:10:52.275Z""","null","+","null","","","","","","",""
"","","","","","image-keyboard-response","224","461286","0.0-15.0-0.4-1.33","etsmnubx37","","etsmnubx37","""2024-11-13T01:10:52.275Z""","1842","materials/imgs/D75.png","arrowright","","[""materials/imgs/D81.png"",""materials/imgs/D94.png""]","false","random","","",""
"","","","","","html-keyboard-response","225","461788","0.0-15.0-0.4-0.34","etsmnubx37","","etsmnubx37","""2024-11-13T01:10:52.275Z""","null","+","null","","","","","","",""
"","","","","","image-keyboard-response","226","467286","0.0-15.0-0.4-1.34","etsmnubx37","","etsmnubx37","""2024-11-13T01:10:52.275Z""","5496","materials/imgs/D3.png","arrowright","","[""materials/imgs/D68.png"",""materials/imgs/D57.png""]","false","random","","",""
"","","","","","html-keyboard-response","227","467787","0.0-15.0-1.4-0.4","etsmnubx37","","etsmnubx37","""2024-11-13T01:10:52.275Z""","null","+","null","","","","","","",""
"","","","","","image-keyboard-response","228","468841","0.0-15.0-1.4-1.4","etsmnubx37","","etsmnubx37","""2024-11-13T01:10:52.275Z""","1053","materials/imgs/D76.png","arrowleft","","[""materials/imgs/D76.png"",""materials/imgs/D78.png""]","","check","materials/imgs/D76.png","0","true"
"","","","","","html-keyboard-response","229","469342","0.0-15.0-2.4-0.8","etsmnubx37","","etsmnubx37","""2024-11-13T01:10:52.275Z""","null","+","null","","","","","","",""
"","","","","","image-keyboard-response","230","471163","0.0-15.0-2.4-1.8","etsmnubx37","","etsmnubx37","""2024-11-13T01:10:52.275Z""","1820","materials/imgs/D36.png","arrowleft","","[""materials/imgs/D47.png"",""materials/imgs/D49.png""]","false","validation","","",""
"","","","","","html-keyboard-response","231","471665","0.0-15.0-2.4-0.9","etsmnubx37","","etsmnubx37","""2024-11-13T01:10:52.275Z""","null","+","null","","","","","","",""
"","","","","","image-keyboard-response","232","474193","0.0-15.0-2.4-1.9","etsmnubx37","","etsmnubx37","""2024-11-13T01:10:52.275Z""","2527","materials/imgs/D1.png","arrowright","","[""materials/imgs/D57.png"",""materials/imgs/D76.png""]","false","validation","","",""
"","","","","","html-button-response","233","475986","0.0-16.0","etsmnubx37","","etsmnubx37","""2024-11-13T01:10:52.275Z""","1792","You have completed 50% of the trials. Please click 'Continue' when you are ready proceed.","0","","","","","","",""
"","","","","","html-keyboard-response","234","476488","0.0-17.0-0.0-0.0","etsmnubx37","","etsmnubx37","""2024-11-13T01:10:52.275Z""","null","+","null","","","","","","",""
"","","","","","image-keyboard-response","235","477706","0.0-17.0-0.0-1.0","etsmnubx37","","etsmnubx37","""2024-11-13T01:10:52.275Z""","1216","materials/imgs/D79.png","arrowright","","[""materials/imgs/D106.png"",""materials/imgs/D80.png""]","false","random","","",""
"","","","","","html-keyboard-response","236","478206","0.0-17.0-0.0-0.1","etsmnubx37","","etsmnubx37","""2024-11-13T01:10:52.275Z""","null","+","null","","","","","","",""
"","","","","","image-keyboard-response","237","480147","0.0-17.0-0.0-1.1","etsmnubx37","","etsmnubx37","""2024-11-13T01:10:52.275Z""","1939","materials/imgs/D76.png","arrowleft","","[""materials/imgs/D83.png"",""materials/imgs/D22.png""]","false","random","","",""
"","","","","","html-keyboard-response","238","480648","0.0-17.0-0.0-0.2","etsmnubx37","","etsmnubx37","""2024-11-13T01:10:52.275Z""","null","+","null","","","","","","",""
"","","","","","image-keyboard-response","239","482697","0.0-17.0-0.0-1.2","etsmnubx37","","etsmnubx37","""2024-11-13T01:10:52.275Z""","2047","materials/imgs/D11.png","arrowleft","","[""materials/imgs/D77.png"",""materials/imgs/D75.png""]","false","random","","",""
"","","","","","html-keyboard-response","240","483198","0.0-17.0-0.0-0.3","etsmnubx37","","etsmnubx37","""2024-11-13T01:10:52.275Z""","null","+","null","","","","","","",""
"","","","","","image-keyboard-response","241","484900","0.0-17.0-0.0-1.3","etsmnubx37","","etsmnubx37","""2024-11-13T01:10:52.275Z""","1700","materials/imgs/D25.png","arrowleft","","[""materials/imgs/D19.png"",""materials/imgs/D82.png""]","false","random","","",""
"","","","","","html-keyboard-response","242","485401","0.0-17.0-0.0-0.4","etsmnubx37","","etsmnubx37","""2024-11-13T01:10:52.275Z""","null","+","null","","","","","","",""
"","","","","","image-keyboard-response","243","487105","0.0-17.0-0.0-1.4","etsmnubx37","","etsmnubx37","""2024-11-13T01:10:52.275Z""","1697","materials/imgs/D26.png","arrowleft","","[""materials/imgs/D77.png"",""materials/imgs/D47.png""]","false","random","","",""
"","","","","","html-keyboard-response","244","487607","0.0-17.0-0.0-0.5","etsmnubx37","","etsmnubx37","""2024-11-13T01:10:52.275Z""","null","+","null","","","","","","",""
"","","","","","image-keyboard-response","245","489074","0.0-17.0-0.0-1.5","etsmnubx37","","etsmnubx37","""2024-11-13T01:10:52.275Z""","1466","materials/imgs/D17.png","arrowleft","","[""materials/imgs/D106.png"",""materials/imgs/D26.png""]","false","random","","",""
"","","","","","html-keyboard-response","246","489575","0.0-17.0-0.0-0.6","etsmnubx37","","etsmnubx37","""2024-11-13T01:10:52.275Z""","null","+","null","","","","","","",""
"","","","","","image-keyboard-response","247","491424","0.0-17.0-0.0-1.6","etsmnubx37","","etsmnubx37","""2024-11-13T01:10:52.275Z""","1847","materials/imgs/D103.png","arrowright","","[""materials/imgs/D105.png"",""materials/imgs/D14.png""]","false","random","","",""
"","","","","","html-keyboard-response","248","491925","0.0-17.0-1.0-0.0","etsmnubx37","","etsmnubx37","""2024-11-13T01:10:52.275Z""","null","+","null","","","","","","",""
"","","","","","image-keyboard-response","249","492720","0.0-17.0-1.0-1.0","etsmnubx37","","etsmnubx37","""2024-11-13T01:10:52.275Z""","793","materials/imgs/D64.png","arrowleft","","[""materials/imgs/D64.png"",""materials/imgs/D53.png""]","","check","materials/imgs/D64.png","0","true"
"","","","","","html-keyboard-response","250","493222","0.0-17.0-2.0-0.0","etsmnubx37","","etsmnubx37","""2024-11-13T01:10:52.275Z""","null","+","null","","","","","","",""
"","","","","","image-keyboard-response","251","497597","0.0-17.0-2.0-1.0","etsmnubx37","","etsmnubx37","""2024-11-13T01:10:52.275Z""","4374","materials/imgs/D96.png","arrowright","","[""materials/imgs/D46.png"",""materials/imgs/D18.png""]","false","validation","","",""
"","","","","","html-keyboard-response","252","498099","0.0-17.0-2.0-0.1","etsmnubx37","","etsmnubx37","""2024-11-13T01:10:52.275Z""","null","+","null","","","","","","",""
"","","","","","image-keyboard-response","253","500442","0.0-17.0-2.0-1.1","etsmnubx37","","etsmnubx37","""2024-11-13T01:10:52.275Z""","2342","materials/imgs/D25.png","arrowright","","[""materials/imgs/D103.png"",""materials/imgs/D64.png""]","false","validation","","",""
"","","","","","html-keyboard-response","254","500944","0.0-17.0-0.1-0.7","etsmnubx37","","etsmnubx37","""2024-11-13T01:10:52.275Z""","null","+","null","","","","","","",""
"","","","","","image-keyboard-response","255","503397","0.0-17.0-0.1-1.7","etsmnubx37","","etsmnubx37","""2024-11-13T01:10:52.275Z""","2452","materials/imgs/D79.png","arrowleft","","[""materials/imgs/D21.png"",""materials/imgs/D25.png""]","false","random","","",""
"","","","","","html-keyboard-response","256","503898","0.0-17.0-0.1-0.8","etsmnubx37","","etsmnubx37","""2024-11-13T01:10:52.275Z""","null","+","null","","","","","","",""
"","","","","","image-keyboard-response","257","506200","0.0-17.0-0.1-1.8","etsmnubx37","","etsmnubx37","""2024-11-13T01:10:52.275Z""","2300","materials/imgs/D64.png","arrowright","","[""materials/imgs/D111.png"",""materials/imgs/D106.png""]","false","random","","",""
"","","","","","html-keyboard-response","258","506701","0.0-17.0-0.1-0.9","etsmnubx37","","etsmnubx37","""2024-11-13T01:10:52.275Z""","null","+","null","","","","","","",""
"","","","","","image-keyboard-response","259","508529","0.0-17.0-0.1-1.9","etsmnubx37","","etsmnubx37","""2024-11-13T01:10:52.275Z""","1826","materials/imgs/D56.png","arrowright","","[""materials/imgs/D14.png"",""materials/imgs/D81.png""]","false","random","","",""
"","","","","","html-keyboard-response","260","509031","0.0-17.0-0.1-0.10","etsmnubx37","","etsmnubx37","""2024-11-13T01:10:52.275Z""","null","+","null","","","","","","",""
"","","","","","image-keyboard-response","261","513249","0.0-17.0-0.1-1.10","etsmnubx37","","etsmnubx37","""2024-11-13T01:10:52.275Z""","4216","materials/imgs/D51.png","arrowright","","[""materials/imgs/D20.png"",""materials/imgs/D18.png""]","false","random","","",""
"","","","","","html-keyboard-response","262","513750","0.0-17.0-0.1-0.11","etsmnubx37","","etsmnubx37","""2024-11-13T01:10:52.275Z""","null","+","null","","","","","","",""
"","","","","","image-keyboard-response","263","517345","0.0-17.0-0.1-1.11","etsmnubx37","","etsmnubx37","""2024-11-13T01:10:52.275Z""","3593","materials/imgs/D17.png","arrowright","","[""materials/imgs/D94.png"",""materials/imgs/D37.png""]","false","random","","",""
"","","","","","html-keyboard-response","264","517846","0.0-17.0-0.1-0.12","etsmnubx37","","etsmnubx37","""2024-11-13T01:10:52.275Z""","null","+","null","","","","","","",""
"","","","","","image-keyboard-response","265","520685","0.0-17.0-0.1-1.12","etsmnubx37","","etsmnubx37","""2024-11-13T01:10:52.275Z""","2838","materials/imgs/D20.png","arrowright","","[""materials/imgs/D36.png"",""materials/imgs/D26.png""]","false","random","","",""
"","","","","","html-keyboard-response","266","521187","0.0-17.0-0.1-0.13","etsmnubx37","","etsmnubx37","""2024-11-13T01:10:52.275Z""","null","+","null","","","","","","",""
"","","","","","image-keyboard-response","267","523832","0.0-17.0-0.1-1.13","etsmnubx37","","etsmnubx37","""2024-11-13T01:10:52.275Z""","2644","materials/imgs/D46.png","arrowleft","","[""materials/imgs/D48.png"",""materials/imgs/D78.png""]","false","random","","",""
"","","","","","html-keyboard-response","268","524334","0.0-17.0-1.1-0.1","etsmnubx37","","etsmnubx37","""2024-11-13T01:10:52.275Z""","null","+","null","","","","","","",""
"","","","","","image-keyboard-response","269","525121","0.0-17.0-1.1-1.1","etsmnubx37","","etsmnubx37","""2024-11-13T01:10:52.275Z""","786","materials/imgs/D8.png","arrowright","","[""materials/imgs/D18.png"",""materials/imgs/D8.png""]","","check","materials/imgs/D8.png","1","true"
"","","","","","html-keyboard-response","270","525622","0.0-17.0-2.1-0.2","etsmnubx37","","etsmnubx37","""2024-11-13T01:10:52.275Z""","null","+","null","","","","","","",""
"","","","","","image-keyboard-response","271","532016","0.0-17.0-2.1-1.2","etsmnubx37","","etsmnubx37","""2024-11-13T01:10:52.275Z""","6392","materials/imgs/D79.png","arrowleft","","[""materials/imgs/D51.png"",""materials/imgs/D64.png""]","false","validation","","",""
"","","","","","html-keyboard-response","272","532517","0.0-17.0-2.1-0.3","etsmnubx37","","etsmnubx37","""2024-11-13T01:10:52.275Z""","null","+","null","","","","","","",""
"","","","","","image-keyboard-response","273","533885","0.0-17.0-2.1-1.3","etsmnubx37","","etsmnubx37","""2024-11-13T01:10:52.275Z""","1367","materials/imgs/D32.png","arrowright","","[""materials/imgs/D68.png"",""materials/imgs/D96.png""]","false","validation","","",""
"","","","","","html-keyboard-response","274","534386","0.0-17.0-0.2-0.14","etsmnubx37","","etsmnubx37","""2024-11-13T01:10:52.275Z""","null","+","null","","","","","","",""
"","","","","","image-keyboard-response","275","535662","0.0-17.0-0.2-1.14","etsmnubx37","","etsmnubx37","""2024-11-13T01:10:52.275Z""","1275","materials/imgs/D75.png","arrowright","","[""materials/imgs/D53.png"",""materials/imgs/D66.png""]","false","random","","",""
"","","","","","html-keyboard-response","276","536164","0.0-17.0-0.2-0.15","etsmnubx37","","etsmnubx37","""2024-11-13T01:10:52.275Z""","null","+","null","","","","","","",""
"","","","","","image-keyboard-response","277","538035","0.0-17.0-0.2-1.15","etsmnubx37","","etsmnubx37","""2024-11-13T01:10:52.275Z""","1869","materials/imgs/D9.png","arrowright","","[""materials/imgs/D68.png"",""materials/imgs/D21.png""]","false","random","","",""
"","","","","","html-keyboard-response","278","538537","0.0-17.0-0.2-0.16","etsmnubx37","","etsmnubx37","""2024-11-13T01:10:52.275Z""","null","+","null","","","","","","",""
"","","","","","image-keyboard-response","279","541452","0.0-17.0-0.2-1.16","etsmnubx37","","etsmnubx37","""2024-11-13T01:10:52.275Z""","2914","materials/imgs/D47.png","arrowright","","[""materials/imgs/D29.png"",""materials/imgs/D76.png""]","false","random","","",""
"","","","","","html-keyboard-response","280","541953","0.0-17.0-0.2-0.17","etsmnubx37","","etsmnubx37","""2024-11-13T01:10:52.275Z""","null","+","null","","","","","","",""
"","","","","","image-keyboard-response","281","543682","0.0-17.0-0.2-1.17","etsmnubx37","","etsmnubx37","""2024-11-13T01:10:52.275Z""","1727","materials/imgs/D18.png","arrowleft","","[""materials/imgs/D6.png"",""materials/imgs/D8.png""]","false","random","","",""
"","","","","","html-keyboard-response","282","544184","0.0-17.0-0.2-0.18","etsmnubx37","","etsmnubx37","""2024-11-13T01:10:52.275Z""","null","+","null","","","","","","",""
"","","","","","image-keyboard-response","283","548378","0.0-17.0-0.2-1.18","etsmnubx37","","etsmnubx37","""2024-11-13T01:10:52.275Z""","4193","materials/imgs/D47.png","arrowleft","","[""materials/imgs/D29.png"",""materials/imgs/D57.png""]","false","random","","",""
"","","","","","html-keyboard-response","284","548879","0.0-17.0-0.2-0.19","etsmnubx37","","etsmnubx37","""2024-11-13T01:10:52.275Z""","null","+","null","","","","","","",""
"","","","","","image-keyboard-response","285","554688","0.0-17.0-0.2-1.19","etsmnubx37","","etsmnubx37","""2024-11-13T01:10:52.275Z""","5808","materials/imgs/D34.png","arrowright","","[""materials/imgs/D68.png"",""materials/imgs/D64.png""]","false","random","","",""
"","","","","","html-keyboard-response","286","555190","0.0-17.0-0.2-0.20","etsmnubx37","","etsmnubx37","""2024-11-13T01:10:52.275Z""","null","+","null","","","","","","",""
"","","","","","image-keyboard-response","287","558169","0.0-17.0-0.2-1.20","etsmnubx37","","etsmnubx37","""2024-11-13T01:10:52.275Z""","2977","materials/imgs/D34.png","arrowleft","","[""materials/imgs/D19.png"",""materials/imgs/D82.png""]","false","random","","",""
"","","","","","html-keyboard-response","288","558670","0.0-17.0-1.2-0.2","etsmnubx37","","etsmnubx37","""2024-11-13T01:10:52.275Z""","null","+","null","","","","","","",""
"","","","","","image-keyboard-response","289","559872","0.0-17.0-1.2-1.2","etsmnubx37","","etsmnubx37","""2024-11-13T01:10:52.275Z""","1201","materials/imgs/D78.png","arrowright","","[""materials/imgs/D76.png"",""materials/imgs/D78.png""]","","check","materials/imgs/D78.png","1","true"
"","","","","","html-keyboard-response","290","560373","0.0-17.0-2.2-0.4","etsmnubx37","","etsmnubx37","""2024-11-13T01:10:52.275Z""","null","+","null","","","","","","",""
"","","","","","image-keyboard-response","291","561631","0.0-17.0-2.2-1.4","etsmnubx37","","etsmnubx37","""2024-11-13T01:10:52.275Z""","1256","materials/imgs/D53.png","arrowleft","","[""materials/imgs/D77.png"",""materials/imgs/D75.png""]","false","validation","","",""
"","","","","","html-keyboard-response","292","562132","0.0-17.0-2.2-0.5","etsmnubx37","","etsmnubx37","""2024-11-13T01:10:52.275Z""","null","+","null","","","","","","",""
"","","","","","image-keyboard-response","293","564330","0.0-17.0-2.2-1.5","etsmnubx37","","etsmnubx37","""2024-11-13T01:10:52.275Z""","2197","materials/imgs/D8.png","arrowleft","","[""materials/imgs/D101.png"",""materials/imgs/D52.png""]","false","validation","","",""
"","","","","","html-keyboard-response","294","564832","0.0-17.0-0.3-0.21","etsmnubx37","","etsmnubx37","""2024-11-13T01:10:52.275Z""","null","+","null","","","","","","",""
"","","","","","image-keyboard-response","295","568342","0.0-17.0-0.3-1.21","etsmnubx37","","etsmnubx37","""2024-11-13T01:10:52.275Z""","3508","materials/imgs/D79.png","arrowleft","","[""materials/imgs/D77.png"",""materials/imgs/D16.png""]","false","random","","",""
"","","","","","html-keyboard-response","296","568843","0.0-17.0-0.3-0.22","etsmnubx37","","etsmnubx37","""2024-11-13T01:10:52.275Z""","null","+","null","","","","","","",""
"","","","","","image-keyboard-response","297","570636","0.0-17.0-0.3-1.22","etsmnubx37","","etsmnubx37","""2024-11-13T01:10:52.275Z""","1792","materials/imgs/D77.png","arrowleft","","[""materials/imgs/D11.png"",""materials/imgs/D74.png""]","false","random","","",""
"","","","","","html-keyboard-response","298","571137","0.0-17.0-0.3-0.23","etsmnubx37","","etsmnubx37","""2024-11-13T01:10:52.275Z""","null","+","null","","","","","","",""
"","","","","","image-keyboard-response","299","571987","0.0-17.0-0.3-1.23","etsmnubx37","","etsmnubx37","""2024-11-13T01:10:52.275Z""","848","materials/imgs/D16.png","arrowleft","","[""materials/imgs/D77.png"",""materials/imgs/D32.png""]","false","random","","",""
"","","","","","html-keyboard-response","300","572488","0.0-17.0-0.3-0.24","etsmnubx37","","etsmnubx37","""2024-11-13T01:10:52.275Z""","null","+","null","","","","","","",""
"","","","","","image-keyboard-response","301","574527","0.0-17.0-0.3-1.24","etsmnubx37","","etsmnubx37","""2024-11-13T01:10:52.275Z""","2037","materials/imgs/D6.png","arrowleft","","[""materials/imgs/D92.png"",""materials/imgs/D101.png""]","false","random","","",""
"","","","","","html-keyboard-response","302","575029","0.0-17.0-0.3-0.25","etsmnubx37","","etsmnubx37","""2024-11-13T01:10:52.275Z""","null","+","null","","","","","","",""
"","","","","","image-keyboard-response","303","576924","0.0-17.0-0.3-1.25","etsmnubx37","","etsmnubx37","""2024-11-13T01:10:52.275Z""","1893","materials/imgs/D6.png","arrowright","","[""materials/imgs/D66.png"",""materials/imgs/D101.png""]","false","random","","",""
"","","","","","html-keyboard-response","304","577424","0.0-17.0-0.3-0.26","etsmnubx37","","etsmnubx37","""2024-11-13T01:10:52.275Z""","null","+","null","","","","","","",""
"","","","","","image-keyboard-response","305","580322","0.0-17.0-0.3-1.26","etsmnubx37","","etsmnubx37","""2024-11-13T01:10:52.275Z""","2896","materials/imgs/D51.png","arrowright","","[""materials/imgs/D11.png"",""materials/imgs/D64.png""]","false","random","","",""
"","","","","","html-keyboard-response","306","580823","0.0-17.0-0.3-0.27","etsmnubx37","","etsmnubx37","""2024-11-13T01:10:52.275Z""","null","+","null","","","","","","",""
"","","","","","image-keyboard-response","307","581552","0.0-17.0-0.3-1.27","etsmnubx37","","etsmnubx37","""2024-11-13T01:10:52.275Z""","728","materials/imgs/D14.png","arrowright","","[""materials/imgs/D94.png"",""materials/imgs/D6.png""]","false","random","","",""
"","","","","","html-keyboard-response","308","582053","0.0-17.0-1.3-0.3","etsmnubx37","","etsmnubx37","""2024-11-13T01:10:52.275Z""","null","+","null","","","","","","",""
"","","","","","image-keyboard-response","309","582838","0.0-17.0-1.3-1.3","etsmnubx37","","etsmnubx37","""2024-11-13T01:10:52.275Z""","783","materials/imgs/D26.png","arrowleft","","[""materials/imgs/D26.png"",""materials/imgs/D46.png""]","","check","materials/imgs/D26.png","0","true"
"","","","","","html-keyboard-response","310","583339","0.0-17.0-2.3-0.6","etsmnubx37","","etsmnubx37","""2024-11-13T01:10:52.275Z""","null","+","null","","","","","","",""
"","","","","","image-keyboard-response","311","585606","0.0-17.0-2.3-1.6","etsmnubx37","","etsmnubx37","""2024-11-13T01:10:52.275Z""","2265","materials/imgs/D37.png","arrowleft","","[""materials/imgs/D84.png"",""materials/imgs/D111.png""]","false","validation","","",""
"","","","","","html-keyboard-response","312","586107","0.0-17.0-2.3-0.7","etsmnubx37","","etsmnubx37","""2024-11-13T01:10:52.275Z""","null","+","null","","","","","","",""
"","","","","","image-keyboard-response","313","589681","0.0-17.0-2.3-1.7","etsmnubx37","","etsmnubx37","""2024-11-13T01:10:52.275Z""","3572","materials/imgs/D52.png","arrowleft","","[""materials/imgs/D9.png"",""materials/imgs/D19.png""]","false","validation","","",""
"","","","","","html-keyboard-response","314","590183","0.0-17.0-0.4-0.28","etsmnubx37","","etsmnubx37","""2024-11-13T01:10:52.275Z""","null","+","null","","","","","","",""
"","","","","","image-keyboard-response","315","594454","0.0-17.0-0.4-1.28","etsmnubx37","","etsmnubx37","""2024-11-13T01:10:52.275Z""","4270","materials/imgs/D22.png","arrowright","","[""materials/imgs/D56.png"",""materials/imgs/D80.png""]","false","random","","",""
"","","","","","html-keyboard-response","316","594955","0.0-17.0-0.4-0.29","etsmnubx37","","etsmnubx37","""2024-11-13T01:10:52.275Z""","null","+","null","","","","","","",""
"","","","","","image-keyboard-response","317","600480","0.0-17.0-0.4-1.29","etsmnubx37","","etsmnubx37","""2024-11-13T01:10:52.275Z""","5524","materials/imgs/D25.png","arrowright","","[""materials/imgs/D46.png"",""materials/imgs/D64.png""]","false","random","","",""
"","","","","","html-keyboard-response","318","600981","0.0-17.0-0.4-0.30","etsmnubx37","","etsmnubx37","""2024-11-13T01:10:52.275Z""","null","+","null","","","","","","",""
"","","","","","image-keyboard-response","319","605279","0.0-17.0-0.4-1.30","etsmnubx37","","etsmnubx37","""2024-11-13T01:10:52.275Z""","4296","materials/imgs/D4.png","arrowleft","","[""materials/imgs/D68.png"",""materials/imgs/D20.png""]","false","random","","",""
"","","","","","html-keyboard-response","320","605780","0.0-17.0-0.4-0.31","etsmnubx37","","etsmnubx37","""2024-11-13T01:10:52.275Z""","null","+","null","","","","","","",""
"","","","","","image-keyboard-response","321","610239","0.0-17.0-0.4-1.31","etsmnubx37","","etsmnubx37","""2024-11-13T01:10:52.275Z""","4457","materials/imgs/D96.png","arrowleft","","[""materials/imgs/D19.png"",""materials/imgs/D11.png""]","false","random","","",""
"","","","","","html-keyboard-response","322","610740","0.0-17.0-0.4-0.32","etsmnubx37","","etsmnubx37","""2024-11-13T01:10:52.275Z""","null","+","null","","","","","","",""
"","","","","","image-keyboard-response","323","613385","0.0-17.0-0.4-1.32","etsmnubx37","","etsmnubx37","""2024-11-13T01:10:52.275Z""","2643","materials/imgs/D1.png","arrowleft","","[""materials/imgs/D79.png"",""materials/imgs/D11.png""]","false","random","","",""
"","","","","","html-keyboard-response","324","613886","0.0-17.0-0.4-0.33","etsmnubx37","","etsmnubx37","""2024-11-13T01:10:52.275Z""","null","+","null","","","","","","",""
"","","","","","image-keyboard-response","325","615081","0.0-17.0-0.4-1.33","etsmnubx37","","etsmnubx37","""2024-11-13T01:10:52.275Z""","1193","materials/imgs/D74.png","arrowleft","","[""materials/imgs/D111.png"",""materials/imgs/D83.png""]","false","random","","",""
"","","","","","html-keyboard-response","326","615583","0.0-17.0-0.4-0.34","etsmnubx37","","etsmnubx37","""2024-11-13T01:10:52.275Z""","null","+","null","","","","","","",""
"","","","","","image-keyboard-response","327","616743","0.0-17.0-0.4-1.34","etsmnubx37","","etsmnubx37","""2024-11-13T01:10:52.275Z""","1159","materials/imgs/D74.png","arrowleft","","[""materials/imgs/D3.png"",""materials/imgs/D68.png""]","false","random","","",""
"","","","","","html-keyboard-response","328","617244","0.0-17.0-1.4-0.4","etsmnubx37","","etsmnubx37","""2024-11-13T01:10:52.275Z""","null","+","null","","","","","","",""
"","","","","","image-keyboard-response","329","617915","0.0-17.0-1.4-1.4","etsmnubx37","","etsmnubx37","""2024-11-13T01:10:52.275Z""","669","materials/imgs/D106.png","arrowleft","","[""materials/imgs/D106.png"",""materials/imgs/D101.png""]","","check","materials/imgs/D106.png","0","true"
"","","","","","html-keyboard-response","330","618417","0.0-17.0-2.4-0.8","etsmnubx37","","etsmnubx37","""2024-11-13T01:10:52.275Z""","null","+","null","","","","","","",""
"","","","","","image-keyboard-response","331","619402","0.0-17.0-2.4-1.8","etsmnubx37","","etsmnubx37","""2024-11-13T01:10:52.275Z""","984","materials/imgs/D11.png","arrowleft","","[""materials/imgs/D83.png"",""materials/imgs/D48.png""]","false","validation","","",""
"","","","","","html-keyboard-response","332","619903","0.0-17.0-2.4-0.9","etsmnubx37","","etsmnubx37","""2024-11-13T01:10:52.275Z""","null","+","null","","","","","","",""
"","","","","","image-keyboard-response","333","622224","0.0-17.0-2.4-1.9","etsmnubx37","","etsmnubx37","""2024-11-13T01:10:52.275Z""","2320","materials/imgs/D96.png","arrowleft","","[""materials/imgs/D46.png"",""materials/imgs/D18.png""]","false","validation","","",""
"","","","","","html-button-response","334","623699","0.0-18.0","etsmnubx37","","etsmnubx37","""2024-11-13T01:10:52.275Z""","1474","You have completed 75% of the trials. Please click 'Continue' when you are ready proceed.","0","","","","","","",""
"","","","","","html-keyboard-response","335","624200","0.0-19.0-0.0-0.0","etsmnubx37","","etsmnubx37","""2024-11-13T01:10:52.275Z""","null","+","null","","","","","","",""
"","","","","","image-keyboard-response","336","626898","0.0-19.0-0.0-1.0","etsmnubx37","","etsmnubx37","""2024-11-13T01:10:52.275Z""","2696","materials/imgs/D65.png","arrowleft","","[""materials/imgs/D81.png"",""materials/imgs/D36.png""]","false","random","","",""
"","","","","","html-keyboard-response","337","627399","0.0-19.0-0.0-0.1","etsmnubx37","","etsmnubx37","""2024-11-13T01:10:52.275Z""","null","+","null","","","","","","",""
"","","","","","image-keyboard-response","338","628746","0.0-19.0-0.0-1.1","etsmnubx37","","etsmnubx37","""2024-11-13T01:10:52.275Z""","1345","materials/imgs/D94.png","arrowleft","","[""materials/imgs/D85.png"",""materials/imgs/D25.png""]","false","random","","",""
"","","","","","html-keyboard-response","339","629247","0.0-19.0-0.0-0.2","etsmnubx37","","etsmnubx37","""2024-11-13T01:10:52.275Z""","null","+","null","","","","","","",""
"","","","","","image-keyboard-response","340","631198","0.0-19.0-0.0-1.2","etsmnubx37","","etsmnubx37","""2024-11-13T01:10:52.275Z""","1949","materials/imgs/D57.png","arrowright","","[""materials/imgs/D66.png"",""materials/imgs/D52.png""]","false","random","","",""
"","","","","","html-keyboard-response","341","631698","0.0-19.0-0.0-0.3","etsmnubx37","","etsmnubx37","""2024-11-13T01:10:52.275Z""","null","+","null","","","","","","",""
"","","","","","image-keyboard-response","342","633640","0.0-19.0-0.0-1.3","etsmnubx37","","etsmnubx37","""2024-11-13T01:10:52.275Z""","1940","materials/imgs/D95.png","arrowleft","","[""materials/imgs/D55.png"",""materials/imgs/D79.png""]","false","random","","",""
"","","","","","html-keyboard-response","343","634142","0.0-19.0-0.0-0.4","etsmnubx37","","etsmnubx37","""2024-11-13T01:10:52.275Z""","null","+","null","","","","","","",""
"","","","","","image-keyboard-response","344","635559","0.0-19.0-0.0-1.4","etsmnubx37","","etsmnubx37","""2024-11-13T01:10:52.275Z""","1415","materials/imgs/D66.png","arrowright","","[""materials/imgs/D53.png"",""materials/imgs/D81.png""]","false","random","","",""
"","","","","","html-keyboard-response","345","636060","0.0-19.0-0.0-0.5","etsmnubx37","","etsmnubx37","""2024-11-13T01:10:52.275Z""","null","+","null","","","","","","",""
"","","","","","image-keyboard-response","346","638163","0.0-19.0-0.0-1.5","etsmnubx37","","etsmnubx37","""2024-11-13T01:10:52.275Z""","2101","materials/imgs/D104.png","arrowright","","[""materials/imgs/D48.png"",""materials/imgs/D51.png""]","false","random","","",""
"","","","","","html-keyboard-response","347","638665","0.0-19.0-0.0-0.6","etsmnubx37","","etsmnubx37","""2024-11-13T01:10:52.275Z""","null","+","null","","","","","","",""
"","","","","","image-keyboard-response","348","640201","0.0-19.0-0.0-1.6","etsmnubx37","","etsmnubx37","""2024-11-13T01:10:52.275Z""","1535","materials/imgs/D51.png","arrowright","","[""materials/imgs/D96.png"",""materials/imgs/D47.png""]","false","random","","",""
"","","","","","html-keyboard-response","349","640702","0.0-19.0-1.0-0.0","etsmnubx37","","etsmnubx37","""2024-11-13T01:10:52.275Z""","null","+","null","","","","","","",""
"","","","","","image-keyboard-response","350","642023","0.0-19.0-1.0-1.0","etsmnubx37","","etsmnubx37","""2024-11-13T01:10:52.275Z""","1320","materials/imgs/D106.png","arrowleft","","[""materials/imgs/D106.png"",""materials/imgs/D101.png""]","","check","materials/imgs/D106.png","0","true"
"","","","","","html-keyboard-response","351","642525","0.0-19.0-2.0-0.0","etsmnubx37","","etsmnubx37","""2024-11-13T01:10:52.275Z""","null","+","null","","","","","","",""
"","","","","","image-keyboard-response","352","644083","0.0-19.0-2.0-1.0","etsmnubx37","","etsmnubx37","""2024-11-13T01:10:52.275Z""","1556","materials/imgs/D19.png","arrowright","","[""materials/imgs/D111.png"",""materials/imgs/D56.png""]","false","validation","","",""
"","","","","","html-keyboard-response","353","644584","0.0-19.0-2.0-0.1","etsmnubx37","","etsmnubx37","""2024-11-13T01:10:52.275Z""","null","+","null","","","","","","",""
"","","","","","image-keyboard-response","354","645711","0.0-19.0-2.0-1.1","etsmnubx37","","etsmnubx37","""2024-11-13T01:10:52.275Z""","1126","materials/imgs/D47.png","arrowright","","[""materials/imgs/D1.png"",""materials/imgs/D52.png""]","false","validation","","",""
"","","","","","html-keyboard-response","355","646213","0.0-19.0-0.1-0.7","etsmnubx37","","etsmnubx37","""2024-11-13T01:10:52.275Z""","null","+","null","","","","","","",""
"","","","","","image-keyboard-response","356","647686","0.0-19.0-0.1-1.7","etsmnubx37","","etsmnubx37","""2024-11-13T01:10:52.275Z""","1472","materials/imgs/D46.png","arrowleft","","[""materials/imgs/D94.png"",""materials/imgs/D66.png""]","false","random","","",""
"","","","","","html-keyboard-response","357","648188","0.0-19.0-0.1-0.8","etsmnubx37","","etsmnubx37","""2024-11-13T01:10:52.275Z""","null","+","null","","","","","","",""
"","","","","","image-keyboard-response","358","649762","0.0-19.0-0.1-1.8","etsmnubx37","","etsmnubx37","""2024-11-13T01:10:52.275Z""","1573","materials/imgs/D92.png","arrowleft","","[""materials/imgs/D17.png"",""materials/imgs/D35.png""]","false","random","","",""
"","","","","","html-keyboard-response","359","650263","0.0-19.0-0.1-0.9","etsmnubx37","","etsmnubx37","""2024-11-13T01:10:52.275Z""","null","+","null","","","","","","",""
"","","","","","image-keyboard-response","360","652100","0.0-19.0-0.1-1.9","etsmnubx37","","etsmnubx37","""2024-11-13T01:10:52.275Z""","1835","materials/imgs/D6.png","arrowleft","","[""materials/imgs/D14.png"",""materials/imgs/D16.png""]","false","random","","",""
"","","","","","html-keyboard-response","361","652601","0.0-19.0-0.1-0.10","etsmnubx37","","etsmnubx37","""2024-11-13T01:10:52.275Z""","null","+","null","","","","","","",""
"","","","","","image-keyboard-response","362","653688","0.0-19.0-0.1-1.10","etsmnubx37","","etsmnubx37","""2024-11-13T01:10:52.275Z""","1085","materials/imgs/D17.png","arrowleft","","[""materials/imgs/D80.png"",""materials/imgs/D19.png""]","false","random","","",""
"","","","","","html-keyboard-response","363","654190","0.0-19.0-0.1-0.11","etsmnubx37","","etsmnubx37","""2024-11-13T01:10:52.275Z""","null","+","null","","","","","","",""
"","","","","","image-keyboard-response","364","655793","0.0-19.0-0.1-1.11","etsmnubx37","","etsmnubx37","""2024-11-13T01:10:52.275Z""","1602","materials/imgs/D95.png","arrowleft","","[""materials/imgs/D19.png"",""materials/imgs/D80.png""]","false","random","","",""
"","","","","","html-keyboard-response","365","656294","0.0-19.0-0.1-0.12","etsmnubx37","","etsmnubx37","""2024-11-13T01:10:52.275Z""","null","+","null","","","","","","",""
"","","","","","image-keyboard-response","366","658020","0.0-19.0-0.1-1.12","etsmnubx37","","etsmnubx37","""2024-11-13T01:10:52.275Z""","1724","materials/imgs/D11.png","arrowleft","","[""materials/imgs/D6.png"",""materials/imgs/D3.png""]","false","random","","",""
"","","","","","html-keyboard-response","367","658521","0.0-19.0-0.1-0.13","etsmnubx37","","etsmnubx37","""2024-11-13T01:10:52.275Z""","null","+","null","","","","","","",""
"","","","","","image-keyboard-response","368","661130","0.0-19.0-0.1-1.13","etsmnubx37","","etsmnubx37","""2024-11-13T01:10:52.275Z""","2608","materials/imgs/D74.png","arrowright","","[""materials/imgs/D96.png"",""materials/imgs/D76.png""]","false","random","","",""
"","","","","","html-keyboard-response","369","661632","0.0-19.0-1.1-0.1","etsmnubx37","","etsmnubx37","""2024-11-13T01:10:52.275Z""","null","+","null","","","","","","",""
"","","","","","image-keyboard-response","370","662307","0.0-19.0-1.1-1.1","etsmnubx37","","etsmnubx37","""2024-11-13T01:10:52.275Z""","673","materials/imgs/D101.png","arrowright","","[""materials/imgs/D106.png"",""materials/imgs/D101.png""]","","check","materials/imgs/D101.png","1","true"
"","","","","","html-keyboard-response","371","662809","0.0-19.0-2.1-0.2","etsmnubx37","","etsmnubx37","""2024-11-13T01:10:52.275Z""","null","+","null","","","","","","",""
"","","","","","image-keyboard-response","372","668675","0.0-19.0-2.1-1.2","etsmnubx37","","etsmnubx37","""2024-11-13T01:10:52.275Z""","5865","materials/imgs/D66.png","arrowright","","[""materials/imgs/D85.png"",""materials/imgs/D25.png""]","false","validation","","",""
"","","","","","html-keyboard-response","373","669177","0.0-19.0-2.1-0.3","etsmnubx37","","etsmnubx37","""2024-11-13T01:10:52.275Z""","null","+","null","","","","","","",""
"","","","","","image-keyboard-response","374","674498","0.0-19.0-2.1-1.3","etsmnubx37","","etsmnubx37","""2024-11-13T01:10:52.275Z""","5320","materials/imgs/D49.png","arrowright","","[""materials/imgs/D8.png"",""materials/imgs/D101.png""]","false","validation","","",""
"","","","","","html-keyboard-response","375","675000","0.0-19.0-0.2-0.14","etsmnubx37","","etsmnubx37","""2024-11-13T01:10:52.275Z""","null","+","null","","","","","","",""
"","","","","","image-keyboard-response","376","679278","0.0-19.0-0.2-1.14","etsmnubx37","","etsmnubx37","""2024-11-13T01:10:52.275Z""","4276","materials/imgs/D9.png","arrowleft","","[""materials/imgs/D78.png"",""materials/imgs/D77.png""]","false","random","","",""
"","","","","","html-keyboard-response","377","679779","0.0-19.0-0.2-0.15","etsmnubx37","","etsmnubx37","""2024-11-13T01:10:52.275Z""","null","+","null","","","","","","",""
"","","","","","image-keyboard-response","378","681134","0.0-19.0-0.2-1.15","etsmnubx37","","etsmnubx37","""2024-11-13T01:10:52.275Z""","1354","materials/imgs/D16.png","arrowleft","","[""materials/imgs/D79.png"",""materials/imgs/D32.png""]","false","random","","",""
"","","","","","html-keyboard-response","379","681636","0.0-19.0-0.2-0.16","etsmnubx37","","etsmnubx37","""2024-11-13T01:10:52.275Z""","null","+","null","","","","","","",""
"","","","","","image-keyboard-response","380","686382","0.0-19.0-0.2-1.16","etsmnubx37","","etsmnubx37","""2024-11-13T01:10:52.275Z""","4744","materials/imgs/D104.png","arrowright","","[""materials/imgs/D87.png"",""materials/imgs/D105.png""]","false","random","","",""
"","","","","","html-keyboard-response","381","686884","0.0-19.0-0.2-0.17","etsmnubx37","","etsmnubx37","""2024-11-13T01:10:52.275Z""","null","+","null","","","","","","",""
"","","","","","image-keyboard-response","382","691540","0.0-19.0-0.2-1.17","etsmnubx37","","etsmnubx37","""2024-11-13T01:10:52.275Z""","4654","materials/imgs/D47.png","arrowleft","","[""materials/imgs/D68.png"",""materials/imgs/D92.png""]","false","random","","",""
"","","","","","html-keyboard-response","383","692041","0.0-19.0-0.2-0.18","etsmnubx37","","etsmnubx37","""2024-11-13T01:10:52.275Z""","null","+","null","","","","","","",""
"","","","","","image-keyboard-response","384","694703","0.0-19.0-0.2-1.18","etsmnubx37","","etsmnubx37","""2024-11-13T01:10:52.275Z""","2661","materials/imgs/D111.png","arrowleft","","[""materials/imgs/D19.png"",""materials/imgs/D29.png""]","false","random","","",""
"","","","","","html-keyboard-response","385","695205","0.0-19.0-0.2-0.19","etsmnubx37","","etsmnubx37","""2024-11-13T01:10:52.275Z""","null","+","null","","","","","","",""
"","","","","","image-keyboard-response","386","696093","0.0-19.0-0.2-1.19","etsmnubx37","","etsmnubx37","""2024-11-13T01:10:52.275Z""","887","materials/imgs/D106.png","arrowright","","[""materials/imgs/D79.png"",""materials/imgs/D105.png""]","false","random","","",""
"","","","","","html-keyboard-response","387","696595","0.0-19.0-0.2-0.20","etsmnubx37","","etsmnubx37","""2024-11-13T01:10:52.275Z""","null","+","null","","","","","","",""
"","","","","","image-keyboard-response","388","698347","0.0-19.0-0.2-1.20","etsmnubx37","","etsmnubx37","""2024-11-13T01:10:52.275Z""","1750","materials/imgs/D55.png","arrowleft","","[""materials/imgs/D106.png"",""materials/imgs/D87.png""]","false","random","","",""
"","","","","","html-keyboard-response","389","698848","0.0-19.0-1.2-0.2","etsmnubx37","","etsmnubx37","""2024-11-13T01:10:52.275Z""","null","+","null","","","","","","",""
"","","","","","image-keyboard-response","390","699962","0.0-19.0-1.2-1.2","etsmnubx37","","etsmnubx37","""2024-11-13T01:10:52.275Z""","1112","materials/imgs/D26.png","arrowleft","","[""materials/imgs/D26.png"",""materials/imgs/D46.png""]","","check","materials/imgs/D26.png","0","true"
"","","","","","html-keyboard-response","391","700463","0.0-19.0-2.2-0.4","etsmnubx37","","etsmnubx37","""2024-11-13T01:10:52.275Z""","null","+","null","","","","","","",""
"","","","","","image-keyboard-response","392","701807","0.0-19.0-2.2-1.4","etsmnubx37","","etsmnubx37","""2024-11-13T01:10:52.275Z""","1343","materials/imgs/D66.png","arrowleft","","[""materials/imgs/D85.png"",""materials/imgs/D25.png""]","false","validation","","",""
"","","","","","html-keyboard-response","393","702309","0.0-19.0-2.2-0.5","etsmnubx37","","etsmnubx37","""2024-11-13T01:10:52.275Z""","null","+","null","","","","","","",""
"","","","","","image-keyboard-response","394","705154","0.0-19.0-2.2-1.5","etsmnubx37","","etsmnubx37","""2024-11-13T01:10:52.275Z""","2843","materials/imgs/D68.png","arrowleft","","[""materials/imgs/D96.png"",""materials/imgs/D48.png""]","false","validation","","",""
"","","","","","html-keyboard-response","395","705655","0.0-19.0-0.3-0.21","etsmnubx37","","etsmnubx37","""2024-11-13T01:10:52.275Z""","null","+","null","","","","","","",""
"","","","","","image-keyboard-response","396","711241","0.0-19.0-0.3-1.21","etsmnubx37","","etsmnubx37","""2024-11-13T01:10:52.275Z""","5584","materials/imgs/D24.png","arrowright","","[""materials/imgs/D64.png"",""materials/imgs/D87.png""]","false","random","","",""
"","","","","","html-keyboard-response","397","711742","0.0-19.0-0.3-0.22","etsmnubx37","","etsmnubx37","""2024-11-13T01:10:52.275Z""","null","+","null","","","","","","",""
"","","","","","image-keyboard-response","398","713799","0.0-19.0-0.3-1.22","etsmnubx37","","etsmnubx37","""2024-11-13T01:10:52.275Z""","2055","materials/imgs/D3.png","arrowright","","[""materials/imgs/D1.png"",""materials/imgs/D76.png""]","false","random","","",""
"","","","","","html-keyboard-response","399","714300","0.0-19.0-0.3-0.23","etsmnubx37","","etsmnubx37","""2024-11-13T01:10:52.275Z""","null","+","null","","","","","","",""
"","","","","","image-keyboard-response","400","721294","0.0-19.0-0.3-1.23","etsmnubx37","","etsmnubx37","""2024-11-13T01:10:52.275Z""","6992","materials/imgs/D6.png","arrowleft","","[""materials/imgs/D78.png"",""materials/imgs/D111.png""]","false","random","","",""
"","","","","","html-keyboard-response","401","721795","0.0-19.0-0.3-0.24","etsmnubx37","","etsmnubx37","""2024-11-13T01:10:52.275Z""","null","+","null","","","","","","",""
"","","","","","image-keyboard-response","402","724688","0.0-19.0-0.3-1.24","etsmnubx37","","etsmnubx37","""2024-11-13T01:10:52.275Z""","2891","materials/imgs/D29.png","arrowleft","","[""materials/imgs/D85.png"",""materials/imgs/D14.png""]","false","random","","",""
"","","","","","html-keyboard-response","403","725189","0.0-19.0-0.3-0.25","etsmnubx37","","etsmnubx37","""2024-11-13T01:10:52.275Z""","null","+","null","","","","","","",""
"","","","","","image-keyboard-response","404","726584","0.0-19.0-0.3-1.25","etsmnubx37","","etsmnubx37","""2024-11-13T01:10:52.275Z""","1393","materials/imgs/D106.png","arrowleft","","[""materials/imgs/D14.png"",""materials/imgs/D111.png""]","false","random","","",""
"","","","","","html-keyboard-response","405","727086","0.0-19.0-0.3-0.26","etsmnubx37","","etsmnubx37","""2024-11-13T01:10:52.275Z""","null","+","null","","","","","","",""
"","","","","","image-keyboard-response","406","728751","0.0-19.0-0.3-1.26","etsmnubx37","","etsmnubx37","""2024-11-13T01:10:52.275Z""","1663","materials/imgs/D56.png","arrowright","","[""materials/imgs/D26.png"",""materials/imgs/D106.png""]","false","random","","",""
"","","","","","html-keyboard-response","407","729252","0.0-19.0-0.3-0.27","etsmnubx37","","etsmnubx37","""2024-11-13T01:10:52.275Z""","null","+","null","","","","","","",""
"","","","","","image-keyboard-response","408","730576","0.0-19.0-0.3-1.27","etsmnubx37","","etsmnubx37","""2024-11-13T01:10:52.275Z""","1323","materials/imgs/D18.png","arrowleft","","[""materials/imgs/D65.png"",""materials/imgs/D49.png""]","false","random","","",""
"","","","","","html-keyboard-response","409","731077","0.0-19.0-1.3-0.3","etsmnubx37","","etsmnubx37","""2024-11-13T01:10:52.275Z""","null","+","null","","","","","","",""
"","","","","","image-keyboard-response","410","731956","0.0-19.0-1.3-1.3","etsmnubx37","","etsmnubx37","""2024-11-13T01:10:52.275Z""","877","materials/imgs/D78.png","arrowright","","[""materials/imgs/D76.png"",""materials/imgs/D78.png""]","","check","materials/imgs/D78.png","1","true"
"","","","","","html-keyboard-response","411","732457","0.0-19.0-2.3-0.6","etsmnubx37","","etsmnubx37","""2024-11-13T01:10:52.275Z""","null","+","null","","","","","","",""
"","","","","","image-keyboard-response","412","736291","0.0-19.0-2.3-1.6","etsmnubx37","","etsmnubx37","""2024-11-13T01:10:52.275Z""","3832","materials/imgs/D51.png","arrowright","","[""materials/imgs/D92.png"",""materials/imgs/D20.png""]","false","validation","","",""
"","","","","","html-keyboard-response","413","736792","0.0-19.0-2.3-0.7","etsmnubx37","","etsmnubx37","""2024-11-13T01:10:52.275Z""","null","+","null","","","","","","",""
"","","","","","image-keyboard-response","414","739979","0.0-19.0-2.3-1.7","etsmnubx37","","etsmnubx37","""2024-11-13T01:10:52.275Z""","3186","materials/imgs/D16.png","arrowleft","","[""materials/imgs/D52.png"",""materials/imgs/D25.png""]","false","validation","","",""
"","","","","","html-keyboard-response","415","740480","0.0-19.0-0.4-0.28","etsmnubx37","","etsmnubx37","""2024-11-13T01:10:52.275Z""","null","+","null","","","","","","",""
"","","","","","image-keyboard-response","416","741834","0.0-19.0-0.4-1.28","etsmnubx37","","etsmnubx37","""2024-11-13T01:10:52.275Z""","1352","materials/imgs/D4.png","arrowleft","","[""materials/imgs/D79.png"",""materials/imgs/D47.png""]","false","random","","",""
"","","","","","html-keyboard-response","417","742336","0.0-19.0-0.4-0.29","etsmnubx37","","etsmnubx37","""2024-11-13T01:10:52.275Z""","null","+","null","","","","","","",""
"","","","","","image-keyboard-response","418","743093","0.0-19.0-0.4-1.29","etsmnubx37","","etsmnubx37","""2024-11-13T01:10:52.275Z""","755","materials/imgs/D14.png","arrowright","","[""materials/imgs/D4.png"",""materials/imgs/D53.png""]","false","random","","",""
"","","","","","html-keyboard-response","419","743594","0.0-19.0-0.4-0.30","etsmnubx37","","etsmnubx37","""2024-11-13T01:10:52.275Z""","null","+","null","","","","","","",""
"","","","","","image-keyboard-response","420","745474","0.0-19.0-0.4-1.30","etsmnubx37","","etsmnubx37","""2024-11-13T01:10:52.275Z""","1879","materials/imgs/D105.png","arrowright","","[""materials/imgs/D95.png"",""materials/imgs/D46.png""]","false","random","","",""
"","","","","","html-keyboard-response","421","745976","0.0-19.0-0.4-0.31","etsmnubx37","","etsmnubx37","""2024-11-13T01:10:52.275Z""","null","+","null","","","","","","",""
"","","","","","image-keyboard-response","422","748386","0.0-19.0-0.4-1.31","etsmnubx37","","etsmnubx37","""2024-11-13T01:10:52.275Z""","2409","materials/imgs/D11.png","arrowright","","[""materials/imgs/D111.png"",""materials/imgs/D106.png""]","false","random","","",""
"","","","","","html-keyboard-response","423","748887","0.0-19.0-0.4-0.32","etsmnubx37","","etsmnubx37","""2024-11-13T01:10:52.275Z""","null","+","null","","","","","","",""
"","","","","","image-keyboard-response","424","750867","0.0-19.0-0.4-1.32","etsmnubx37","","etsmnubx37","""2024-11-13T01:10:52.275Z""","1978","materials/imgs/D34.png","arrowleft","","[""materials/imgs/D81.png"",""materials/imgs/D22.png""]","false","random","","",""
"","","","","","html-keyboard-response","425","751368","0.0-19.0-0.4-0.33","etsmnubx37","","etsmnubx37","""2024-11-13T01:10:52.275Z""","null","+","null","","","","","","",""
"","","","","","image-keyboard-response","426","754457","0.0-19.0-0.4-1.33","etsmnubx37","","etsmnubx37","""2024-11-13T01:10:52.275Z""","3087","materials/imgs/D8.png","arrowright","","[""materials/imgs/D51.png"",""materials/imgs/D74.png""]","false","random","","",""
"","","","","","html-keyboard-response","427","754959","0.0-19.0-0.4-0.34","etsmnubx37","","etsmnubx37","""2024-11-13T01:10:52.275Z""","null","+","null","","","","","","",""
"","","","","","image-keyboard-response","428","757517","0.0-19.0-0.4-1.34","etsmnubx37","","etsmnubx37","""2024-11-13T01:10:52.275Z""","2557","materials/imgs/D34.png","arrowright","","[""materials/imgs/D79.png"",""materials/imgs/D56.png""]","false","random","","",""
"","","","","","html-keyboard-response","429","758018","0.0-19.0-1.4-0.4","etsmnubx37","","etsmnubx37","""2024-11-13T01:10:52.275Z""","null","+","null","","","","","","",""
"","","","","","image-keyboard-response","430","759163","0.0-19.0-1.4-1.4","etsmnubx37","","etsmnubx37","""2024-11-13T01:10:52.275Z""","1144","materials/imgs/D26.png","arrowleft","","[""materials/imgs/D26.png"",""materials/imgs/D46.png""]","","check","materials/imgs/D26.png","0","true"
"","","","","","html-keyboard-response","431","759665","0.0-19.0-2.4-0.8","etsmnubx37","","etsmnubx37","""2024-11-13T01:10:52.275Z""","null","+","null","","","","","","",""
"","","","","","image-keyboard-response","432","761048","0.0-19.0-2.4-1.8","etsmnubx37","","etsmnubx37","""2024-11-13T01:10:52.275Z""","1381","materials/imgs/D101.png","arrowright","","[""materials/imgs/D76.png"",""materials/imgs/D47.png""]","false","validation","","",""
"","","","","","html-keyboard-response","433","761549","0.0-19.0-2.4-0.9","etsmnubx37","","etsmnubx37","""2024-11-13T01:10:52.275Z""","null","+","null","","","","","","",""
"","","","","","image-keyboard-response","434","763758","0.0-19.0-2.4-1.9","etsmnubx37","","etsmnubx37","""2024-11-13T01:10:52.275Z""","2207","materials/imgs/D4.png","arrowleft","","[""materials/imgs/D52.png"",""materials/imgs/D83.png""]","false","validation","","",""
