"success","timeout","failed_images","failed_audio","failed_video","trial_type","trial_index","time_elapsed","internal_node_id","subject_id","sona_id","subjectID","dateInfo","rt","stimulus","response","question_order","choices","speedy","sampleAlg","selected_image","selected_index","correct"
"true","false","[]","[]","[]","preload","0","251","0.0-0.0","f5g77f1jw0","","f5g77f1jw0","""2024-11-12T18:13:26.669Z""","","","","","","","","","",""
"true","","","","","fullscreen","1","13357","0.0-1.0","f5g77f1jw0","","f5g77f1jw0","""2024-11-12T18:13:26.669Z""","","","","","","","","","",""
"","","","","","html-keyboard-response","2","13375","0.0-2.0","f5g77f1jw0","","f5g77f1jw0","""2024-11-12T18:13:26.669Z""","null","","null","","","","","","",""
"","","","","","html-button-response","3","19259","0.0-3.0","f5g77f1jw0","","f5g77f1jw0","""2024-11-12T18:13:26.669Z""","5883","<div style='text-align:center; font-size:20px; line-height:25px; width: 1200px;'>
                Welcome to our experiment! <br>
                <br>At the bottom of this screen, you will see a button that says 'Begin Experiment.
                <br>Please only click that button when you are ready to complete the 25 minute experiment in one sitting. <br>
                <br> Once you click that button, it will not be possible to restart the experiment. <br><br>","0","","","","","","",""
"true","","","","","fullscreen","4","22397","0.0-4.0","f5g77f1jw0","","f5g77f1jw0","""2024-11-12T18:13:26.669Z""","","","","","","","","","",""
"","","","","","survey-multi-select","5","51524","0.0-5.0","f5g77f1jw0","","f5g77f1jw0","""2024-11-12T18:13:26.669Z""","29122","","{""Consent"":[""<strong>I consent</strong>""]}","[0]","","","","","",""
"","","","","","html-button-response","6","63912","0.0-6.0","f5g77f1jw0","","f5g77f1jw0","""2024-11-12T18:13:26.669Z""","12387","Welcome! <p> This experiment involves two parts: demographic information, followed by the experimental task.<p> It will take about 25 minutes to complete both parts.","0","","","","","","",""
"","","","","","survey-text","7","70661","0.0-7.0","f5g77f1jw0","","f5g77f1jw0","""2024-11-12T18:13:26.669Z""","6744","","{""Age"":""19"",""Gender"":""Female"",""Race/ethnicity"":""White""}","","","","","","",""
"","","","","","html-button-response","8","84790","0.0-8.0","f5g77f1jw0","","f5g77f1jw0","""2024-11-12T18:13:26.669Z""","14125","<div style='text-align: center;'>
      <p>In each trial of this task, you will see three texture images: one target item on top, and two choices beneath the target item.</p>
      <p><strong>Please select the item that is most like the target item.</strong></p>
      <p>To select the option on the <strong>LEFT</strong>, press the <strong>LEFT ARROW</strong> key. 
      To select the option on the <strong>RIGHT</strong>, press the <strong>RIGHT ARROW</strong> key.</p>
                  <!-- Target Image at the Top -->
      <div style='margin: 20px;'>
        <img src='materials/imgs/instruction_images/InstructionImg1D78.png' alt='Target Image' style='width:200px; height:auto;' />
        <p><em>Target Image</em></p>
      </div>

      <!-- Two Choice Images Below -->
      <div style='display: flex; justify-content: center;'>
        <div style='margin-right: 50px;'>
          <img src='materials/imgs/instruction_images/InstructionImg2D34.png' alt='Choice Image 1' style='width:150px; height:auto;' />
          <p><em><strong>LEFT ARROW</strong></em></p>
        </div>
        <div style='margin-left: 50px;'>
          <img src='materials/imgs/instruction_images/InstructionImg3D80.png' alt='Choice Image 2' style='width:150px; height:auto;' />
          <p><em><strong>RIGHT ARROW</strong></em></p>
        </div>
      </div>
    </div>

      <p>When you are ready to proceed, please click 'Continue' to begin practice.</p>","0","","","","","","",""
"","","","","","html-keyboard-response","9","87302","0.0-9.0","f5g77f1jw0","","f5g77f1jw0","""2024-11-12T18:13:26.669Z""","null","+","null","","","","","","",""
"","","","","","html-keyboard-response","10","87804","0.0-10.0-0.0-0.0","f5g77f1jw0","","f5g77f1jw0","""2024-11-12T18:13:26.669Z""","null","+","null","","","","","","",""
"","","","","","image-keyboard-response","11","89171","0.0-10.0-0.0-1.0","f5g77f1jw0","","f5g77f1jw0","""2024-11-12T18:13:26.669Z""","1359","materials/imgs/D76.png","arrowright","","[""materials/imgs/D101.png"",""materials/imgs/D20.png""]","false","random","","",""
"","","","","","html-keyboard-response","12","89678","0.0-10.0-0.0-0.1","f5g77f1jw0","","f5g77f1jw0","""2024-11-12T18:13:26.669Z""","null","+","null","","","","","","",""
"","","","","","image-keyboard-response","13","90484","0.0-10.0-0.0-1.1","f5g77f1jw0","","f5g77f1jw0","""2024-11-12T18:13:26.669Z""","803","materials/imgs/D36.png","arrowleft","","[""materials/imgs/D52.png"",""materials/imgs/D16.png""]","false","random","","",""
"","","","","","html-keyboard-response","14","90995","0.0-10.0-0.0-0.2","f5g77f1jw0","","f5g77f1jw0","""2024-11-12T18:13:26.669Z""","null","+","null","","","","","","",""
"","","","","","image-keyboard-response","15","92030","0.0-10.0-0.0-1.2","f5g77f1jw0","","f5g77f1jw0","""2024-11-12T18:13:26.669Z""","1032","materials/imgs/D18.png","arrowright","","[""materials/imgs/D102.png"",""materials/imgs/D25.png""]","false","random","","",""
"","","","","","html-keyboard-response","16","92535","0.0-10.0-0.0-0.3","f5g77f1jw0","","f5g77f1jw0","""2024-11-12T18:13:26.669Z""","null","+","null","","","","","","",""
"","","","","","image-keyboard-response","17","93143","0.0-10.0-0.0-1.3","f5g77f1jw0","","f5g77f1jw0","""2024-11-12T18:13:26.669Z""","605","materials/imgs/D36.png","arrowright","","[""materials/imgs/D11.png"",""materials/imgs/D3.png""]","false","random","","",""
"","","","","","html-keyboard-response","18","93653","0.0-10.0-0.0-0.4","f5g77f1jw0","","f5g77f1jw0","""2024-11-12T18:13:26.669Z""","null","+","null","","","","","","",""
"","","","","","image-keyboard-response","19","94441","0.0-10.0-0.0-1.4","f5g77f1jw0","","f5g77f1jw0","""2024-11-12T18:13:26.669Z""","786","materials/imgs/D49.png","arrowright","","[""materials/imgs/D96.png"",""materials/imgs/D1.png""]","false","random","","",""
"","","","","","html-keyboard-response","20","94954","0.0-10.0-0.0-0.5","f5g77f1jw0","","f5g77f1jw0","""2024-11-12T18:13:26.669Z""","null","+","null","","","","","","",""
"","","","","","image-keyboard-response","21","95537","0.0-10.0-0.0-1.5","f5g77f1jw0","","f5g77f1jw0","""2024-11-12T18:13:26.669Z""","580","materials/imgs/D80.png","arrowleft","","[""materials/imgs/D103.png"",""materials/imgs/D26.png""]","false","random","","",""
"","","","","","html-keyboard-response","22","96042","0.0-10.0-0.0-0.6","f5g77f1jw0","","f5g77f1jw0","""2024-11-12T18:13:26.669Z""","null","+","null","","","","","","",""
"","","","","","image-keyboard-response","23","96913","0.0-10.0-0.0-1.6","f5g77f1jw0","","f5g77f1jw0","""2024-11-12T18:13:26.669Z""","869","materials/imgs/D83.png","arrowleft","","[""materials/imgs/D81.png"",""materials/imgs/D24.png""]","false","random","","",""
"","","","","","html-keyboard-response","24","97431","0.0-10.0-0.0-0.7","f5g77f1jw0","","f5g77f1jw0","""2024-11-12T18:13:26.669Z""","null","+","null","","","","","","",""
"","","","","","image-keyboard-response","25","98585","0.0-10.0-0.0-1.7","f5g77f1jw0","","f5g77f1jw0","""2024-11-12T18:13:26.669Z""","1153","materials/imgs/D49.png","arrowleft","","[""materials/imgs/D94.png"",""materials/imgs/D111.png""]","false","random","","",""
"","","","","","html-keyboard-response","26","99096","0.0-10.0-0.0-0.8","f5g77f1jw0","","f5g77f1jw0","""2024-11-12T18:13:26.669Z""","null","+","null","","","","","","",""
"","","","","","image-keyboard-response","27","99653","0.0-10.0-0.0-1.8","f5g77f1jw0","","f5g77f1jw0","""2024-11-12T18:13:26.669Z""","553","materials/imgs/D82.png","arrowright","","[""materials/imgs/D85.png"",""materials/imgs/D57.png""]","false","random","","",""
"","","","","","html-keyboard-response","28","100168","0.0-10.0-0.0-0.9","f5g77f1jw0","","f5g77f1jw0","""2024-11-12T18:13:26.669Z""","null","+","null","","","","","","",""
"","","","","","image-keyboard-response","29","100959","0.0-10.0-0.0-1.9","f5g77f1jw0","","f5g77f1jw0","""2024-11-12T18:13:26.669Z""","790","materials/imgs/D51.png","arrowright","","[""materials/imgs/D55.png"",""materials/imgs/D53.png""]","false","random","","",""
"","","","","","html-button-response","30","104526","0.0-11.0","f5g77f1jw0","","f5g77f1jw0","""2024-11-12T18:13:26.669Z""","3564","<p>Great job!</p>
      <p>You are now ready to begin the experiment.</p>
      <p>There will be around 200 trials. You will have opportunities to take breaks at three stages of the trials.</p>
      <p>When you are ready to begin please click 'Continue'.</p>","0","","","","","","",""
"","","","","","html-keyboard-response","31","107054","0.0-12.0","f5g77f1jw0","","f5g77f1jw0","""2024-11-12T18:13:26.669Z""","null","+","null","","","","","","",""
"","","","","","html-keyboard-response","32","107570","0.0-13.0-0.0-0.0","f5g77f1jw0","","f5g77f1jw0","""2024-11-12T18:13:26.669Z""","null","+","null","","","","","","",""
"","","","","","image-keyboard-response","33","108250","0.0-13.0-0.0-1.0","f5g77f1jw0","","f5g77f1jw0","""2024-11-12T18:13:26.669Z""","679","materials/imgs/D3.png","arrowright","","[""materials/imgs/D46.png"",""materials/imgs/D34.png""]","false","random","","",""
"","","","","","html-keyboard-response","34","108756","0.0-13.0-0.0-0.1","f5g77f1jw0","","f5g77f1jw0","""2024-11-12T18:13:26.669Z""","null","+","null","","","","","","",""
"","","","","","image-keyboard-response","35","109792","0.0-13.0-0.0-1.1","f5g77f1jw0","","f5g77f1jw0","""2024-11-12T18:13:26.669Z""","1032","materials/imgs/D79.png","arrowleft","","[""materials/imgs/D37.png"",""materials/imgs/D51.png""]","false","random","","",""
"","","","","","html-keyboard-response","36","110310","0.0-13.0-0.0-0.2","f5g77f1jw0","","f5g77f1jw0","""2024-11-12T18:13:26.669Z""","null","+","null","","","","","","",""
"","","","","","image-keyboard-response","37","110833","0.0-13.0-0.0-1.2","f5g77f1jw0","","f5g77f1jw0","""2024-11-12T18:13:26.669Z""","521","materials/imgs/D1.png","arrowright","","[""materials/imgs/D79.png"",""materials/imgs/D65.png""]","false","random","","",""
"","","","","","html-keyboard-response","38","111338","0.0-13.0-0.0-0.3","f5g77f1jw0","","f5g77f1jw0","""2024-11-12T18:13:26.669Z""","null","+","null","","","","","","",""
"","","","","","image-keyboard-response","39","111995","0.0-13.0-0.0-1.3","f5g77f1jw0","","f5g77f1jw0","""2024-11-12T18:13:26.669Z""","654","materials/imgs/D19.png","arrowleft","","[""materials/imgs/D102.png"",""materials/imgs/D105.png""]","false","random","","",""
"","","","","","html-keyboard-response","40","112496","0.0-13.0-0.0-0.4","f5g77f1jw0","","f5g77f1jw0","""2024-11-12T18:13:26.669Z""","null","+","null","","","","","","",""
"","","","","","image-keyboard-response","41","113091","0.0-13.0-0.0-1.4","f5g77f1jw0","","f5g77f1jw0","""2024-11-12T18:13:26.669Z""","591","materials/imgs/D53.png","arrowleft","","[""materials/imgs/D102.png"",""materials/imgs/D64.png""]","false","random","","",""
"","","","","","html-keyboard-response","42","113598","0.0-13.0-0.0-0.5","f5g77f1jw0","","f5g77f1jw0","""2024-11-12T18:13:26.669Z""","null","+","null","","","","","","",""
"","","","","","image-keyboard-response","43","114286","0.0-13.0-0.0-1.5","f5g77f1jw0","","f5g77f1jw0","""2024-11-12T18:13:26.669Z""","684","materials/imgs/D49.png","arrowright","","[""materials/imgs/D18.png"",""materials/imgs/D37.png""]","false","random","","",""
"","","","","","html-keyboard-response","44","114802","0.0-13.0-0.0-0.6","f5g77f1jw0","","f5g77f1jw0","""2024-11-12T18:13:26.669Z""","null","+","null","","","","","","",""
"","","","","","image-keyboard-response","45","115446","0.0-13.0-0.0-1.6","f5g77f1jw0","","f5g77f1jw0","""2024-11-12T18:13:26.669Z""","641","materials/imgs/D52.png","arrowright","","[""materials/imgs/D9.png"",""materials/imgs/D65.png""]","false","random","","",""
"","","","","","html-keyboard-response","46","115951","0.0-13.0-1.0-0.0","f5g77f1jw0","","f5g77f1jw0","""2024-11-12T18:13:26.669Z""","null","+","null","","","","","","",""
"","","","","","image-keyboard-response","47","116591","0.0-13.0-1.0-1.0","f5g77f1jw0","","f5g77f1jw0","""2024-11-12T18:13:26.669Z""","638","materials/imgs/D8.png","arrowright","","[""materials/imgs/D18.png"",""materials/imgs/D8.png""]","","check","materials/imgs/D8.png","1","true"
"","","","","","html-keyboard-response","48","117112","0.0-13.0-2.0-0.0","f5g77f1jw0","","f5g77f1jw0","""2024-11-12T18:13:26.669Z""","null","+","null","","","","","","",""
"","","","","","image-keyboard-response","49","117933","0.0-13.0-2.0-1.0","f5g77f1jw0","","f5g77f1jw0","""2024-11-12T18:13:26.669Z""","818","materials/imgs/D92.png","arrowright","","[""materials/imgs/D56.png"",""materials/imgs/D77.png""]","false","validation","","",""
"","","","","","html-keyboard-response","50","118436","0.0-13.0-2.0-0.1","f5g77f1jw0","","f5g77f1jw0","""2024-11-12T18:13:26.669Z""","null","+","null","","","","","","",""
"","","","","","image-keyboard-response","51","118955","0.0-13.0-2.0-1.1","f5g77f1jw0","","f5g77f1jw0","""2024-11-12T18:13:26.669Z""","517","materials/imgs/D85.png","arrowleft","","[""materials/imgs/D6.png"",""materials/imgs/D111.png""]","false","validation","","",""
"","","","","","html-keyboard-response","52","119465","0.0-13.0-0.1-0.7","f5g77f1jw0","","f5g77f1jw0","""2024-11-12T18:13:26.669Z""","null","+","null","","","","","","",""
"","","","","","image-keyboard-response","53","120223","0.0-13.0-0.1-1.7","f5g77f1jw0","","f5g77f1jw0","""2024-11-12T18:13:26.669Z""","756","materials/imgs/D105.png","arrowleft","","[""materials/imgs/D35.png"",""materials/imgs/D55.png""]","false","random","","",""
"","","","","","html-keyboard-response","54","120737","0.0-13.0-0.1-0.8","f5g77f1jw0","","f5g77f1jw0","""2024-11-12T18:13:26.669Z""","null","+","null","","","","","","",""
"","","","","","image-keyboard-response","55","121741","0.0-13.0-0.1-1.8","f5g77f1jw0","","f5g77f1jw0","""2024-11-12T18:13:26.669Z""","1001","materials/imgs/D74.png","arrowleft","","[""materials/imgs/D8.png"",""materials/imgs/D49.png""]","false","random","","",""
"","","","","","html-keyboard-response","56","122257","0.0-13.0-0.1-0.9","f5g77f1jw0","","f5g77f1jw0","""2024-11-12T18:13:26.669Z""","null","+","null","","","","","","",""
"","","","","","image-keyboard-response","57","123083","0.0-13.0-0.1-1.9","f5g77f1jw0","","f5g77f1jw0","""2024-11-12T18:13:26.669Z""","827","materials/imgs/D80.png","arrowright","","[""materials/imgs/D104.png"",""materials/imgs/D111.png""]","false","random","","",""
"","","","","","html-keyboard-response","58","123590","0.0-13.0-0.1-0.10","f5g77f1jw0","","f5g77f1jw0","""2024-11-12T18:13:26.669Z""","null","+","null","","","","","","",""
"","","","","","image-keyboard-response","59","124458","0.0-13.0-0.1-1.10","f5g77f1jw0","","f5g77f1jw0","""2024-11-12T18:13:26.669Z""","865","materials/imgs/D20.png","arrowleft","","[""materials/imgs/D105.png"",""materials/imgs/D4.png""]","false","random","","",""
"","","","","","html-keyboard-response","60","124965","0.0-13.0-0.1-0.11","f5g77f1jw0","","f5g77f1jw0","""2024-11-12T18:13:26.669Z""","null","+","null","","","","","","",""
"","","","","","image-keyboard-response","61","125627","0.0-13.0-0.1-1.11","f5g77f1jw0","","f5g77f1jw0","""2024-11-12T18:13:26.669Z""","659","materials/imgs/D94.png","arrowleft","","[""materials/imgs/D18.png"",""materials/imgs/D22.png""]","false","random","","",""
"","","","","","html-keyboard-response","62","126131","0.0-13.0-0.1-0.12","f5g77f1jw0","","f5g77f1jw0","""2024-11-12T18:13:26.669Z""","null","+","null","","","","","","",""
"","","","","","image-keyboard-response","63","126933","0.0-13.0-0.1-1.12","f5g77f1jw0","","f5g77f1jw0","""2024-11-12T18:13:26.669Z""","799","materials/imgs/D36.png","arrowleft","","[""materials/imgs/D66.png"",""materials/imgs/D9.png""]","false","random","","",""
"","","","","","html-keyboard-response","64","127437","0.0-13.0-0.1-0.13","f5g77f1jw0","","f5g77f1jw0","""2024-11-12T18:13:26.669Z""","null","+","null","","","","","","",""
"","","","","","image-keyboard-response","65","128082","0.0-13.0-0.1-1.13","f5g77f1jw0","","f5g77f1jw0","""2024-11-12T18:13:26.669Z""","644","materials/imgs/D11.png","arrowright","","[""materials/imgs/D74.png"",""materials/imgs/D76.png""]","false","random","","",""
"","","","","","html-keyboard-response","66","128591","0.0-13.0-1.1-0.1","f5g77f1jw0","","f5g77f1jw0","""2024-11-12T18:13:26.669Z""","null","+","null","","","","","","",""
"","","","","","image-keyboard-response","67","129162","0.0-13.0-1.1-1.1","f5g77f1jw0","","f5g77f1jw0","""2024-11-12T18:13:26.669Z""","570","materials/imgs/D53.png","arrowright","","[""materials/imgs/D64.png"",""materials/imgs/D53.png""]","","check","materials/imgs/D53.png","1","true"
"","","","","","html-keyboard-response","68","129665","0.0-13.0-2.1-0.2","f5g77f1jw0","","f5g77f1jw0","""2024-11-12T18:13:26.669Z""","null","+","null","","","","","","",""
"","","","","","image-keyboard-response","69","130914","0.0-13.0-2.1-1.2","f5g77f1jw0","","f5g77f1jw0","""2024-11-12T18:13:26.669Z""","1247","materials/imgs/D49.png","arrowleft","","[""materials/imgs/D8.png"",""materials/imgs/D101.png""]","false","validation","","",""
"","","","","","html-keyboard-response","70","131424","0.0-13.0-2.1-0.3","f5g77f1jw0","","f5g77f1jw0","""2024-11-12T18:13:26.669Z""","null","+","null","","","","","","",""
"","","","","","image-keyboard-response","71","132232","0.0-13.0-2.1-1.3","f5g77f1jw0","","f5g77f1jw0","""2024-11-12T18:13:26.669Z""","806","materials/imgs/D19.png","arrowright","","[""materials/imgs/D111.png"",""materials/imgs/D56.png""]","false","validation","","",""
"","","","","","html-keyboard-response","72","132742","0.0-13.0-0.2-0.14","f5g77f1jw0","","f5g77f1jw0","""2024-11-12T18:13:26.669Z""","null","+","null","","","","","","",""
"","","","","","image-keyboard-response","73","133531","0.0-13.0-0.2-1.14","f5g77f1jw0","","f5g77f1jw0","""2024-11-12T18:13:26.669Z""","788","materials/imgs/D74.png","arrowright","","[""materials/imgs/D29.png"",""materials/imgs/D48.png""]","false","random","","",""
"","","","","","html-keyboard-response","74","134048","0.0-13.0-0.2-0.15","f5g77f1jw0","","f5g77f1jw0","""2024-11-12T18:13:26.669Z""","null","+","null","","","","","","",""
"","","","","","image-keyboard-response","75","134730","0.0-13.0-0.2-1.15","f5g77f1jw0","","f5g77f1jw0","""2024-11-12T18:13:26.669Z""","681","materials/imgs/D83.png","arrowright","","[""materials/imgs/D57.png"",""materials/imgs/D11.png""]","false","random","","",""
"","","","","","html-keyboard-response","76","135241","0.0-13.0-0.2-0.16","f5g77f1jw0","","f5g77f1jw0","""2024-11-12T18:13:26.669Z""","null","+","null","","","","","","",""
"","","","","","image-keyboard-response","77","136117","0.0-13.0-0.2-1.16","f5g77f1jw0","","f5g77f1jw0","""2024-11-12T18:13:26.669Z""","872","materials/imgs/D18.png","arrowright","","[""materials/imgs/D78.png"",""materials/imgs/D104.png""]","false","random","","",""
"","","","","","html-keyboard-response","78","136622","0.0-13.0-0.2-0.17","f5g77f1jw0","","f5g77f1jw0","""2024-11-12T18:13:26.669Z""","null","+","null","","","","","","",""
"","","","","","image-keyboard-response","79","137947","0.0-13.0-0.2-1.17","f5g77f1jw0","","f5g77f1jw0","""2024-11-12T18:13:26.669Z""","1323","materials/imgs/D29.png","arrowleft","","[""materials/imgs/D37.png"",""materials/imgs/D106.png""]","false","random","","",""
"","","","","","html-keyboard-response","80","138454","0.0-13.0-0.2-0.18","f5g77f1jw0","","f5g77f1jw0","""2024-11-12T18:13:26.669Z""","null","+","null","","","","","","",""
"","","","","","image-keyboard-response","81","138940","0.0-13.0-0.2-1.18","f5g77f1jw0","","f5g77f1jw0","""2024-11-12T18:13:26.669Z""","485","materials/imgs/D57.png","arrowleft","","[""materials/imgs/D24.png"",""materials/imgs/D37.png""]","true","random","","",""
"","","","","","html-keyboard-response","82","142358","0.0-13.0-0.2-2.18-0.18","f5g77f1jw0","","f5g77f1jw0","""2024-11-12T18:13:26.669Z""","3417","<p><strong>You're going too fast.</strong><p>Please slow down and assess each triplet.<p>Press 'y' to continue.</p></p>","y","","","","","","",""
"","","","","","html-keyboard-response","83","142865","0.0-13.0-0.2-0.19","f5g77f1jw0","","f5g77f1jw0","""2024-11-12T18:13:26.669Z""","null","+","null","","","","","","",""
"","","","","","image-keyboard-response","84","144620","0.0-13.0-0.2-1.19","f5g77f1jw0","","f5g77f1jw0","""2024-11-12T18:13:26.669Z""","1752","materials/imgs/D56.png","arrowright","","[""materials/imgs/D106.png"",""materials/imgs/D1.png""]","false","random","","",""
"","","","","","html-keyboard-response","85","145132","0.0-13.0-0.2-0.20","f5g77f1jw0","","f5g77f1jw0","""2024-11-12T18:13:26.669Z""","null","+","null","","","","","","",""
"","","","","","image-keyboard-response","86","147234","0.0-13.0-0.2-1.20","f5g77f1jw0","","f5g77f1jw0","""2024-11-12T18:13:26.669Z""","2100","materials/imgs/D111.png","arrowright","","[""materials/imgs/D85.png"",""materials/imgs/D34.png""]","false","random","","",""
"","","","","","html-keyboard-response","87","147744","0.0-13.0-1.2-0.2","f5g77f1jw0","","f5g77f1jw0","""2024-11-12T18:13:26.669Z""","null","+","null","","","","","","",""
"","","","","","image-keyboard-response","88","148570","0.0-13.0-1.2-1.2","f5g77f1jw0","","f5g77f1jw0","""2024-11-12T18:13:26.669Z""","825","materials/imgs/D64.png","arrowleft","","[""materials/imgs/D64.png"",""materials/imgs/D53.png""]","","check","materials/imgs/D64.png","0","true"
"","","","","","html-keyboard-response","89","149080","0.0-13.0-2.2-0.4","f5g77f1jw0","","f5g77f1jw0","""2024-11-12T18:13:26.669Z""","null","+","null","","","","","","",""
"","","","","","image-keyboard-response","90","152580","0.0-13.0-2.2-1.4","f5g77f1jw0","","f5g77f1jw0","""2024-11-12T18:13:26.669Z""","3499","materials/imgs/D75.png","arrowright","","[""materials/imgs/D96.png"",""materials/imgs/D4.png""]","false","validation","","",""
"","","","","","html-keyboard-response","91","153094","0.0-13.0-2.2-0.5","f5g77f1jw0","","f5g77f1jw0","""2024-11-12T18:13:26.669Z""","null","+","null","","","","","","",""
"","","","","","image-keyboard-response","92","154612","0.0-13.0-2.2-1.5","f5g77f1jw0","","f5g77f1jw0","""2024-11-12T18:13:26.669Z""","1516","materials/imgs/D57.png","arrowright","","[""materials/imgs/D111.png"",""materials/imgs/D4.png""]","false","validation","","",""
"","","","","","html-keyboard-response","93","155114","0.0-13.0-0.3-0.21","f5g77f1jw0","","f5g77f1jw0","""2024-11-12T18:13:26.669Z""","null","+","null","","","","","","",""
"","","","","","image-keyboard-response","94","156913","0.0-13.0-0.3-1.21","f5g77f1jw0","","f5g77f1jw0","""2024-11-12T18:13:26.669Z""","1797","materials/imgs/D68.png","arrowleft","","[""materials/imgs/D19.png"",""materials/imgs/D49.png""]","false","random","","",""
"","","","","","html-keyboard-response","95","157420","0.0-13.0-0.3-0.22","f5g77f1jw0","","f5g77f1jw0","""2024-11-12T18:13:26.669Z""","null","+","null","","","","","","",""
"","","","","","image-keyboard-response","96","159750","0.0-13.0-0.3-1.22","f5g77f1jw0","","f5g77f1jw0","""2024-11-12T18:13:26.669Z""","2328","materials/imgs/D66.png","arrowright","","[""materials/imgs/D1.png"",""materials/imgs/D82.png""]","false","random","","",""
"","","","","","html-keyboard-response","97","160251","0.0-13.0-0.3-0.23","f5g77f1jw0","","f5g77f1jw0","""2024-11-12T18:13:26.669Z""","null","+","null","","","","","","",""
"","","","","","image-keyboard-response","98","162849","0.0-13.0-0.3-1.23","f5g77f1jw0","","f5g77f1jw0","""2024-11-12T18:13:26.669Z""","2595","materials/imgs/D103.png","arrowleft","","[""materials/imgs/D29.png"",""materials/imgs/D68.png""]","false","random","","",""
"","","","","","html-keyboard-response","99","163359","0.0-13.0-0.3-0.24","f5g77f1jw0","","f5g77f1jw0","""2024-11-12T18:13:26.669Z""","null","+","null","","","","","","",""
"","","","","","image-keyboard-response","100","166019","0.0-13.0-0.3-1.24","f5g77f1jw0","","f5g77f1jw0","""2024-11-12T18:13:26.669Z""","2658","materials/imgs/D35.png","arrowright","","[""materials/imgs/D75.png"",""materials/imgs/D24.png""]","false","random","","",""
"","","","","","html-keyboard-response","101","166526","0.0-13.0-0.3-0.25","f5g77f1jw0","","f5g77f1jw0","""2024-11-12T18:13:26.669Z""","null","+","null","","","","","","",""
"","","","","","image-keyboard-response","102","170790","0.0-13.0-0.3-1.25","f5g77f1jw0","","f5g77f1jw0","""2024-11-12T18:13:26.669Z""","4263","materials/imgs/D11.png","arrowright","","[""materials/imgs/D55.png"",""materials/imgs/D6.png""]","false","random","","",""
"","","","","","html-keyboard-response","103","171302","0.0-13.0-0.3-0.26","f5g77f1jw0","","f5g77f1jw0","""2024-11-12T18:13:26.669Z""","null","+","null","","","","","","",""
"","","","","","image-keyboard-response","104","175492","0.0-13.0-0.3-1.26","f5g77f1jw0","","f5g77f1jw0","""2024-11-12T18:13:26.669Z""","4189","materials/imgs/D6.png","arrowright","","[""materials/imgs/D49.png"",""materials/imgs/D102.png""]","false","random","","",""
"","","","","","html-keyboard-response","105","176000","0.0-13.0-0.3-0.27","f5g77f1jw0","","f5g77f1jw0","""2024-11-12T18:13:26.669Z""","null","+","null","","","","","","",""
"","","","","","image-keyboard-response","106","179771","0.0-13.0-0.3-1.27","f5g77f1jw0","","f5g77f1jw0","""2024-11-12T18:13:26.669Z""","3768","materials/imgs/D19.png","arrowleft","","[""materials/imgs/D17.png"",""materials/imgs/D75.png""]","false","random","","",""
"","","","","","html-keyboard-response","107","180279","0.0-13.0-1.3-0.3","f5g77f1jw0","","f5g77f1jw0","""2024-11-12T18:13:26.669Z""","null","+","null","","","","","","",""
"","","","","","image-keyboard-response","108","181474","0.0-13.0-1.3-1.3","f5g77f1jw0","","f5g77f1jw0","""2024-11-12T18:13:26.669Z""","1194","materials/imgs/D18.png","arrowright","","[""materials/imgs/D8.png"",""materials/imgs/D18.png""]","","check","materials/imgs/D18.png","1","true"
"","","","","","html-keyboard-response","109","181989","0.0-13.0-2.3-0.6","f5g77f1jw0","","f5g77f1jw0","""2024-11-12T18:13:26.669Z""","null","+","null","","","","","","",""
"","","","","","image-keyboard-response","110","190360","0.0-13.0-2.3-1.6","f5g77f1jw0","","f5g77f1jw0","""2024-11-12T18:13:26.669Z""","8369","materials/imgs/D102.png","arrowleft","","[""materials/imgs/D32.png"",""materials/imgs/D111.png""]","false","validation","","",""
"","","","","","html-keyboard-response","111","190864","0.0-13.0-2.3-0.7","f5g77f1jw0","","f5g77f1jw0","""2024-11-12T18:13:26.669Z""","null","+","null","","","","","","",""
"","","","","","image-keyboard-response","112","194939","0.0-13.0-2.3-1.7","f5g77f1jw0","","f5g77f1jw0","""2024-11-12T18:13:26.669Z""","4072","materials/imgs/D85.png","arrowleft","","[""materials/imgs/D6.png"",""materials/imgs/D111.png""]","false","validation","","",""
"","","","","","html-keyboard-response","113","195447","0.0-13.0-0.4-0.28","f5g77f1jw0","","f5g77f1jw0","""2024-11-12T18:13:26.669Z""","null","+","null","","","","","","",""
"","","","","","image-keyboard-response","114","202142","0.0-13.0-0.4-1.28","f5g77f1jw0","","f5g77f1jw0","""2024-11-12T18:13:26.669Z""","6690","materials/imgs/D4.png","arrowleft","","[""materials/imgs/D19.png"",""materials/imgs/D96.png""]","false","random","","",""
"","","","","","html-keyboard-response","115","202656","0.0-13.0-0.4-0.29","f5g77f1jw0","","f5g77f1jw0","""2024-11-12T18:13:26.669Z""","null","+","null","","","","","","",""
"","","","","","image-keyboard-response","116","206610","0.0-13.0-0.4-1.29","f5g77f1jw0","","f5g77f1jw0","""2024-11-12T18:13:26.669Z""","3950","materials/imgs/D48.png","arrowleft","","[""materials/imgs/D84.png"",""materials/imgs/D6.png""]","false","random","","",""
"","","","","","html-keyboard-response","117","207113","0.0-13.0-0.4-0.30","f5g77f1jw0","","f5g77f1jw0","""2024-11-12T18:13:26.669Z""","null","+","null","","","","","","",""
"","","","","","image-keyboard-response","118","210439","0.0-13.0-0.4-1.30","f5g77f1jw0","","f5g77f1jw0","""2024-11-12T18:13:26.669Z""","3322","materials/imgs/D4.png","arrowleft","","[""materials/imgs/D1.png"",""materials/imgs/D106.png""]","false","random","","",""
"","","","","","html-keyboard-response","119","210940","0.0-13.0-0.4-0.31","f5g77f1jw0","","f5g77f1jw0","""2024-11-12T18:13:26.669Z""","null","+","null","","","","","","",""
"","","","","","image-keyboard-response","120","214210","0.0-13.0-0.4-1.31","f5g77f1jw0","","f5g77f1jw0","""2024-11-12T18:13:26.669Z""","3268","materials/imgs/D56.png","arrowright","","[""materials/imgs/D85.png"",""materials/imgs/D17.png""]","false","random","","",""
"","","","","","html-keyboard-response","121","214724","0.0-13.0-0.4-0.32","f5g77f1jw0","","f5g77f1jw0","""2024-11-12T18:13:26.669Z""","null","+","null","","","","","","",""
"","","","","","image-keyboard-response","122","217185","0.0-13.0-0.4-1.32","f5g77f1jw0","","f5g77f1jw0","""2024-11-12T18:13:26.669Z""","2459","materials/imgs/D35.png","arrowright","","[""materials/imgs/D74.png"",""materials/imgs/D34.png""]","false","random","","",""
"","","","","","html-keyboard-response","123","217694","0.0-13.0-0.4-0.33","f5g77f1jw0","","f5g77f1jw0","""2024-11-12T18:13:26.669Z""","null","+","null","","","","","","",""
"","","","","","image-keyboard-response","124","219971","0.0-13.0-0.4-1.33","f5g77f1jw0","","f5g77f1jw0","""2024-11-12T18:13:26.669Z""","2273","materials/imgs/D6.png","arrowleft","","[""materials/imgs/D85.png"",""materials/imgs/D76.png""]","false","random","","",""
"","","","","","html-keyboard-response","125","220480","0.0-13.0-0.4-0.34","f5g77f1jw0","","f5g77f1jw0","""2024-11-12T18:13:26.669Z""","null","+","null","","","","","","",""
"","","","","","image-keyboard-response","126","222936","0.0-13.0-0.4-1.34","f5g77f1jw0","","f5g77f1jw0","""2024-11-12T18:13:26.669Z""","2454","materials/imgs/D29.png","arrowright","","[""materials/imgs/D25.png"",""materials/imgs/D22.png""]","false","random","","",""
"","","","","","html-keyboard-response","127","223445","0.0-13.0-1.4-0.4","f5g77f1jw0","","f5g77f1jw0","""2024-11-12T18:13:26.669Z""","null","+","null","","","","","","",""
"","","","","","image-keyboard-response","128","224135","0.0-13.0-1.4-1.4","f5g77f1jw0","","f5g77f1jw0","""2024-11-12T18:13:26.669Z""","687","materials/imgs/D76.png","arrowleft","","[""materials/imgs/D76.png"",""materials/imgs/D78.png""]","","check","materials/imgs/D76.png","0","true"
"","","","","","html-keyboard-response","129","224653","0.0-13.0-2.4-0.8","f5g77f1jw0","","f5g77f1jw0","""2024-11-12T18:13:26.669Z""","null","+","null","","","","","","",""
"","","","","","image-keyboard-response","130","226883","0.0-13.0-2.4-1.8","f5g77f1jw0","","f5g77f1jw0","""2024-11-12T18:13:26.669Z""","2226","materials/imgs/D65.png","arrowright","","[""materials/imgs/D4.png"",""materials/imgs/D16.png""]","false","validation","","",""
"","","","","","html-keyboard-response","131","227391","0.0-13.0-2.4-0.9","f5g77f1jw0","","f5g77f1jw0","""2024-11-12T18:13:26.669Z""","null","+","null","","","","","","",""
"","","","","","image-keyboard-response","132","230127","0.0-13.0-2.4-1.9","f5g77f1jw0","","f5g77f1jw0","""2024-11-12T18:13:26.669Z""","2734","materials/imgs/D77.png","arrowright","","[""materials/imgs/D102.png"",""materials/imgs/D65.png""]","false","validation","","",""
"","","","","","html-button-response","133","232480","0.0-14.0","f5g77f1jw0","","f5g77f1jw0","""2024-11-12T18:13:26.669Z""","2351","You have completed 25% of the trials. Please click 'Continue' when you are ready proceed.","0","","","","","","",""
"","","","","","html-keyboard-response","134","232985","0.0-15.0-0.0-0.0","f5g77f1jw0","","f5g77f1jw0","""2024-11-12T18:13:26.669Z""","null","+","null","","","","","","",""
"","","","","","image-keyboard-response","135","234781","0.0-15.0-0.0-1.0","f5g77f1jw0","","f5g77f1jw0","""2024-11-12T18:13:26.669Z""","1792","materials/imgs/D65.png","arrowleft","","[""materials/imgs/D35.png"",""materials/imgs/D8.png""]","false","random","","",""
"","","","","","html-keyboard-response","136","235300","0.0-15.0-0.0-0.1","f5g77f1jw0","","f5g77f1jw0","""2024-11-12T18:13:26.669Z""","null","+","null","","","","","","",""
"","","","","","image-keyboard-response","137","237935","0.0-15.0-0.0-1.1","f5g77f1jw0","","f5g77f1jw0","""2024-11-12T18:13:26.669Z""","2633","materials/imgs/D104.png","arrowright","","[""materials/imgs/D53.png"",""materials/imgs/D101.png""]","false","random","","",""
"","","","","","html-keyboard-response","138","238445","0.0-15.0-0.0-0.2","f5g77f1jw0","","f5g77f1jw0","""2024-11-12T18:13:26.669Z""","null","+","null","","","","","","",""
"","","","","","image-keyboard-response","139","242848","0.0-15.0-0.0-1.2","f5g77f1jw0","","f5g77f1jw0","""2024-11-12T18:13:26.669Z""","4400","materials/imgs/D8.png","arrowleft","","[""materials/imgs/D19.png"",""materials/imgs/D68.png""]","false","random","","",""
"","","","","","html-keyboard-response","140","243355","0.0-15.0-0.0-0.3","f5g77f1jw0","","f5g77f1jw0","""2024-11-12T18:13:26.669Z""","null","+","null","","","","","","",""
"","","","","","image-keyboard-response","141","244680","0.0-15.0-0.0-1.3","f5g77f1jw0","","f5g77f1jw0","""2024-11-12T18:13:26.669Z""","1321","materials/imgs/D53.png","arrowright","","[""materials/imgs/D95.png"",""materials/imgs/D36.png""]","false","random","","",""
"","","","","","html-keyboard-response","142","245187","0.0-15.0-0.0-0.4","f5g77f1jw0","","f5g77f1jw0","""2024-11-12T18:13:26.669Z""","null","+","null","","","","","","",""
"","","","","","image-keyboard-response","143","248029","0.0-15.0-0.0-1.4","f5g77f1jw0","","f5g77f1jw0","""2024-11-12T18:13:26.669Z""","2840","materials/imgs/D48.png","arrowright","","[""materials/imgs/D105.png"",""materials/imgs/D95.png""]","false","random","","",""
"","","","","","html-keyboard-response","144","248534","0.0-15.0-0.0-0.5","f5g77f1jw0","","f5g77f1jw0","""2024-11-12T18:13:26.669Z""","null","+","null","","","","","","",""
"","","","","","image-keyboard-response","145","251939","0.0-15.0-0.0-1.5","f5g77f1jw0","","f5g77f1jw0","""2024-11-12T18:13:26.669Z""","3405","materials/imgs/D36.png","arrowleft","","[""materials/imgs/D51.png"",""materials/imgs/D32.png""]","false","random","","",""
"","","","","","html-keyboard-response","146","252479","0.0-15.0-0.0-0.6","f5g77f1jw0","","f5g77f1jw0","""2024-11-12T18:13:26.669Z""","null","+","null","","","","","","",""
"","","","","","image-keyboard-response","147","255861","0.0-15.0-0.0-1.6","f5g77f1jw0","","f5g77f1jw0","""2024-11-12T18:13:26.669Z""","3381","materials/imgs/D11.png","arrowright","","[""materials/imgs/D101.png"",""materials/imgs/D80.png""]","false","random","","",""
"","","","","","html-keyboard-response","148","256373","0.0-15.0-1.0-0.0","f5g77f1jw0","","f5g77f1jw0","""2024-11-12T18:13:26.669Z""","null","+","null","","","","","","",""
"","","","","","image-keyboard-response","149","257139","0.0-15.0-1.0-1.0","f5g77f1jw0","","f5g77f1jw0","""2024-11-12T18:13:26.669Z""","763","materials/imgs/D101.png","arrowright","","[""materials/imgs/D106.png"",""materials/imgs/D101.png""]","","check","materials/imgs/D101.png","1","true"
"","","","","","html-keyboard-response","150","257654","0.0-15.0-2.0-0.0","f5g77f1jw0","","f5g77f1jw0","""2024-11-12T18:13:26.669Z""","null","+","null","","","","","","",""
"","","","","","image-keyboard-response","151","260530","0.0-15.0-2.0-1.0","f5g77f1jw0","","f5g77f1jw0","""2024-11-12T18:13:26.669Z""","2874","materials/imgs/D66.png","arrowleft","","[""materials/imgs/D85.png"",""materials/imgs/D25.png""]","false","validation","","",""
"","","","","","html-keyboard-response","152","261033","0.0-15.0-2.0-0.1","f5g77f1jw0","","f5g77f1jw0","""2024-11-12T18:13:26.669Z""","null","+","null","","","","","","",""
"","","","","","image-keyboard-response","153","263381","0.0-15.0-2.0-1.1","f5g77f1jw0","","f5g77f1jw0","""2024-11-12T18:13:26.669Z""","2345","materials/imgs/D48.png","arrowright","","[""materials/imgs/D4.png"",""materials/imgs/D37.png""]","false","validation","","",""
"","","","","","html-keyboard-response","154","263884","0.0-15.0-0.1-0.7","f5g77f1jw0","","f5g77f1jw0","""2024-11-12T18:13:26.669Z""","null","+","null","","","","","","",""
"","","","","","image-keyboard-response","155","264623","0.0-15.0-0.1-1.7","f5g77f1jw0","","f5g77f1jw0","""2024-11-12T18:13:26.669Z""","735","materials/imgs/D29.png","arrowleft","","[""materials/imgs/D4.png"",""materials/imgs/D102.png""]","false","random","","",""
"","","","","","html-keyboard-response","156","265126","0.0-15.0-0.1-0.8","f5g77f1jw0","","f5g77f1jw0","""2024-11-12T18:13:26.669Z""","null","+","null","","","","","","",""
"","","","","","image-keyboard-response","157","268399","0.0-15.0-0.1-1.8","f5g77f1jw0","","f5g77f1jw0","""2024-11-12T18:13:26.669Z""","3269","materials/imgs/D102.png","arrowright","","[""materials/imgs/D25.png"",""materials/imgs/D103.png""]","false","random","","",""
"","","","","","html-keyboard-response","158","268901","0.0-15.0-0.1-0.9","f5g77f1jw0","","f5g77f1jw0","""2024-11-12T18:13:26.669Z""","null","+","null","","","","","","",""
"","","","","","image-keyboard-response","159","269835","0.0-15.0-0.1-1.9","f5g77f1jw0","","f5g77f1jw0","""2024-11-12T18:13:26.669Z""","930","materials/imgs/D29.png","arrowleft","","[""materials/imgs/D22.png"",""materials/imgs/D83.png""]","false","random","","",""
"","","","","","html-keyboard-response","160","270347","0.0-15.0-0.1-0.10","f5g77f1jw0","","f5g77f1jw0","""2024-11-12T18:13:26.669Z""","null","+","null","","","","","","",""
"","","","","","image-keyboard-response","161","272170","0.0-15.0-0.1-1.10","f5g77f1jw0","","f5g77f1jw0","""2024-11-12T18:13:26.669Z""","1790","materials/imgs/D22.png","arrowleft","","[""materials/imgs/D80.png"",""materials/imgs/D18.png""]","false","random","","",""
"","","","","","html-keyboard-response","162","272676","0.0-15.0-0.1-0.11","f5g77f1jw0","","f5g77f1jw0","""2024-11-12T18:13:26.669Z""","null","+","null","","","","","","",""
"","","","","","image-keyboard-response","163","273372","0.0-15.0-0.1-1.11","f5g77f1jw0","","f5g77f1jw0","""2024-11-12T18:13:26.669Z""","692","materials/imgs/D21.png","arrowright","","[""materials/imgs/D64.png"",""materials/imgs/D6.png""]","false","random","","",""
"","","","","","html-keyboard-response","164","273884","0.0-15.0-0.1-0.12","f5g77f1jw0","","f5g77f1jw0","""2024-11-12T18:13:26.669Z""","null","+","null","","","","","","",""
"","","","","","image-keyboard-response","165","277481","0.0-15.0-0.1-1.12","f5g77f1jw0","","f5g77f1jw0","""2024-11-12T18:13:26.669Z""","3594","materials/imgs/D25.png","arrowleft","","[""materials/imgs/D82.png"",""materials/imgs/D79.png""]","false","random","","",""
"","","","","","html-keyboard-response","166","277993","0.0-15.0-0.1-0.13","f5g77f1jw0","","f5g77f1jw0","""2024-11-12T18:13:26.669Z""","null","+","null","","","","","","",""
"","","","","","image-keyboard-response","167","279111","0.0-15.0-0.1-1.13","f5g77f1jw0","","f5g77f1jw0","""2024-11-12T18:13:26.669Z""","1114","materials/imgs/D17.png","arrowright","","[""materials/imgs/D37.png"",""materials/imgs/D65.png""]","false","random","","",""
"","","","","","html-keyboard-response","168","279628","0.0-15.0-1.1-0.1","f5g77f1jw0","","f5g77f1jw0","""2024-11-12T18:13:26.669Z""","null","+","null","","","","","","",""
"","","","","","image-keyboard-response","169","280216","0.0-15.0-1.1-1.1","f5g77f1jw0","","f5g77f1jw0","""2024-11-12T18:13:26.669Z""","585","materials/imgs/D46.png","arrowleft","","[""materials/imgs/D46.png"",""materials/imgs/D26.png""]","","check","materials/imgs/D46.png","0","true"
"","","","","","html-keyboard-response","170","280722","0.0-15.0-2.1-0.2","f5g77f1jw0","","f5g77f1jw0","""2024-11-12T18:13:26.669Z""","null","+","null","","","","","","",""
"","","","","","image-keyboard-response","171","283195","0.0-15.0-2.1-1.2","f5g77f1jw0","","f5g77f1jw0","""2024-11-12T18:13:26.669Z""","2470","materials/imgs/D25.png","arrowleft","","[""materials/imgs/D103.png"",""materials/imgs/D64.png""]","false","validation","","",""
"","","","","","html-keyboard-response","172","283709","0.0-15.0-2.1-0.3","f5g77f1jw0","","f5g77f1jw0","""2024-11-12T18:13:26.669Z""","null","+","null","","","","","","",""
"","","","","","image-keyboard-response","173","285508","0.0-15.0-2.1-1.3","f5g77f1jw0","","f5g77f1jw0","""2024-11-12T18:13:26.669Z""","1795","materials/imgs/D56.png","arrowleft","","[""materials/imgs/D25.png"",""materials/imgs/D105.png""]","false","validation","","",""
"","","","","","html-keyboard-response","174","286012","0.0-15.0-0.2-0.14","f5g77f1jw0","","f5g77f1jw0","""2024-11-12T18:13:26.669Z""","null","+","null","","","","","","",""
"","","","","","image-keyboard-response","175","287889","0.0-15.0-0.2-1.14","f5g77f1jw0","","f5g77f1jw0","""2024-11-12T18:13:26.669Z""","1874","materials/imgs/D82.png","arrowright","","[""materials/imgs/D103.png"",""materials/imgs/D21.png""]","false","random","","",""
"","","","","","html-keyboard-response","176","288398","0.0-15.0-0.2-0.15","f5g77f1jw0","","f5g77f1jw0","""2024-11-12T18:13:26.669Z""","null","+","null","","","","","","",""
"","","","","","image-keyboard-response","177","294390","0.0-15.0-0.2-1.15","f5g77f1jw0","","f5g77f1jw0","""2024-11-12T18:13:26.669Z""","5990","materials/imgs/D84.png","arrowright","","[""materials/imgs/D21.png"",""materials/imgs/D77.png""]","false","random","","",""
"","","","","","html-keyboard-response","178","294905","0.0-15.0-0.2-0.16","f5g77f1jw0","","f5g77f1jw0","""2024-11-12T18:13:26.669Z""","null","+","null","","","","","","",""
"","","","","","image-keyboard-response","179","296162","0.0-15.0-0.2-1.16","f5g77f1jw0","","f5g77f1jw0","""2024-11-12T18:13:26.669Z""","1253","materials/imgs/D106.png","arrowright","","[""materials/imgs/D101.png"",""materials/imgs/D68.png""]","false","random","","",""
"","","","","","html-keyboard-response","180","296666","0.0-15.0-0.2-0.17","f5g77f1jw0","","f5g77f1jw0","""2024-11-12T18:13:26.669Z""","null","+","null","","","","","","",""
"","","","","","image-keyboard-response","181","298515","0.0-15.0-0.2-1.17","f5g77f1jw0","","f5g77f1jw0","""2024-11-12T18:13:26.669Z""","1844","materials/imgs/D74.png","arrowleft","","[""materials/imgs/D8.png"",""materials/imgs/D87.png""]","false","random","","",""
"","","","","","html-keyboard-response","182","299019","0.0-15.0-0.2-0.18","f5g77f1jw0","","f5g77f1jw0","""2024-11-12T18:13:26.669Z""","null","+","null","","","","","","",""
"","","","","","image-keyboard-response","183","303045","0.0-15.0-0.2-1.18","f5g77f1jw0","","f5g77f1jw0","""2024-11-12T18:13:26.669Z""","4024","materials/imgs/D77.png","arrowright","","[""materials/imgs/D57.png"",""materials/imgs/D94.png""]","false","random","","",""
"","","","","","html-keyboard-response","184","303558","0.0-15.0-0.2-0.19","f5g77f1jw0","","f5g77f1jw0","""2024-11-12T18:13:26.669Z""","null","+","null","","","","","","",""
"","","","","","image-keyboard-response","185","305547","0.0-15.0-0.2-1.19","f5g77f1jw0","","f5g77f1jw0","""2024-11-12T18:13:26.669Z""","1985","materials/imgs/D1.png","arrowleft","","[""materials/imgs/D101.png"",""materials/imgs/D103.png""]","false","random","","",""
"","","","","","html-keyboard-response","186","306060","0.0-15.0-0.2-0.20","f5g77f1jw0","","f5g77f1jw0","""2024-11-12T18:13:26.669Z""","null","+","null","","","","","","",""
"","","","","","image-keyboard-response","187","307654","0.0-15.0-0.2-1.20","f5g77f1jw0","","f5g77f1jw0","""2024-11-12T18:13:26.669Z""","1591","materials/imgs/D8.png","arrowleft","","[""materials/imgs/D25.png"",""materials/imgs/D4.png""]","false","random","","",""
"","","","","","html-keyboard-response","188","308169","0.0-15.0-1.2-0.2","f5g77f1jw0","","f5g77f1jw0","""2024-11-12T18:13:26.669Z""","null","+","null","","","","","","",""
"","","","","","image-keyboard-response","189","309240","0.0-15.0-1.2-1.2","f5g77f1jw0","","f5g77f1jw0","""2024-11-12T18:13:26.669Z""","1070","materials/imgs/D78.png","arrowright","","[""materials/imgs/D76.png"",""materials/imgs/D78.png""]","","check","materials/imgs/D78.png","1","true"
"","","","","","html-keyboard-response","190","309751","0.0-15.0-2.2-0.4","f5g77f1jw0","","f5g77f1jw0","""2024-11-12T18:13:26.669Z""","null","+","null","","","","","","",""
"","","","","","image-keyboard-response","191","312251","0.0-15.0-2.2-1.4","f5g77f1jw0","","f5g77f1jw0","""2024-11-12T18:13:26.669Z""","2491","materials/imgs/D49.png","arrowright","","[""materials/imgs/D8.png"",""materials/imgs/D101.png""]","false","validation","","",""
"","","","","","html-keyboard-response","192","312764","0.0-15.0-2.2-0.5","f5g77f1jw0","","f5g77f1jw0","""2024-11-12T18:13:26.669Z""","null","+","null","","","","","","",""
"","","","","","image-keyboard-response","193","315467","0.0-15.0-2.2-1.5","f5g77f1jw0","","f5g77f1jw0","""2024-11-12T18:13:26.669Z""","2700","materials/imgs/D51.png","arrowleft","","[""materials/imgs/D92.png"",""materials/imgs/D20.png""]","false","validation","","",""
"","","","","","html-keyboard-response","194","315974","0.0-15.0-0.3-0.21","f5g77f1jw0","","f5g77f1jw0","""2024-11-12T18:13:26.669Z""","null","+","null","","","","","","",""
"","","","","","image-keyboard-response","195","318336","0.0-15.0-0.3-1.21","f5g77f1jw0","","f5g77f1jw0","""2024-11-12T18:13:26.669Z""","2358","materials/imgs/D14.png","arrowright","","[""materials/imgs/D101.png"",""materials/imgs/D79.png""]","false","random","","",""
"","","","","","html-keyboard-response","196","318844","0.0-15.0-0.3-0.22","f5g77f1jw0","","f5g77f1jw0","""2024-11-12T18:13:26.669Z""","null","+","null","","","","","","",""
"","","","","","image-keyboard-response","197","321391","0.0-15.0-0.3-1.22","f5g77f1jw0","","f5g77f1jw0","""2024-11-12T18:13:26.669Z""","2544","materials/imgs/D49.png","arrowright","","[""materials/imgs/D16.png"",""materials/imgs/D101.png""]","false","random","","",""
"","","","","","html-keyboard-response","198","321897","0.0-15.0-0.3-0.23","f5g77f1jw0","","f5g77f1jw0","""2024-11-12T18:13:26.669Z""","null","+","null","","","","","","",""
"","","","","","image-keyboard-response","199","322561","0.0-15.0-0.3-1.23","f5g77f1jw0","","f5g77f1jw0","""2024-11-12T18:13:26.669Z""","659","materials/imgs/D4.png","arrowleft","","[""materials/imgs/D84.png"",""materials/imgs/D106.png""]","false","random","","",""
"","","","","","html-keyboard-response","200","323069","0.0-15.0-0.3-0.24","f5g77f1jw0","","f5g77f1jw0","""2024-11-12T18:13:26.669Z""","null","+","null","","","","","","",""
"","","","","","image-keyboard-response","201","324748","0.0-15.0-0.3-1.24","f5g77f1jw0","","f5g77f1jw0","""2024-11-12T18:13:26.669Z""","1676","materials/imgs/D32.png","arrowright","","[""materials/imgs/D17.png"",""materials/imgs/D84.png""]","false","random","","",""
"","","","","","html-keyboard-response","202","325251","0.0-15.0-0.3-0.25","f5g77f1jw0","","f5g77f1jw0","""2024-11-12T18:13:26.669Z""","null","+","null","","","","","","",""
"","","","","","image-keyboard-response","203","328154","0.0-15.0-0.3-1.25","f5g77f1jw0","","f5g77f1jw0","""2024-11-12T18:13:26.669Z""","2898","materials/imgs/D4.png","arrowleft","","[""materials/imgs/D17.png"",""materials/imgs/D101.png""]","false","random","","",""
"","","","","","html-keyboard-response","204","328656","0.0-15.0-0.3-0.26","f5g77f1jw0","","f5g77f1jw0","""2024-11-12T18:13:26.669Z""","null","+","null","","","","","","",""
"","","","","","image-keyboard-response","205","329847","0.0-15.0-0.3-1.26","f5g77f1jw0","","f5g77f1jw0","""2024-11-12T18:13:26.669Z""","1188","materials/imgs/D85.png","arrowleft","","[""materials/imgs/D57.png"",""materials/imgs/D49.png""]","false","random","","",""
"","","","","","html-keyboard-response","206","330351","0.0-15.0-0.3-0.27","f5g77f1jw0","","f5g77f1jw0","""2024-11-12T18:13:26.669Z""","null","+","null","","","","","","",""
"","","","","","image-keyboard-response","207","332511","0.0-15.0-0.3-1.27","f5g77f1jw0","","f5g77f1jw0","""2024-11-12T18:13:26.669Z""","2157","materials/imgs/D77.png","arrowleft","","[""materials/imgs/D104.png"",""materials/imgs/D81.png""]","false","random","","",""
"","","","","","html-keyboard-response","208","333017","0.0-15.0-1.3-0.3","f5g77f1jw0","","f5g77f1jw0","""2024-11-12T18:13:26.669Z""","null","+","null","","","","","","",""
"","","","","","image-keyboard-response","209","333675","0.0-15.0-1.3-1.3","f5g77f1jw0","","f5g77f1jw0","""2024-11-12T18:13:26.669Z""","654","materials/imgs/D53.png","arrowright","","[""materials/imgs/D64.png"",""materials/imgs/D53.png""]","","check","materials/imgs/D53.png","1","true"
"","","","","","html-keyboard-response","210","334182","0.0-15.0-2.3-0.6","f5g77f1jw0","","f5g77f1jw0","""2024-11-12T18:13:26.669Z""","null","+","null","","","","","","",""
"","","","","","image-keyboard-response","211","337751","0.0-15.0-2.3-1.6","f5g77f1jw0","","f5g77f1jw0","""2024-11-12T18:13:26.669Z""","3567","materials/imgs/D37.png","arrowright","","[""materials/imgs/D84.png"",""materials/imgs/D111.png""]","false","validation","","",""
"","","","","","html-keyboard-response","212","338263","0.0-15.0-2.3-0.7","f5g77f1jw0","","f5g77f1jw0","""2024-11-12T18:13:26.669Z""","null","+","null","","","","","","",""
"","","","","","image-keyboard-response","213","340913","0.0-15.0-2.3-1.7","f5g77f1jw0","","f5g77f1jw0","""2024-11-12T18:13:26.669Z""","2648","materials/imgs/D9.png","arrowright","","[""materials/imgs/D103.png"",""materials/imgs/D4.png""]","false","validation","","",""
"","","","","","html-keyboard-response","214","341432","0.0-15.0-0.4-0.28","f5g77f1jw0","","f5g77f1jw0","""2024-11-12T18:13:26.669Z""","null","+","null","","","","","","",""
"","","","","","image-keyboard-response","215","344568","0.0-15.0-0.4-1.28","f5g77f1jw0","","f5g77f1jw0","""2024-11-12T18:13:26.669Z""","3133","materials/imgs/D83.png","arrowleft","","[""materials/imgs/D94.png"",""materials/imgs/D87.png""]","false","random","","",""
"","","","","","html-keyboard-response","216","345079","0.0-15.0-0.4-0.29","f5g77f1jw0","","f5g77f1jw0","""2024-11-12T18:13:26.669Z""","null","+","null","","","","","","",""
"","","","","","image-keyboard-response","217","345737","0.0-15.0-0.4-1.29","f5g77f1jw0","","f5g77f1jw0","""2024-11-12T18:13:26.669Z""","655","materials/imgs/D57.png","arrowleft","","[""materials/imgs/D84.png"",""materials/imgs/D105.png""]","false","random","","",""
"","","","","","html-keyboard-response","218","346242","0.0-15.0-0.4-0.30","f5g77f1jw0","","f5g77f1jw0","""2024-11-12T18:13:26.669Z""","null","+","null","","","","","","",""
"","","","","","image-keyboard-response","219","347500","0.0-15.0-0.4-1.30","f5g77f1jw0","","f5g77f1jw0","""2024-11-12T18:13:26.669Z""","1256","materials/imgs/D36.png","arrowleft","","[""materials/imgs/D80.png"",""materials/imgs/D94.png""]","false","random","","",""
"","","","","","html-keyboard-response","220","348016","0.0-15.0-0.4-0.31","f5g77f1jw0","","f5g77f1jw0","""2024-11-12T18:13:26.669Z""","null","+","null","","","","","","",""
"","","","","","image-keyboard-response","221","348641","0.0-15.0-0.4-1.31","f5g77f1jw0","","f5g77f1jw0","""2024-11-12T18:13:26.669Z""","619","materials/imgs/D3.png","arrowleft","","[""materials/imgs/D34.png"",""materials/imgs/D95.png""]","false","random","","",""
"","","","","","html-keyboard-response","222","349150","0.0-15.0-0.4-0.32","f5g77f1jw0","","f5g77f1jw0","""2024-11-12T18:13:26.669Z""","null","+","null","","","","","","",""
"","","","","","image-keyboard-response","223","350231","0.0-15.0-0.4-1.32","f5g77f1jw0","","f5g77f1jw0","""2024-11-12T18:13:26.669Z""","1078","materials/imgs/D47.png","arrowright","","[""materials/imgs/D55.png"",""materials/imgs/D1.png""]","false","random","","",""
"","","","","","html-keyboard-response","224","350740","0.0-15.0-0.4-0.33","f5g77f1jw0","","f5g77f1jw0","""2024-11-12T18:13:26.669Z""","null","+","null","","","","","","",""
"","","","","","image-keyboard-response","225","351988","0.0-15.0-0.4-1.33","f5g77f1jw0","","f5g77f1jw0","""2024-11-12T18:13:26.669Z""","1246","materials/imgs/D87.png","arrowright","","[""materials/imgs/D77.png"",""materials/imgs/D83.png""]","false","random","","",""
"","","","","","html-keyboard-response","226","352495","0.0-15.0-0.4-0.34","f5g77f1jw0","","f5g77f1jw0","""2024-11-12T18:13:26.669Z""","null","+","null","","","","","","",""
"","","","","","image-keyboard-response","227","353351","0.0-15.0-0.4-1.34","f5g77f1jw0","","f5g77f1jw0","""2024-11-12T18:13:26.669Z""","854","materials/imgs/D103.png","arrowleft","","[""materials/imgs/D16.png"",""materials/imgs/D26.png""]","false","random","","",""
"","","","","","html-keyboard-response","228","353862","0.0-15.0-1.4-0.4","f5g77f1jw0","","f5g77f1jw0","""2024-11-12T18:13:26.669Z""","null","+","null","","","","","","",""
"","","","","","image-keyboard-response","229","354642","0.0-15.0-1.4-1.4","f5g77f1jw0","","f5g77f1jw0","""2024-11-12T18:13:26.669Z""","776","materials/imgs/D18.png","arrowright","","[""materials/imgs/D8.png"",""materials/imgs/D18.png""]","","check","materials/imgs/D18.png","1","true"
"","","","","","html-keyboard-response","230","355150","0.0-15.0-2.4-0.8","f5g77f1jw0","","f5g77f1jw0","""2024-11-12T18:13:26.669Z""","null","+","null","","","","","","",""
"","","","","","image-keyboard-response","231","356767","0.0-15.0-2.4-1.8","f5g77f1jw0","","f5g77f1jw0","""2024-11-12T18:13:26.669Z""","1613","materials/imgs/D64.png","arrowright","","[""materials/imgs/D6.png"",""materials/imgs/D81.png""]","false","validation","","",""
"","","","","","html-keyboard-response","232","357275","0.0-15.0-2.4-0.9","f5g77f1jw0","","f5g77f1jw0","""2024-11-12T18:13:26.669Z""","null","+","null","","","","","","",""
"","","","","","image-keyboard-response","233","358706","0.0-15.0-2.4-1.9","f5g77f1jw0","","f5g77f1jw0","""2024-11-12T18:13:26.669Z""","1428","materials/imgs/D35.png","arrowright","","[""materials/imgs/D83.png"",""materials/imgs/D24.png""]","false","validation","","",""
"","","","","","html-button-response","234","360547","0.0-16.0","f5g77f1jw0","","f5g77f1jw0","""2024-11-12T18:13:26.669Z""","1840","You have completed 50% of the trials. Please click 'Continue' when you are ready proceed.","0","","","","","","",""
"","","","","","html-keyboard-response","235","361052","0.0-17.0-0.0-0.0","f5g77f1jw0","","f5g77f1jw0","""2024-11-12T18:13:26.669Z""","null","+","null","","","","","","",""
"","","","","","image-keyboard-response","236","361947","0.0-17.0-0.0-1.0","f5g77f1jw0","","f5g77f1jw0","""2024-11-12T18:13:26.669Z""","891","materials/imgs/D77.png","arrowleft","","[""materials/imgs/D55.png"",""materials/imgs/D64.png""]","false","random","","",""
"","","","","","html-keyboard-response","237","362463","0.0-17.0-0.0-0.1","f5g77f1jw0","","f5g77f1jw0","""2024-11-12T18:13:26.669Z""","null","+","null","","","","","","",""
"","","","","","image-keyboard-response","238","363976","0.0-17.0-0.0-1.1","f5g77f1jw0","","f5g77f1jw0","""2024-11-12T18:13:26.669Z""","1510","materials/imgs/D18.png","arrowright","","[""materials/imgs/D101.png"",""materials/imgs/D80.png""]","false","random","","",""
"","","","","","html-keyboard-response","239","364482","0.0-17.0-0.0-0.2","f5g77f1jw0","","f5g77f1jw0","""2024-11-12T18:13:26.669Z""","null","+","null","","","","","","",""
"","","","","","image-keyboard-response","240","365730","0.0-17.0-0.0-1.2","f5g77f1jw0","","f5g77f1jw0","""2024-11-12T18:13:26.669Z""","1247","materials/imgs/D75.png","arrowleft","","[""materials/imgs/D48.png"",""materials/imgs/D35.png""]","false","random","","",""
"","","","","","html-keyboard-response","241","366235","0.0-17.0-0.0-0.3","f5g77f1jw0","","f5g77f1jw0","""2024-11-12T18:13:26.669Z""","null","+","null","","","","","","",""
"","","","","","image-keyboard-response","242","368277","0.0-17.0-0.0-1.3","f5g77f1jw0","","f5g77f1jw0","""2024-11-12T18:13:26.669Z""","2039","materials/imgs/D55.png","arrowleft","","[""materials/imgs/D104.png"",""materials/imgs/D35.png""]","false","random","","",""
"","","","","","html-keyboard-response","243","368782","0.0-17.0-0.0-0.4","f5g77f1jw0","","f5g77f1jw0","""2024-11-12T18:13:26.669Z""","null","+","null","","","","","","",""
"","","","","","image-keyboard-response","244","370511","0.0-17.0-0.0-1.4","f5g77f1jw0","","f5g77f1jw0","""2024-11-12T18:13:26.669Z""","1727","materials/imgs/D4.png","arrowleft","","[""materials/imgs/D17.png"",""materials/imgs/D3.png""]","false","random","","",""
"","","","","","html-keyboard-response","245","371018","0.0-17.0-0.0-0.5","f5g77f1jw0","","f5g77f1jw0","""2024-11-12T18:13:26.669Z""","null","+","null","","","","","","",""
"","","","","","image-keyboard-response","246","372076","0.0-17.0-0.0-1.5","f5g77f1jw0","","f5g77f1jw0","""2024-11-12T18:13:26.669Z""","1055","materials/imgs/D95.png","arrowright","","[""materials/imgs/D84.png"",""materials/imgs/D8.png""]","false","random","","",""
"","","","","","html-keyboard-response","247","372580","0.0-17.0-0.0-0.6","f5g77f1jw0","","f5g77f1jw0","""2024-11-12T18:13:26.669Z""","null","+","null","","","","","","",""
"","","","","","image-keyboard-response","248","373609","0.0-17.0-0.0-1.6","f5g77f1jw0","","f5g77f1jw0","""2024-11-12T18:13:26.669Z""","1025","materials/imgs/D21.png","arrowleft","","[""materials/imgs/D20.png"",""materials/imgs/D53.png""]","false","random","","",""
"","","","","","html-keyboard-response","249","374116","0.0-17.0-1.0-0.0","f5g77f1jw0","","f5g77f1jw0","""2024-11-12T18:13:26.669Z""","null","+","null","","","","","","",""
"","","","","","image-keyboard-response","250","374891","0.0-17.0-1.0-1.0","f5g77f1jw0","","f5g77f1jw0","""2024-11-12T18:13:26.669Z""","771","materials/imgs/D76.png","arrowleft","","[""materials/imgs/D76.png"",""materials/imgs/D78.png""]","","check","materials/imgs/D76.png","0","true"
"","","","","","html-keyboard-response","251","375393","0.0-17.0-2.0-0.0","f5g77f1jw0","","f5g77f1jw0","""2024-11-12T18:13:26.669Z""","null","+","null","","","","","","",""
"","","","","","image-keyboard-response","252","377754","0.0-17.0-2.0-1.0","f5g77f1jw0","","f5g77f1jw0","""2024-11-12T18:13:26.669Z""","2359","materials/imgs/D106.png","arrowleft","","[""materials/imgs/D57.png"",""materials/imgs/D18.png""]","false","validation","","",""
"","","","","","html-keyboard-response","253","378262","0.0-17.0-2.0-0.1","f5g77f1jw0","","f5g77f1jw0","""2024-11-12T18:13:26.669Z""","null","+","null","","","","","","",""
"","","","","","image-keyboard-response","254","380455","0.0-17.0-2.0-1.1","f5g77f1jw0","","f5g77f1jw0","""2024-11-12T18:13:26.669Z""","2191","materials/imgs/D76.png","arrowleft","","[""materials/imgs/D83.png"",""materials/imgs/D6.png""]","false","validation","","",""
"","","","","","html-keyboard-response","255","380964","0.0-17.0-0.1-0.7","f5g77f1jw0","","f5g77f1jw0","""2024-11-12T18:13:26.669Z""","null","+","null","","","","","","",""
"","","","","","image-keyboard-response","256","385306","0.0-17.0-0.1-1.7","f5g77f1jw0","","f5g77f1jw0","""2024-11-12T18:13:26.669Z""","4339","materials/imgs/D84.png","arrowleft","","[""materials/imgs/D26.png"",""materials/imgs/D96.png""]","false","random","","",""
"","","","","","html-keyboard-response","257","385816","0.0-17.0-0.1-0.8","f5g77f1jw0","","f5g77f1jw0","""2024-11-12T18:13:26.669Z""","null","+","null","","","","","","",""
"","","","","","image-keyboard-response","258","388170","0.0-17.0-0.1-1.8","f5g77f1jw0","","f5g77f1jw0","""2024-11-12T18:13:26.669Z""","2350","materials/imgs/D18.png","arrowleft","","[""materials/imgs/D37.png"",""materials/imgs/D48.png""]","false","random","","",""
"","","","","","html-keyboard-response","259","388677","0.0-17.0-0.1-0.9","f5g77f1jw0","","f5g77f1jw0","""2024-11-12T18:13:26.669Z""","null","+","null","","","","","","",""
"","","","","","image-keyboard-response","260","390865","0.0-17.0-0.1-1.9","f5g77f1jw0","","f5g77f1jw0","""2024-11-12T18:13:26.669Z""","2184","materials/imgs/D94.png","arrowleft","","[""materials/imgs/D76.png"",""materials/imgs/D3.png""]","false","random","","",""
"","","","","","html-keyboard-response","261","391377","0.0-17.0-0.1-0.10","f5g77f1jw0","","f5g77f1jw0","""2024-11-12T18:13:26.669Z""","null","+","null","","","","","","",""
"","","","","","image-keyboard-response","262","393797","0.0-17.0-0.1-1.10","f5g77f1jw0","","f5g77f1jw0","""2024-11-12T18:13:26.669Z""","2416","materials/imgs/D102.png","arrowright","","[""materials/imgs/D4.png"",""materials/imgs/D6.png""]","false","random","","",""
"","","","","","html-keyboard-response","263","394301","0.0-17.0-0.1-0.11","f5g77f1jw0","","f5g77f1jw0","""2024-11-12T18:13:26.669Z""","null","+","null","","","","","","",""
"","","","","","image-keyboard-response","264","396547","0.0-17.0-0.1-1.11","f5g77f1jw0","","f5g77f1jw0","""2024-11-12T18:13:26.669Z""","2244","materials/imgs/D101.png","arrowright","","[""materials/imgs/D51.png"",""materials/imgs/D29.png""]","false","random","","",""
"","","","","","html-keyboard-response","265","397049","0.0-17.0-0.1-0.12","f5g77f1jw0","","f5g77f1jw0","""2024-11-12T18:13:26.669Z""","null","+","null","","","","","","",""
"","","","","","image-keyboard-response","266","399723","0.0-17.0-0.1-1.12","f5g77f1jw0","","f5g77f1jw0","""2024-11-12T18:13:26.669Z""","2670","materials/imgs/D20.png","arrowright","","[""materials/imgs/D75.png"",""materials/imgs/D19.png""]","false","random","","",""
"","","","","","html-keyboard-response","267","400229","0.0-17.0-0.1-0.13","f5g77f1jw0","","f5g77f1jw0","""2024-11-12T18:13:26.669Z""","null","+","null","","","","","","",""
"","","","","","image-keyboard-response","268","403459","0.0-17.0-0.1-1.13","f5g77f1jw0","","f5g77f1jw0","""2024-11-12T18:13:26.669Z""","3228","materials/imgs/D46.png","arrowleft","","[""materials/imgs/D24.png"",""materials/imgs/D66.png""]","false","random","","",""
"","","","","","html-keyboard-response","269","403965","0.0-17.0-1.1-0.1","f5g77f1jw0","","f5g77f1jw0","""2024-11-12T18:13:26.669Z""","null","+","null","","","","","","",""
"","","","","","image-keyboard-response","270","404603","0.0-17.0-1.1-1.1","f5g77f1jw0","","f5g77f1jw0","""2024-11-12T18:13:26.669Z""","635","materials/imgs/D46.png","arrowleft","","[""materials/imgs/D46.png"",""materials/imgs/D26.png""]","","check","materials/imgs/D46.png","0","true"
"","","","","","html-keyboard-response","271","405108","0.0-17.0-2.1-0.2","f5g77f1jw0","","f5g77f1jw0","""2024-11-12T18:13:26.669Z""","null","+","null","","","","","","",""
"","","","","","image-keyboard-response","272","409814","0.0-17.0-2.1-1.2","f5g77f1jw0","","f5g77f1jw0","""2024-11-12T18:13:26.669Z""","4703","materials/imgs/D16.png","arrowleft","","[""materials/imgs/D52.png"",""materials/imgs/D25.png""]","false","validation","","",""
"","","","","","html-keyboard-response","273","410324","0.0-17.0-2.1-0.3","f5g77f1jw0","","f5g77f1jw0","""2024-11-12T18:13:26.669Z""","null","+","null","","","","","","",""
"","","","","","image-keyboard-response","274","414616","0.0-17.0-2.1-1.3","f5g77f1jw0","","f5g77f1jw0","""2024-11-12T18:13:26.669Z""","4290","materials/imgs/D48.png","arrowright","","[""materials/imgs/D4.png"",""materials/imgs/D37.png""]","false","validation","","",""
"","","","","","html-keyboard-response","275","415133","0.0-17.0-0.2-0.14","f5g77f1jw0","","f5g77f1jw0","""2024-11-12T18:13:26.669Z""","null","+","null","","","","","","",""
"","","","","","image-keyboard-response","276","418641","0.0-17.0-0.2-1.14","f5g77f1jw0","","f5g77f1jw0","""2024-11-12T18:13:26.669Z""","3506","materials/imgs/D49.png","arrowright","","[""materials/imgs/D66.png"",""materials/imgs/D77.png""]","false","random","","",""
"","","","","","html-keyboard-response","277","419146","0.0-17.0-0.2-0.15","f5g77f1jw0","","f5g77f1jw0","""2024-11-12T18:13:26.669Z""","null","+","null","","","","","","",""
"","","","","","image-keyboard-response","278","420797","0.0-17.0-0.2-1.15","f5g77f1jw0","","f5g77f1jw0","""2024-11-12T18:13:26.669Z""","1647","materials/imgs/D83.png","arrowright","","[""materials/imgs/D68.png"",""materials/imgs/D21.png""]","false","random","","",""
"","","","","","html-keyboard-response","279","421308","0.0-17.0-0.2-0.16","f5g77f1jw0","","f5g77f1jw0","""2024-11-12T18:13:26.669Z""","null","+","null","","","","","","",""
"","","","","","image-keyboard-response","280","422474","0.0-17.0-0.2-1.16","f5g77f1jw0","","f5g77f1jw0","""2024-11-12T18:13:26.669Z""","1163","materials/imgs/D53.png","arrowright","","[""materials/imgs/D74.png"",""materials/imgs/D65.png""]","false","random","","",""
"","","","","","html-keyboard-response","281","422982","0.0-17.0-0.2-0.17","f5g77f1jw0","","f5g77f1jw0","""2024-11-12T18:13:26.669Z""","null","+","null","","","","","","",""
"","","","","","image-keyboard-response","282","425243","0.0-17.0-0.2-1.17","f5g77f1jw0","","f5g77f1jw0","""2024-11-12T18:13:26.669Z""","2258","materials/imgs/D75.png","arrowright","","[""materials/imgs/D25.png"",""materials/imgs/D22.png""]","false","random","","",""
"","","","","","html-keyboard-response","283","425749","0.0-17.0-0.2-0.18","f5g77f1jw0","","f5g77f1jw0","""2024-11-12T18:13:26.669Z""","null","+","null","","","","","","",""
"","","","","","image-keyboard-response","284","429335","0.0-17.0-0.2-1.18","f5g77f1jw0","","f5g77f1jw0","""2024-11-12T18:13:26.669Z""","3583","materials/imgs/D66.png","arrowleft","","[""materials/imgs/D68.png"",""materials/imgs/D64.png""]","false","random","","",""
"","","","","","html-keyboard-response","285","429850","0.0-17.0-0.2-0.19","f5g77f1jw0","","f5g77f1jw0","""2024-11-12T18:13:26.669Z""","null","+","null","","","","","","",""
"","","","","","image-keyboard-response","286","431927","0.0-17.0-0.2-1.19","f5g77f1jw0","","f5g77f1jw0","""2024-11-12T18:13:26.669Z""","2074","materials/imgs/D106.png","arrowleft","","[""materials/imgs/D36.png"",""materials/imgs/D101.png""]","false","random","","",""
"","","","","","html-keyboard-response","287","432437","0.0-17.0-0.2-0.20","f5g77f1jw0","","f5g77f1jw0","""2024-11-12T18:13:26.669Z""","null","+","null","","","","","","",""
"","","","","","image-keyboard-response","288","434110","0.0-17.0-0.2-1.20","f5g77f1jw0","","f5g77f1jw0","""2024-11-12T18:13:26.669Z""","1655","materials/imgs/D35.png","arrowright","","[""materials/imgs/D85.png"",""materials/imgs/D101.png""]","false","random","","",""
"","","","","","html-keyboard-response","289","434624","0.0-17.0-1.2-0.2","f5g77f1jw0","","f5g77f1jw0","""2024-11-12T18:13:26.669Z""","null","+","null","","","","","","",""
"","","","","","image-keyboard-response","290","435386","0.0-17.0-1.2-1.2","f5g77f1jw0","","f5g77f1jw0","""2024-11-12T18:13:26.669Z""","759","materials/imgs/D106.png","arrowleft","","[""materials/imgs/D106.png"",""materials/imgs/D101.png""]","","check","materials/imgs/D106.png","0","true"
"","","","","","html-keyboard-response","291","435899","0.0-17.0-2.2-0.4","f5g77f1jw0","","f5g77f1jw0","""2024-11-12T18:13:26.669Z""","null","+","null","","","","","","",""
"","","","","","image-keyboard-response","292","437302","0.0-17.0-2.2-1.4","f5g77f1jw0","","f5g77f1jw0","""2024-11-12T18:13:26.669Z""","1401","materials/imgs/D82.png","arrowleft","","[""materials/imgs/D83.png"",""materials/imgs/D22.png""]","false","validation","","",""
"","","","","","html-keyboard-response","293","437809","0.0-17.0-2.2-0.5","f5g77f1jw0","","f5g77f1jw0","""2024-11-12T18:13:26.669Z""","null","+","null","","","","","","",""
"","","","","","image-keyboard-response","294","439499","0.0-17.0-2.2-1.5","f5g77f1jw0","","f5g77f1jw0","""2024-11-12T18:13:26.669Z""","1686","materials/imgs/D106.png","arrowleft","","[""materials/imgs/D57.png"",""materials/imgs/D18.png""]","false","validation","","",""
"","","","","","html-keyboard-response","295","440014","0.0-17.0-0.3-0.21","f5g77f1jw0","","f5g77f1jw0","""2024-11-12T18:13:26.669Z""","null","+","null","","","","","","",""
"","","","","","image-keyboard-response","296","443239","0.0-17.0-0.3-1.21","f5g77f1jw0","","f5g77f1jw0","""2024-11-12T18:13:26.669Z""","3223","materials/imgs/D46.png","arrowleft","","[""materials/imgs/D8.png"",""materials/imgs/D19.png""]","false","random","","",""
"","","","","","html-keyboard-response","297","443748","0.0-17.0-0.3-0.22","f5g77f1jw0","","f5g77f1jw0","""2024-11-12T18:13:26.669Z""","null","+","null","","","","","","",""
"","","","","","image-keyboard-response","298","445302","0.0-17.0-0.3-1.22","f5g77f1jw0","","f5g77f1jw0","""2024-11-12T18:13:26.669Z""","1551","materials/imgs/D21.png","arrowleft","","[""materials/imgs/D102.png"",""materials/imgs/D74.png""]","false","random","","",""
"","","","","","html-keyboard-response","299","445810","0.0-17.0-0.3-0.23","f5g77f1jw0","","f5g77f1jw0","""2024-11-12T18:13:26.669Z""","null","+","null","","","","","","",""
"","","","","","image-keyboard-response","300","446488","0.0-17.0-0.3-1.23","f5g77f1jw0","","f5g77f1jw0","""2024-11-12T18:13:26.669Z""","675","materials/imgs/D4.png","arrowleft","","[""materials/imgs/D32.png"",""materials/imgs/D20.png""]","false","random","","",""
"","","","","","html-keyboard-response","301","446995","0.0-17.0-0.3-0.24","f5g77f1jw0","","f5g77f1jw0","""2024-11-12T18:13:26.669Z""","null","+","null","","","","","","",""
"","","","","","image-keyboard-response","302","447941","0.0-17.0-0.3-1.24","f5g77f1jw0","","f5g77f1jw0","""2024-11-12T18:13:26.669Z""","942","materials/imgs/D26.png","arrowright","","[""materials/imgs/D20.png"",""materials/imgs/D18.png""]","false","random","","",""
"","","","","","html-keyboard-response","303","448446","0.0-17.0-0.3-0.25","f5g77f1jw0","","f5g77f1jw0","""2024-11-12T18:13:26.669Z""","null","+","null","","","","","","",""
"","","","","","image-keyboard-response","304","449712","0.0-17.0-0.3-1.25","f5g77f1jw0","","f5g77f1jw0","""2024-11-12T18:13:26.669Z""","1262","materials/imgs/D105.png","arrowleft","","[""materials/imgs/D16.png"",""materials/imgs/D17.png""]","false","random","","",""
"","","","","","html-keyboard-response","305","450227","0.0-17.0-0.3-0.26","f5g77f1jw0","","f5g77f1jw0","""2024-11-12T18:13:26.669Z""","null","+","null","","","","","","",""
"","","","","","image-keyboard-response","306","454088","0.0-17.0-0.3-1.26","f5g77f1jw0","","f5g77f1jw0","""2024-11-12T18:13:26.669Z""","3858","materials/imgs/D94.png","arrowright","","[""materials/imgs/D85.png"",""materials/imgs/D32.png""]","false","random","","",""
"","","","","","html-keyboard-response","307","454604","0.0-17.0-0.3-0.27","f5g77f1jw0","","f5g77f1jw0","""2024-11-12T18:13:26.669Z""","null","+","null","","","","","","",""
"","","","","","image-keyboard-response","308","455295","0.0-17.0-0.3-1.27","f5g77f1jw0","","f5g77f1jw0","""2024-11-12T18:13:26.669Z""","688","materials/imgs/D29.png","arrowright","","[""materials/imgs/D52.png"",""materials/imgs/D84.png""]","false","random","","",""
"","","","","","html-keyboard-response","309","455801","0.0-17.0-1.3-0.3","f5g77f1jw0","","f5g77f1jw0","""2024-11-12T18:13:26.669Z""","null","+","null","","","","","","",""
"","","","","","image-keyboard-response","310","456518","0.0-17.0-1.3-1.3","f5g77f1jw0","","f5g77f1jw0","""2024-11-12T18:13:26.669Z""","715","materials/imgs/D76.png","arrowleft","","[""materials/imgs/D76.png"",""materials/imgs/D78.png""]","","check","materials/imgs/D76.png","0","true"
"","","","","","html-keyboard-response","311","457026","0.0-17.0-2.3-0.6","f5g77f1jw0","","f5g77f1jw0","""2024-11-12T18:13:26.669Z""","null","+","null","","","","","","",""
"","","","","","image-keyboard-response","312","458161","0.0-17.0-2.3-1.6","f5g77f1jw0","","f5g77f1jw0","""2024-11-12T18:13:26.669Z""","1132","materials/imgs/D76.png","arrowleft","","[""materials/imgs/D83.png"",""materials/imgs/D6.png""]","false","validation","","",""
"","","","","","html-keyboard-response","313","458677","0.0-17.0-2.3-0.7","f5g77f1jw0","","f5g77f1jw0","""2024-11-12T18:13:26.669Z""","null","+","null","","","","","","",""
"","","","","","image-keyboard-response","314","459914","0.0-17.0-2.3-1.7","f5g77f1jw0","","f5g77f1jw0","""2024-11-12T18:13:26.669Z""","1234","materials/imgs/D46.png","arrowleft","","[""materials/imgs/D92.png"",""materials/imgs/D77.png""]","false","validation","","",""
"","","","","","html-keyboard-response","315","460432","0.0-17.0-0.4-0.28","f5g77f1jw0","","f5g77f1jw0","""2024-11-12T18:13:26.669Z""","null","+","null","","","","","","",""
"","","","","","image-keyboard-response","316","461555","0.0-17.0-0.4-1.28","f5g77f1jw0","","f5g77f1jw0","""2024-11-12T18:13:26.669Z""","1121","materials/imgs/D95.png","arrowright","","[""materials/imgs/D18.png"",""materials/imgs/D65.png""]","false","random","","",""
"","","","","","html-keyboard-response","317","462067","0.0-17.0-0.4-0.29","f5g77f1jw0","","f5g77f1jw0","""2024-11-12T18:13:26.669Z""","null","+","null","","","","","","",""
"","","","","","image-keyboard-response","318","464869","0.0-17.0-0.4-1.29","f5g77f1jw0","","f5g77f1jw0","""2024-11-12T18:13:26.669Z""","2799","materials/imgs/D25.png","arrowleft","","[""materials/imgs/D105.png"",""materials/imgs/D17.png""]","false","random","","",""
"","","","","","html-keyboard-response","319","465390","0.0-17.0-0.4-0.30","f5g77f1jw0","","f5g77f1jw0","""2024-11-12T18:13:26.669Z""","null","+","null","","","","","","",""
"","","","","","image-keyboard-response","320","469461","0.0-17.0-0.4-1.30","f5g77f1jw0","","f5g77f1jw0","""2024-11-12T18:13:26.669Z""","4069","materials/imgs/D49.png","arrowleft","","[""materials/imgs/D92.png"",""materials/imgs/D94.png""]","false","random","","",""
"","","","","","html-keyboard-response","321","469967","0.0-17.0-0.4-0.31","f5g77f1jw0","","f5g77f1jw0","""2024-11-12T18:13:26.669Z""","null","+","null","","","","","","",""
"","","","","","image-keyboard-response","322","470817","0.0-17.0-0.4-1.31","f5g77f1jw0","","f5g77f1jw0","""2024-11-12T18:13:26.669Z""","846","materials/imgs/D55.png","arrowleft","","[""materials/imgs/D80.png"",""materials/imgs/D26.png""]","false","random","","",""
"","","","","","html-keyboard-response","323","471323","0.0-17.0-0.4-0.32","f5g77f1jw0","","f5g77f1jw0","""2024-11-12T18:13:26.669Z""","null","+","null","","","","","","",""
"","","","","","image-keyboard-response","324","472219","0.0-17.0-0.4-1.32","f5g77f1jw0","","f5g77f1jw0","""2024-11-12T18:13:26.669Z""","894","materials/imgs/D65.png","arrowright","","[""materials/imgs/D92.png"",""materials/imgs/D80.png""]","false","random","","",""
"","","","","","html-keyboard-response","325","472731","0.0-17.0-0.4-0.33","f5g77f1jw0","","f5g77f1jw0","""2024-11-12T18:13:26.669Z""","null","+","null","","","","","","",""
"","","","","","image-keyboard-response","326","473570","0.0-17.0-0.4-1.33","f5g77f1jw0","","f5g77f1jw0","""2024-11-12T18:13:26.669Z""","836","materials/imgs/D21.png","arrowleft","","[""materials/imgs/D79.png"",""materials/imgs/D19.png""]","false","random","","",""
"","","","","","html-keyboard-response","327","474080","0.0-17.0-0.4-0.34","f5g77f1jw0","","f5g77f1jw0","""2024-11-12T18:13:26.669Z""","null","+","null","","","","","","",""
"","","","","","image-keyboard-response","328","476105","0.0-17.0-0.4-1.34","f5g77f1jw0","","f5g77f1jw0","""2024-11-12T18:13:26.669Z""","2022","materials/imgs/D68.png","arrowright","","[""materials/imgs/D57.png"",""materials/imgs/D53.png""]","false","random","","",""
"","","","","","html-keyboard-response","329","476614","0.0-17.0-1.4-0.4","f5g77f1jw0","","f5g77f1jw0","""2024-11-12T18:13:26.669Z""","null","+","null","","","","","","",""
"","","","","","image-keyboard-response","330","477164","0.0-17.0-1.4-1.4","f5g77f1jw0","","f5g77f1jw0","""2024-11-12T18:13:26.669Z""","548","materials/imgs/D101.png","arrowright","","[""materials/imgs/D106.png"",""materials/imgs/D101.png""]","","check","materials/imgs/D101.png","1","true"
"","","","","","html-keyboard-response","331","477674","0.0-17.0-2.4-0.8","f5g77f1jw0","","f5g77f1jw0","""2024-11-12T18:13:26.669Z""","null","+","null","","","","","","",""
"","","","","","image-keyboard-response","332","480533","0.0-17.0-2.4-1.8","f5g77f1jw0","","f5g77f1jw0","""2024-11-12T18:13:26.669Z""","2857","materials/imgs/D26.png","arrowright","","[""materials/imgs/D36.png"",""materials/imgs/D92.png""]","false","validation","","",""
"","","","","","html-keyboard-response","333","481048","0.0-17.0-2.4-0.9","f5g77f1jw0","","f5g77f1jw0","""2024-11-12T18:13:26.669Z""","null","+","null","","","","","","",""
"","","","","","image-keyboard-response","334","482972","0.0-17.0-2.4-1.9","f5g77f1jw0","","f5g77f1jw0","""2024-11-12T18:13:26.669Z""","1921","materials/imgs/D82.png","arrowleft","","[""materials/imgs/D83.png"",""materials/imgs/D22.png""]","false","validation","","",""
"","","","","","html-button-response","335","484872","0.0-18.0","f5g77f1jw0","","f5g77f1jw0","""2024-11-12T18:13:26.669Z""","1898","You have completed 75% of the trials. Please click 'Continue' when you are ready proceed.","0","","","","","","",""
"","","","","","html-keyboard-response","336","485378","0.0-19.0-0.0-0.0","f5g77f1jw0","","f5g77f1jw0","""2024-11-12T18:13:26.669Z""","null","+","null","","","","","","",""
"","","","","","image-keyboard-response","337","488987","0.0-19.0-0.0-1.0","f5g77f1jw0","","f5g77f1jw0","""2024-11-12T18:13:26.669Z""","3604","materials/imgs/D49.png","arrowright","","[""materials/imgs/D20.png"",""materials/imgs/D1.png""]","false","random","","",""
"","","","","","html-keyboard-response","338","489506","0.0-19.0-0.0-0.1","f5g77f1jw0","","f5g77f1jw0","""2024-11-12T18:13:26.669Z""","null","+","null","","","","","","",""
"","","","","","image-keyboard-response","339","491605","0.0-19.0-0.0-1.1","f5g77f1jw0","","f5g77f1jw0","""2024-11-12T18:13:26.669Z""","2096","materials/imgs/D17.png","arrowleft","","[""materials/imgs/D29.png"",""materials/imgs/D95.png""]","false","random","","",""
"","","","","","html-keyboard-response","340","492114","0.0-19.0-0.0-0.2","f5g77f1jw0","","f5g77f1jw0","""2024-11-12T18:13:26.669Z""","null","+","null","","","","","","",""
"","","","","","image-keyboard-response","341","492671","0.0-19.0-0.0-1.2","f5g77f1jw0","","f5g77f1jw0","""2024-11-12T18:13:26.669Z""","554","materials/imgs/D32.png","arrowright","","[""materials/imgs/D57.png"",""materials/imgs/D9.png""]","false","random","","",""
"","","","","","html-keyboard-response","342","493182","0.0-19.0-0.0-0.3","f5g77f1jw0","","f5g77f1jw0","""2024-11-12T18:13:26.669Z""","null","+","null","","","","","","",""
"","","","","","image-keyboard-response","343","493759","0.0-19.0-0.0-1.3","f5g77f1jw0","","f5g77f1jw0","""2024-11-12T18:13:26.669Z""","575","materials/imgs/D94.png","arrowleft","","[""materials/imgs/D26.png"",""materials/imgs/D52.png""]","false","random","","",""
"","","","","","html-keyboard-response","344","494262","0.0-19.0-0.0-0.4","f5g77f1jw0","","f5g77f1jw0","""2024-11-12T18:13:26.669Z""","null","+","null","","","","","","",""
"","","","","","image-keyboard-response","345","495767","0.0-19.0-0.0-1.4","f5g77f1jw0","","f5g77f1jw0","""2024-11-12T18:13:26.669Z""","1502","materials/imgs/D102.png","arrowright","","[""materials/imgs/D85.png"",""materials/imgs/D1.png""]","false","random","","",""
"","","","","","html-keyboard-response","346","496278","0.0-19.0-0.0-0.5","f5g77f1jw0","","f5g77f1jw0","""2024-11-12T18:13:26.669Z""","null","+","null","","","","","","",""
"","","","","","image-keyboard-response","347","498421","0.0-19.0-0.0-1.5","f5g77f1jw0","","f5g77f1jw0","""2024-11-12T18:13:26.669Z""","2139","materials/imgs/D20.png","arrowright","","[""materials/imgs/D103.png"",""materials/imgs/D52.png""]","false","random","","",""
"","","","","","html-keyboard-response","348","498923","0.0-19.0-0.0-0.6","f5g77f1jw0","","f5g77f1jw0","""2024-11-12T18:13:26.669Z""","null","+","null","","","","","","",""
"","","","","","image-keyboard-response","349","501200","0.0-19.0-0.0-1.6","f5g77f1jw0","","f5g77f1jw0","""2024-11-12T18:13:26.669Z""","2274","materials/imgs/D84.png","arrowright","","[""materials/imgs/D95.png"",""materials/imgs/D102.png""]","false","random","","",""
"","","","","","html-keyboard-response","350","501715","0.0-19.0-1.0-0.0","f5g77f1jw0","","f5g77f1jw0","""2024-11-12T18:13:26.669Z""","null","+","null","","","","","","",""
"","","","","","image-keyboard-response","351","502493","0.0-19.0-1.0-1.0","f5g77f1jw0","","f5g77f1jw0","""2024-11-12T18:13:26.669Z""","776","materials/imgs/D78.png","arrowright","","[""materials/imgs/D76.png"",""materials/imgs/D78.png""]","","check","materials/imgs/D78.png","1","true"
"","","","","","html-keyboard-response","352","503006","0.0-19.0-2.0-0.0","f5g77f1jw0","","f5g77f1jw0","""2024-11-12T18:13:26.669Z""","null","+","null","","","","","","",""
"","","","","","image-keyboard-response","353","504520","0.0-19.0-2.0-1.0","f5g77f1jw0","","f5g77f1jw0","""2024-11-12T18:13:26.669Z""","1512","materials/imgs/D83.png","arrowleft","","[""materials/imgs/D24.png"",""materials/imgs/D8.png""]","false","validation","","",""
"","","","","","html-keyboard-response","354","505031","0.0-19.0-2.0-0.1","f5g77f1jw0","","f5g77f1jw0","""2024-11-12T18:13:26.669Z""","null","+","null","","","","","","",""
"","","","","","image-keyboard-response","355","506341","0.0-19.0-2.0-1.1","f5g77f1jw0","","f5g77f1jw0","""2024-11-12T18:13:26.669Z""","1306","materials/imgs/D111.png","arrowleft","","[""materials/imgs/D82.png"",""materials/imgs/D95.png""]","false","validation","","",""
"","","","","","html-keyboard-response","356","506852","0.0-19.0-0.1-0.7","f5g77f1jw0","","f5g77f1jw0","""2024-11-12T18:13:26.669Z""","null","+","null","","","","","","",""
"","","","","","image-keyboard-response","357","510157","0.0-19.0-0.1-1.7","f5g77f1jw0","","f5g77f1jw0","""2024-11-12T18:13:26.669Z""","3302","materials/imgs/D68.png","arrowright","","[""materials/imgs/D8.png"",""materials/imgs/D102.png""]","false","random","","",""
"","","","","","html-keyboard-response","358","510664","0.0-19.0-0.1-0.8","f5g77f1jw0","","f5g77f1jw0","""2024-11-12T18:13:26.669Z""","null","+","null","","","","","","",""
"","","","","","image-keyboard-response","359","512649","0.0-19.0-0.1-1.8","f5g77f1jw0","","f5g77f1jw0","""2024-11-12T18:13:26.669Z""","1982","materials/imgs/D48.png","arrowleft","","[""materials/imgs/D34.png"",""materials/imgs/D1.png""]","false","random","","",""
"","","","","","html-keyboard-response","360","513151","0.0-19.0-0.1-0.9","f5g77f1jw0","","f5g77f1jw0","""2024-11-12T18:13:26.669Z""","null","+","null","","","","","","",""
"","","","","","image-keyboard-response","361","514267","0.0-19.0-0.1-1.9","f5g77f1jw0","","f5g77f1jw0","""2024-11-12T18:13:26.669Z""","1115","materials/imgs/D80.png","arrowright","","[""materials/imgs/D49.png"",""materials/imgs/D85.png""]","false","random","","",""
"","","","","","html-keyboard-response","362","514777","0.0-19.0-0.1-0.10","f5g77f1jw0","","f5g77f1jw0","""2024-11-12T18:13:26.669Z""","null","+","null","","","","","","",""
"","","","","","image-keyboard-response","363","516909","0.0-19.0-0.1-1.10","f5g77f1jw0","","f5g77f1jw0","""2024-11-12T18:13:26.669Z""","2131","materials/imgs/D80.png","arrowright","","[""materials/imgs/D103.png"",""materials/imgs/D111.png""]","false","random","","",""
"","","","","","html-keyboard-response","364","517413","0.0-19.0-0.1-0.11","f5g77f1jw0","","f5g77f1jw0","""2024-11-12T18:13:26.669Z""","null","+","null","","","","","","",""
"","","","","","image-keyboard-response","365","518458","0.0-19.0-0.1-1.11","f5g77f1jw0","","f5g77f1jw0","""2024-11-12T18:13:26.669Z""","1043","materials/imgs/D75.png","arrowleft","","[""materials/imgs/D35.png"",""materials/imgs/D66.png""]","false","random","","",""
"","","","","","html-keyboard-response","366","518973","0.0-19.0-0.1-0.12","f5g77f1jw0","","f5g77f1jw0","""2024-11-12T18:13:26.669Z""","null","+","null","","","","","","",""
"","","","","","image-keyboard-response","367","521076","0.0-19.0-0.1-1.12","f5g77f1jw0","","f5g77f1jw0","""2024-11-12T18:13:26.669Z""","2102","materials/imgs/D96.png","arrowright","","[""materials/imgs/D87.png"",""materials/imgs/D92.png""]","false","random","","",""
"","","","","","html-keyboard-response","368","521590","0.0-19.0-0.1-0.13","f5g77f1jw0","","f5g77f1jw0","""2024-11-12T18:13:26.669Z""","null","+","null","","","","","","",""
"","","","","","image-keyboard-response","369","523028","0.0-19.0-0.1-1.13","f5g77f1jw0","","f5g77f1jw0","""2024-11-12T18:13:26.669Z""","1435","materials/imgs/D46.png","arrowright","","[""materials/imgs/D66.png"",""materials/imgs/D102.png""]","false","random","","",""
"","","","","","html-keyboard-response","370","523539","0.0-19.0-1.1-0.1","f5g77f1jw0","","f5g77f1jw0","""2024-11-12T18:13:26.669Z""","null","+","null","","","","","","",""
"","","","","","image-keyboard-response","371","525042","0.0-19.0-1.1-1.1","f5g77f1jw0","","f5g77f1jw0","""2024-11-12T18:13:26.669Z""","1500","materials/imgs/D106.png","arrowleft","","[""materials/imgs/D106.png"",""materials/imgs/D101.png""]","","check","materials/imgs/D106.png","0","true"
"","","","","","html-keyboard-response","372","525548","0.0-19.0-2.1-0.2","f5g77f1jw0","","f5g77f1jw0","""2024-11-12T18:13:26.669Z""","null","+","null","","","","","","",""
"","","","","","image-keyboard-response","373","528947","0.0-19.0-2.1-1.2","f5g77f1jw0","","f5g77f1jw0","""2024-11-12T18:13:26.669Z""","3396","materials/imgs/D18.png","arrowright","","[""materials/imgs/D32.png"",""materials/imgs/D57.png""]","false","validation","","",""
"","","","","","html-keyboard-response","374","529459","0.0-19.0-2.1-0.3","f5g77f1jw0","","f5g77f1jw0","""2024-11-12T18:13:26.669Z""","null","+","null","","","","","","",""
"","","","","","image-keyboard-response","375","531732","0.0-19.0-2.1-1.3","f5g77f1jw0","","f5g77f1jw0","""2024-11-12T18:13:26.669Z""","2271","materials/imgs/D95.png","arrowright","","[""materials/imgs/D36.png"",""materials/imgs/D4.png""]","false","validation","","",""
"","","","","","html-keyboard-response","376","532247","0.0-19.0-0.2-0.14","f5g77f1jw0","","f5g77f1jw0","""2024-11-12T18:13:26.669Z""","null","+","null","","","","","","",""
"","","","","","image-keyboard-response","377","533597","0.0-19.0-0.2-1.14","f5g77f1jw0","","f5g77f1jw0","""2024-11-12T18:13:26.669Z""","1347","materials/imgs/D68.png","arrowleft","","[""materials/imgs/D81.png"",""materials/imgs/D1.png""]","false","random","","",""
"","","","","","html-keyboard-response","378","534113","0.0-19.0-0.2-0.15","f5g77f1jw0","","f5g77f1jw0","""2024-11-12T18:13:26.669Z""","null","+","null","","","","","","",""
"","","","","","image-keyboard-response","379","535831","0.0-19.0-0.2-1.15","f5g77f1jw0","","f5g77f1jw0","""2024-11-12T18:13:26.669Z""","1715","materials/imgs/D48.png","arrowleft","","[""materials/imgs/D3.png"",""materials/imgs/D102.png""]","false","random","","",""
"","","","","","html-keyboard-response","380","536344","0.0-19.0-0.2-0.16","f5g77f1jw0","","f5g77f1jw0","""2024-11-12T18:13:26.669Z""","null","+","null","","","","","","",""
"","","","","","image-keyboard-response","381","537995","0.0-19.0-0.2-1.16","f5g77f1jw0","","f5g77f1jw0","""2024-11-12T18:13:26.669Z""","1646","materials/imgs/D53.png","arrowright","","[""materials/imgs/D83.png"",""materials/imgs/D81.png""]","false","random","","",""
"","","","","","html-keyboard-response","382","538500","0.0-19.0-0.2-0.17","f5g77f1jw0","","f5g77f1jw0","""2024-11-12T18:13:26.669Z""","null","+","null","","","","","","",""
"","","","","","image-keyboard-response","383","539623","0.0-19.0-0.2-1.17","f5g77f1jw0","","f5g77f1jw0","""2024-11-12T18:13:26.669Z""","1120","materials/imgs/D106.png","arrowleft","","[""materials/imgs/D17.png"",""materials/imgs/D1.png""]","false","random","","",""
"","","","","","html-keyboard-response","384","540132","0.0-19.0-0.2-0.18","f5g77f1jw0","","f5g77f1jw0","""2024-11-12T18:13:26.669Z""","null","+","null","","","","","","",""
"","","","","","image-keyboard-response","385","541479","0.0-19.0-0.2-1.18","f5g77f1jw0","","f5g77f1jw0","""2024-11-12T18:13:26.669Z""","1344","materials/imgs/D94.png","arrowright","","[""materials/imgs/D37.png"",""materials/imgs/D26.png""]","false","random","","",""
"","","","","","html-keyboard-response","386","541980","0.0-19.0-0.2-0.19","f5g77f1jw0","","f5g77f1jw0","""2024-11-12T18:13:26.669Z""","null","+","null","","","","","","",""
"","","","","","image-keyboard-response","387","545814","0.0-19.0-0.2-1.19","f5g77f1jw0","","f5g77f1jw0","""2024-11-12T18:13:26.669Z""","3832","materials/imgs/D87.png","arrowright","","[""materials/imgs/D34.png"",""materials/imgs/D22.png""]","false","random","","",""
"","","","","","html-keyboard-response","388","546327","0.0-19.0-0.2-0.20","f5g77f1jw0","","f5g77f1jw0","""2024-11-12T18:13:26.669Z""","null","+","null","","","","","","",""
"","","","","","image-keyboard-response","389","547912","0.0-19.0-0.2-1.20","f5g77f1jw0","","f5g77f1jw0","""2024-11-12T18:13:26.669Z""","1581","materials/imgs/D6.png","arrowright","","[""materials/imgs/D92.png"",""materials/imgs/D52.png""]","false","random","","",""
"","","","","","html-keyboard-response","390","548422","0.0-19.0-1.2-0.2","f5g77f1jw0","","f5g77f1jw0","""2024-11-12T18:13:26.669Z""","null","+","null","","","","","","",""
"","","","","","image-keyboard-response","391","549259","0.0-19.0-1.2-1.2","f5g77f1jw0","","f5g77f1jw0","""2024-11-12T18:13:26.669Z""","835","materials/imgs/D76.png","arrowleft","","[""materials/imgs/D76.png"",""materials/imgs/D78.png""]","","check","materials/imgs/D76.png","0","true"
"","","","","","html-keyboard-response","392","549764","0.0-19.0-2.2-0.4","f5g77f1jw0","","f5g77f1jw0","""2024-11-12T18:13:26.669Z""","null","+","null","","","","","","",""
"","","","","","image-keyboard-response","393","552725","0.0-19.0-2.2-1.4","f5g77f1jw0","","f5g77f1jw0","""2024-11-12T18:13:26.669Z""","2958","materials/imgs/D68.png","arrowright","","[""materials/imgs/D96.png"",""materials/imgs/D48.png""]","false","validation","","",""
"","","","","","html-keyboard-response","394","553230","0.0-19.0-2.2-0.5","f5g77f1jw0","","f5g77f1jw0","""2024-11-12T18:13:26.669Z""","null","+","null","","","","","","",""
"","","","","","image-keyboard-response","395","555668","0.0-19.0-2.2-1.5","f5g77f1jw0","","f5g77f1jw0","""2024-11-12T18:13:26.669Z""","2439","materials/imgs/D101.png","arrowright","","[""materials/imgs/D76.png"",""materials/imgs/D47.png""]","false","validation","","",""
"","","","","","html-keyboard-response","396","556175","0.0-19.0-0.3-0.21","f5g77f1jw0","","f5g77f1jw0","""2024-11-12T18:13:26.669Z""","null","+","null","","","","","","",""
"","","","","","image-keyboard-response","397","556980","0.0-19.0-0.3-1.21","f5g77f1jw0","","f5g77f1jw0","""2024-11-12T18:13:26.669Z""","802","materials/imgs/D92.png","arrowright","","[""materials/imgs/D56.png"",""materials/imgs/D84.png""]","false","random","","",""
"","","","","","html-keyboard-response","398","557489","0.0-19.0-0.3-0.22","f5g77f1jw0","","f5g77f1jw0","""2024-11-12T18:13:26.669Z""","null","+","null","","","","","","",""
"","","","","","image-keyboard-response","399","558512","0.0-19.0-0.3-1.22","f5g77f1jw0","","f5g77f1jw0","""2024-11-12T18:13:26.669Z""","1021","materials/imgs/D81.png","arrowleft","","[""materials/imgs/D80.png"",""materials/imgs/D95.png""]","false","random","","",""
"","","","","","html-keyboard-response","400","559026","0.0-19.0-0.3-0.23","f5g77f1jw0","","f5g77f1jw0","""2024-11-12T18:13:26.669Z""","null","+","null","","","","","","",""
"","","","","","image-keyboard-response","401","560796","0.0-19.0-0.3-1.23","f5g77f1jw0","","f5g77f1jw0","""2024-11-12T18:13:26.669Z""","1767","materials/imgs/D32.png","arrowright","","[""materials/imgs/D6.png"",""materials/imgs/D77.png""]","false","random","","",""
"","","","","","html-keyboard-response","402","561306","0.0-19.0-0.3-0.24","f5g77f1jw0","","f5g77f1jw0","""2024-11-12T18:13:26.669Z""","null","+","null","","","","","","",""
"","","","","","image-keyboard-response","403","562146","0.0-19.0-0.3-1.24","f5g77f1jw0","","f5g77f1jw0","""2024-11-12T18:13:26.669Z""","837","materials/imgs/D6.png","arrowleft","","[""materials/imgs/D84.png"",""materials/imgs/D20.png""]","false","random","","",""
"","","","","","html-keyboard-response","404","562660","0.0-19.0-0.3-0.25","f5g77f1jw0","","f5g77f1jw0","""2024-11-12T18:13:26.669Z""","null","+","null","","","","","","",""
"","","","","","image-keyboard-response","405","564069","0.0-19.0-0.3-1.25","f5g77f1jw0","","f5g77f1jw0","""2024-11-12T18:13:26.669Z""","1407","materials/imgs/D18.png","arrowright","","[""materials/imgs/D105.png"",""materials/imgs/D81.png""]","false","random","","",""
"","","","","","html-keyboard-response","406","564573","0.0-19.0-0.3-0.26","f5g77f1jw0","","f5g77f1jw0","""2024-11-12T18:13:26.669Z""","null","+","null","","","","","","",""
"","","","","","image-keyboard-response","407","565719","0.0-19.0-0.3-1.26","f5g77f1jw0","","f5g77f1jw0","""2024-11-12T18:13:26.669Z""","1141","materials/imgs/D79.png","arrowright","","[""materials/imgs/D55.png"",""materials/imgs/D77.png""]","false","random","","",""
"","","","","","html-keyboard-response","408","566222","0.0-19.0-0.3-0.27","f5g77f1jw0","","f5g77f1jw0","""2024-11-12T18:13:26.669Z""","null","+","null","","","","","","",""
"","","","","","image-keyboard-response","409","567460","0.0-19.0-0.3-1.27","f5g77f1jw0","","f5g77f1jw0","""2024-11-12T18:13:26.669Z""","1233","materials/imgs/D64.png","arrowright","","[""materials/imgs/D22.png"",""materials/imgs/D95.png""]","false","random","","",""
"","","","","","html-keyboard-response","410","567971","0.0-19.0-1.3-0.3","f5g77f1jw0","","f5g77f1jw0","""2024-11-12T18:13:26.669Z""","null","+","null","","","","","","",""
"","","","","","image-keyboard-response","411","568850","0.0-19.0-1.3-1.3","f5g77f1jw0","","f5g77f1jw0","""2024-11-12T18:13:26.669Z""","876","materials/imgs/D78.png","arrowright","","[""materials/imgs/D76.png"",""materials/imgs/D78.png""]","","check","materials/imgs/D78.png","1","true"
"","","","","","html-keyboard-response","412","569353","0.0-19.0-2.3-0.6","f5g77f1jw0","","f5g77f1jw0","""2024-11-12T18:13:26.669Z""","null","+","null","","","","","","",""
"","","","","","image-keyboard-response","413","570659","0.0-19.0-2.3-1.6","f5g77f1jw0","","f5g77f1jw0","""2024-11-12T18:13:26.669Z""","1304","materials/imgs/D52.png","arrowright","","[""materials/imgs/D9.png"",""materials/imgs/D19.png""]","false","validation","","",""
"","","","","","html-keyboard-response","414","571160","0.0-19.0-2.3-0.7","f5g77f1jw0","","f5g77f1jw0","""2024-11-12T18:13:26.669Z""","null","+","null","","","","","","",""
"","","","","","image-keyboard-response","415","572267","0.0-19.0-2.3-1.7","f5g77f1jw0","","f5g77f1jw0","""2024-11-12T18:13:26.669Z""","1085","materials/imgs/D83.png","arrowleft","","[""materials/imgs/D24.png"",""materials/imgs/D8.png""]","false","validation","","",""
"","","","","","html-keyboard-response","416","572770","0.0-19.0-0.4-0.28","f5g77f1jw0","","f5g77f1jw0","""2024-11-12T18:13:26.669Z""","null","+","null","","","","","","",""
"","","","","","image-keyboard-response","417","573633","0.0-19.0-0.4-1.28","f5g77f1jw0","","f5g77f1jw0","""2024-11-12T18:13:26.669Z""","859","materials/imgs/D52.png","arrowleft","","[""materials/imgs/D57.png"",""materials/imgs/D105.png""]","false","random","","",""
"","","","","","html-keyboard-response","418","574146","0.0-19.0-0.4-0.29","f5g77f1jw0","","f5g77f1jw0","""2024-11-12T18:13:26.669Z""","null","+","null","","","","","","",""
"","","","","","image-keyboard-response","419","575507","0.0-19.0-0.4-1.29","f5g77f1jw0","","f5g77f1jw0","""2024-11-12T18:13:26.669Z""","1359","materials/imgs/D84.png","arrowright","","[""materials/imgs/D65.png"",""materials/imgs/D20.png""]","false","random","","",""
"","","","","","html-keyboard-response","420","576010","0.0-19.0-0.4-0.30","f5g77f1jw0","","f5g77f1jw0","""2024-11-12T18:13:26.669Z""","null","+","null","","","","","","",""
"","","","","","image-keyboard-response","421","576785","0.0-19.0-0.4-1.30","f5g77f1jw0","","f5g77f1jw0","""2024-11-12T18:13:26.669Z""","771","materials/imgs/D3.png","arrowleft","","[""materials/imgs/D6.png"",""materials/imgs/D1.png""]","false","random","","",""
"","","","","","html-keyboard-response","422","577296","0.0-19.0-0.4-0.31","f5g77f1jw0","","f5g77f1jw0","""2024-11-12T18:13:26.669Z""","null","+","null","","","","","","",""
"","","","","","image-keyboard-response","423","578818","0.0-19.0-0.4-1.31","f5g77f1jw0","","f5g77f1jw0","""2024-11-12T18:13:26.669Z""","1519","materials/imgs/D16.png","arrowright","","[""materials/imgs/D24.png"",""materials/imgs/D76.png""]","false","random","","",""
"","","","","","html-keyboard-response","424","579335","0.0-19.0-0.4-0.32","f5g77f1jw0","","f5g77f1jw0","""2024-11-12T18:13:26.669Z""","null","+","null","","","","","","",""
"","","","","","image-keyboard-response","425","581057","0.0-19.0-0.4-1.32","f5g77f1jw0","","f5g77f1jw0","""2024-11-12T18:13:26.669Z""","1719","materials/imgs/D48.png","arrowright","","[""materials/imgs/D24.png"",""materials/imgs/D52.png""]","false","random","","",""
"","","","","","html-keyboard-response","426","581564","0.0-19.0-0.4-0.33","f5g77f1jw0","","f5g77f1jw0","""2024-11-12T18:13:26.669Z""","null","+","null","","","","","","",""
"","","","","","image-keyboard-response","427","582091","0.0-19.0-0.4-1.33","f5g77f1jw0","","f5g77f1jw0","""2024-11-12T18:13:26.669Z""","524","materials/imgs/D17.png","arrowright","","[""materials/imgs/D9.png"",""materials/imgs/D14.png""]","false","random","","",""
"","","","","","html-keyboard-response","428","582606","0.0-19.0-0.4-0.34","f5g77f1jw0","","f5g77f1jw0","""2024-11-12T18:13:26.669Z""","null","+","null","","","","","","",""
"","","","","","image-keyboard-response","429","584277","0.0-19.0-0.4-1.34","f5g77f1jw0","","f5g77f1jw0","""2024-11-12T18:13:26.669Z""","1667","materials/imgs/D18.png","arrowright","","[""materials/imgs/D105.png"",""materials/imgs/D79.png""]","false","random","","",""
"","","","","","html-keyboard-response","430","584780","0.0-19.0-1.4-0.4","f5g77f1jw0","","f5g77f1jw0","""2024-11-12T18:13:26.669Z""","null","+","null","","","","","","",""
"","","","","","image-keyboard-response","431","585361","0.0-19.0-1.4-1.4","f5g77f1jw0","","f5g77f1jw0","""2024-11-12T18:13:26.669Z""","578","materials/imgs/D26.png","arrowleft","","[""materials/imgs/D26.png"",""materials/imgs/D46.png""]","","check","materials/imgs/D26.png","0","true"
"","","","","","html-keyboard-response","432","585882","0.0-19.0-2.4-0.8","f5g77f1jw0","","f5g77f1jw0","""2024-11-12T18:13:26.669Z""","null","+","null","","","","","","",""
"","","","","","image-keyboard-response","433","587219","0.0-19.0-2.4-1.8","f5g77f1jw0","","f5g77f1jw0","""2024-11-12T18:13:26.669Z""","1334","materials/imgs/D68.png","arrowleft","","[""materials/imgs/D96.png"",""materials/imgs/D48.png""]","false","validation","","",""
"","","","","","html-keyboard-response","434","587735","0.0-19.0-2.4-0.9","f5g77f1jw0","","f5g77f1jw0","""2024-11-12T18:13:26.669Z""","null","+","null","","","","","","",""
"","","","","","image-keyboard-response","435","589063","0.0-19.0-2.4-1.9","f5g77f1jw0","","f5g77f1jw0","""2024-11-12T18:13:26.669Z""","1325","materials/imgs/D3.png","arrowleft","","[""materials/imgs/D79.png"",""materials/imgs/D48.png""]","false","validation","","",""
