"success","timeout","failed_images","failed_audio","failed_video","trial_type","trial_index","time_elapsed","internal_node_id","subject_id","sona_id","subjectID","dateInfo","rt","stimulus","response","question_order","choices","speedy","sampleAlg","selected_image","selected_index","correct"
"true","false","[]","[]","[]","preload","0","573","0.0-0.0","ghbl9s0dgx","","ghbl9s0dgx","""2024-11-18T20:31:30.370Z""","","","","","","","","","",""
"true","","","","","fullscreen","1","1957515","0.0-1.0","ghbl9s0dgx","","ghbl9s0dgx","""2024-11-18T20:31:30.370Z""","","","","","","","","","",""
"","","","","","html-keyboard-response","2","1957531","0.0-2.0","ghbl9s0dgx","","ghbl9s0dgx","""2024-11-18T20:31:30.370Z""","null","","null","","","","","","",""
"","","","","","html-button-response","3","1963981","0.0-3.0","ghbl9s0dgx","","ghbl9s0dgx","""2024-11-18T20:31:30.370Z""","6447","<div style='text-align:center; font-size:20px; line-height:25px; width: 1200px;'>
                Welcome to our experiment! <br>
                <br>At the bottom of this screen, you will see a button that says 'Begin Experiment.
                <br>Please only click that button when you are ready to complete the 25 minute experiment in one sitting. <br>
                <br> Once you click that button, it will not be possible to restart the experiment. <br><br>","0","","","","","","",""
"true","","","","","fullscreen","4","1967823","0.0-4.0","ghbl9s0dgx","","ghbl9s0dgx","""2024-11-18T20:31:30.370Z""","","","","","","","","","",""
"","","","","","survey-multi-select","5","1972170","0.0-5.0","ghbl9s0dgx","","ghbl9s0dgx","""2024-11-18T20:31:30.370Z""","4341","","{""Consent"":[""<strong>I consent</strong>""]}","[0]","","","","","",""
"","","","","","html-button-response","6","1973565","0.0-6.0","ghbl9s0dgx","","ghbl9s0dgx","""2024-11-18T20:31:30.370Z""","1392","Welcome! <p> This experiment involves two parts: demographic information, followed by the experimental task.<p> It will take about 25 minutes to complete both parts.","0","","","","","","",""
"","","","","","survey-text","7","1981209","0.0-7.0","ghbl9s0dgx","","ghbl9s0dgx","""2024-11-18T20:31:30.370Z""","7630","","{""Age"":""18"",""Gender"":""female"",""Race/ethnicity"":""White""}","","","","","","",""
"","","","","","html-button-response","8","1983060","0.0-8.0","ghbl9s0dgx","","ghbl9s0dgx","""2024-11-18T20:31:30.370Z""","1844","<div style='text-align: center;'>
      <p>In each trial of this task, you will see three texture images: one target item on top, and two choices beneath the target item.</p>
      <p><strong>Please select the item that is most like the target item.</strong></p>
      <p>To select the option on the <strong>LEFT</strong>, press the <strong>LEFT ARROW</strong> key. 
      To select the option on the <strong>RIGHT</strong>, press the <strong>RIGHT ARROW</strong> key.</p>
                  <!-- Target Image at the Top -->
      <div style='margin: 20px;'>
        <img src='materials/imgs/instruction_images/InstructionImg1D78.png' alt='Target Image' style='width:200px; height:auto;' />
        <p><em>Target Image</em></p>
      </div>

      <!-- Two Choice Images Below -->
      <div style='display: flex; justify-content: center;'>
        <div style='margin-right: 50px;'>
          <img src='materials/imgs/instruction_images/InstructionImg2D34.png' alt='Choice Image 1' style='width:150px; height:auto;' />
          <p><em><strong>LEFT ARROW</strong></em></p>
        </div>
        <div style='margin-left: 50px;'>
          <img src='materials/imgs/instruction_images/InstructionImg3D80.png' alt='Choice Image 2' style='width:150px; height:auto;' />
          <p><em><strong>RIGHT ARROW</strong></em></p>
        </div>
      </div>
    </div>

      <p>When you are ready to proceed, please click 'Continue' to begin practice.</p>","0","","","","","","",""
"","","","","","html-keyboard-response","9","1985574","0.0-9.0","ghbl9s0dgx","","ghbl9s0dgx","""2024-11-18T20:31:30.370Z""","null","+","null","","","","","","",""
"","","","","","html-keyboard-response","10","1986083","0.0-10.0-0.0-0.0","ghbl9s0dgx","","ghbl9s0dgx","""2024-11-18T20:31:30.370Z""","null","+","null","","","","","","",""
"","","","","","image-keyboard-response","11","1991093","0.0-10.0-0.0-1.0","ghbl9s0dgx","","ghbl9s0dgx","""2024-11-18T20:31:30.370Z""","5006","materials/imgs/D21.png","arrowleft","","[""materials/imgs/D9.png"",""materials/imgs/D18.png""]","false","random","","",""
"","","","","","html-keyboard-response","12","1991598","0.0-10.0-0.0-0.1","ghbl9s0dgx","","ghbl9s0dgx","""2024-11-18T20:31:30.370Z""","null","+","null","","","","","","",""
"","","","","","image-keyboard-response","13","1992717","0.0-10.0-0.0-1.1","ghbl9s0dgx","","ghbl9s0dgx","""2024-11-18T20:31:30.370Z""","1116","materials/imgs/D79.png","arrowleft","","[""materials/imgs/D85.png"",""materials/imgs/D64.png""]","false","random","","",""
"","","","","","html-keyboard-response","14","1993231","0.0-10.0-0.0-0.2","ghbl9s0dgx","","ghbl9s0dgx","""2024-11-18T20:31:30.370Z""","null","+","null","","","","","","",""
"","","","","","image-keyboard-response","15","1994125","0.0-10.0-0.0-1.2","ghbl9s0dgx","","ghbl9s0dgx","""2024-11-18T20:31:30.370Z""","891","materials/imgs/D1.png","arrowright","","[""materials/imgs/D32.png"",""materials/imgs/D64.png""]","false","random","","",""
"","","","","","html-keyboard-response","16","1994640","0.0-10.0-0.0-0.3","ghbl9s0dgx","","ghbl9s0dgx","""2024-11-18T20:31:30.370Z""","null","+","null","","","","","","",""
"","","","","","image-keyboard-response","17","1995603","0.0-10.0-0.0-1.3","ghbl9s0dgx","","ghbl9s0dgx","""2024-11-18T20:31:30.370Z""","960","materials/imgs/D32.png","arrowleft","","[""materials/imgs/D66.png"",""materials/imgs/D96.png""]","false","random","","",""
"","","","","","html-keyboard-response","18","1996110","0.0-10.0-0.0-0.4","ghbl9s0dgx","","ghbl9s0dgx","""2024-11-18T20:31:30.370Z""","null","+","null","","","","","","",""
"","","","","","image-keyboard-response","19","1997813","0.0-10.0-0.0-1.4","ghbl9s0dgx","","ghbl9s0dgx","""2024-11-18T20:31:30.370Z""","1700","materials/imgs/D20.png","arrowleft","","[""materials/imgs/D105.png"",""materials/imgs/D22.png""]","false","random","","",""
"","","","","","html-keyboard-response","20","1998319","0.0-10.0-0.0-0.5","ghbl9s0dgx","","ghbl9s0dgx","""2024-11-18T20:31:30.370Z""","null","+","null","","","","","","",""
"","","","","","image-keyboard-response","21","1999870","0.0-10.0-0.0-1.5","ghbl9s0dgx","","ghbl9s0dgx","""2024-11-18T20:31:30.370Z""","1548","materials/imgs/D111.png","arrowright","","[""materials/imgs/D14.png"",""materials/imgs/D65.png""]","false","random","","",""
"","","","","","html-keyboard-response","22","2000379","0.0-10.0-0.0-0.6","ghbl9s0dgx","","ghbl9s0dgx","""2024-11-18T20:31:30.370Z""","null","+","null","","","","","","",""
"","","","","","image-keyboard-response","23","2003360","0.0-10.0-0.0-1.6","ghbl9s0dgx","","ghbl9s0dgx","""2024-11-18T20:31:30.370Z""","2977","materials/imgs/D80.png","arrowright","","[""materials/imgs/D51.png"",""materials/imgs/D75.png""]","false","random","","",""
"","","","","","html-keyboard-response","24","2003866","0.0-10.0-0.0-0.7","ghbl9s0dgx","","ghbl9s0dgx","""2024-11-18T20:31:30.370Z""","null","+","null","","","","","","",""
"","","","","","image-keyboard-response","25","2004782","0.0-10.0-0.0-1.7","ghbl9s0dgx","","ghbl9s0dgx","""2024-11-18T20:31:30.370Z""","913","materials/imgs/D102.png","arrowright","","[""materials/imgs/D19.png"",""materials/imgs/D66.png""]","false","random","","",""
"","","","","","html-keyboard-response","26","2005290","0.0-10.0-0.0-0.8","ghbl9s0dgx","","ghbl9s0dgx","""2024-11-18T20:31:30.370Z""","null","+","null","","","","","","",""
"","","","","","image-keyboard-response","27","2006652","0.0-10.0-0.0-1.8","ghbl9s0dgx","","ghbl9s0dgx","""2024-11-18T20:31:30.370Z""","1358","materials/imgs/D19.png","arrowright","","[""materials/imgs/D79.png"",""materials/imgs/D14.png""]","false","random","","",""
"","","","","","html-keyboard-response","28","2007156","0.0-10.0-0.0-0.9","ghbl9s0dgx","","ghbl9s0dgx","""2024-11-18T20:31:30.370Z""","null","+","null","","","","","","",""
"","","","","","image-keyboard-response","29","2009006","0.0-10.0-0.0-1.9","ghbl9s0dgx","","ghbl9s0dgx","""2024-11-18T20:31:30.370Z""","1848","materials/imgs/D95.png","arrowleft","","[""materials/imgs/D14.png"",""materials/imgs/D85.png""]","false","random","","",""
"","","","","","html-button-response","30","2014352","0.0-11.0","ghbl9s0dgx","","ghbl9s0dgx","""2024-11-18T20:31:30.370Z""","5344","<p>Great job!</p>
      <p>You are now ready to begin the experiment.</p>
      <p>There will be around 200 trials. You will have opportunities to take breaks at three stages of the trials.</p>
      <p>When you are ready to begin please click 'Continue'.</p>","0","","","","","","",""
"","","","","","html-keyboard-response","31","2016864","0.0-12.0","ghbl9s0dgx","","ghbl9s0dgx","""2024-11-18T20:31:30.370Z""","null","+","null","","","","","","",""
"","","","","","html-keyboard-response","32","2017376","0.0-13.0-0.0-0.0","ghbl9s0dgx","","ghbl9s0dgx","""2024-11-18T20:31:30.370Z""","null","+","null","","","","","","",""
"","","","","","image-keyboard-response","33","2018915","0.0-13.0-0.0-1.0","ghbl9s0dgx","","ghbl9s0dgx","""2024-11-18T20:31:30.370Z""","1536","materials/imgs/D24.png","arrowright","","[""materials/imgs/D25.png"",""materials/imgs/D77.png""]","false","random","","",""
"","","","","","html-keyboard-response","34","2019424","0.0-13.0-0.0-0.1","ghbl9s0dgx","","ghbl9s0dgx","""2024-11-18T20:31:30.370Z""","null","+","null","","","","","","",""
"","","","","","image-keyboard-response","35","2021641","0.0-13.0-0.0-1.1","ghbl9s0dgx","","ghbl9s0dgx","""2024-11-18T20:31:30.370Z""","2214","materials/imgs/D9.png","arrowleft","","[""materials/imgs/D19.png"",""materials/imgs/D87.png""]","false","random","","",""
"","","","","","html-keyboard-response","36","2022144","0.0-13.0-0.0-0.2","ghbl9s0dgx","","ghbl9s0dgx","""2024-11-18T20:31:30.370Z""","null","+","null","","","","","","",""
"","","","","","image-keyboard-response","37","2023837","0.0-13.0-0.0-1.2","ghbl9s0dgx","","ghbl9s0dgx","""2024-11-18T20:31:30.370Z""","1690","materials/imgs/D19.png","arrowleft","","[""materials/imgs/D21.png"",""materials/imgs/D11.png""]","false","random","","",""
"","","","","","html-keyboard-response","38","2024352","0.0-13.0-0.0-0.3","ghbl9s0dgx","","ghbl9s0dgx","""2024-11-18T20:31:30.370Z""","null","+","null","","","","","","",""
"","","","","","image-keyboard-response","39","2025352","0.0-13.0-0.0-1.3","ghbl9s0dgx","","ghbl9s0dgx","""2024-11-18T20:31:30.370Z""","997","materials/imgs/D77.png","arrowleft","","[""materials/imgs/D53.png"",""materials/imgs/D1.png""]","false","random","","",""
"","","","","","html-keyboard-response","40","2025858","0.0-13.0-0.0-0.4","ghbl9s0dgx","","ghbl9s0dgx","""2024-11-18T20:31:30.370Z""","null","+","null","","","","","","",""
"","","","","","image-keyboard-response","41","2026579","0.0-13.0-0.0-1.4","ghbl9s0dgx","","ghbl9s0dgx","""2024-11-18T20:31:30.370Z""","718","materials/imgs/D78.png","arrowright","","[""materials/imgs/D84.png"",""materials/imgs/D106.png""]","false","random","","",""
"","","","","","html-keyboard-response","42","2027092","0.0-13.0-0.0-0.5","ghbl9s0dgx","","ghbl9s0dgx","""2024-11-18T20:31:30.370Z""","null","+","null","","","","","","",""
"","","","","","image-keyboard-response","43","2028778","0.0-13.0-0.0-1.5","ghbl9s0dgx","","ghbl9s0dgx","""2024-11-18T20:31:30.370Z""","1683","materials/imgs/D24.png","arrowright","","[""materials/imgs/D36.png"",""materials/imgs/D29.png""]","false","random","","",""
"","","","","","html-keyboard-response","44","2029285","0.0-13.0-0.0-0.6","ghbl9s0dgx","","ghbl9s0dgx","""2024-11-18T20:31:30.370Z""","null","+","null","","","","","","",""
"","","","","","image-keyboard-response","45","2030550","0.0-13.0-0.0-1.6","ghbl9s0dgx","","ghbl9s0dgx","""2024-11-18T20:31:30.370Z""","1262","materials/imgs/D74.png","arrowright","","[""materials/imgs/D51.png"",""materials/imgs/D52.png""]","false","random","","",""
"","","","","","html-keyboard-response","46","2031061","0.0-13.0-1.0-0.0","ghbl9s0dgx","","ghbl9s0dgx","""2024-11-18T20:31:30.370Z""","null","+","null","","","","","","",""
"","","","","","image-keyboard-response","47","2031684","0.0-13.0-1.0-1.0","ghbl9s0dgx","","ghbl9s0dgx","""2024-11-18T20:31:30.370Z""","620","materials/imgs/D46.png","arrowleft","","[""materials/imgs/D46.png"",""materials/imgs/D26.png""]","","check","materials/imgs/D46.png","0","true"
"","","","","","html-keyboard-response","48","2032197","0.0-13.0-2.0-0.0","ghbl9s0dgx","","ghbl9s0dgx","""2024-11-18T20:31:30.370Z""","null","+","null","","","","","","",""
"","","","","","image-keyboard-response","49","2034272","0.0-13.0-2.0-1.0","ghbl9s0dgx","","ghbl9s0dgx","""2024-11-18T20:31:30.370Z""","2072","materials/imgs/D68.png","arrowleft","","[""materials/imgs/D96.png"",""materials/imgs/D48.png""]","false","validation","","",""
"","","","","","html-keyboard-response","50","2034791","0.0-13.0-2.0-0.1","ghbl9s0dgx","","ghbl9s0dgx","""2024-11-18T20:31:30.370Z""","null","+","null","","","","","","",""
"","","","","","image-keyboard-response","51","2037711","0.0-13.0-2.0-1.1","ghbl9s0dgx","","ghbl9s0dgx","""2024-11-18T20:31:30.370Z""","2918","materials/imgs/D52.png","arrowright","","[""materials/imgs/D9.png"",""materials/imgs/D19.png""]","false","validation","","",""
"","","","","","html-keyboard-response","52","2038225","0.0-13.0-0.1-0.7","ghbl9s0dgx","","ghbl9s0dgx","""2024-11-18T20:31:30.370Z""","null","+","null","","","","","","",""
"","","","","","image-keyboard-response","53","2040804","0.0-13.0-0.1-1.7","ghbl9s0dgx","","ghbl9s0dgx","""2024-11-18T20:31:30.370Z""","2576","materials/imgs/D35.png","arrowleft","","[""materials/imgs/D103.png"",""materials/imgs/D65.png""]","false","random","","",""
"","","","","","html-keyboard-response","54","2041312","0.0-13.0-0.1-0.8","ghbl9s0dgx","","ghbl9s0dgx","""2024-11-18T20:31:30.370Z""","null","+","null","","","","","","",""
"","","","","","image-keyboard-response","55","2042733","0.0-13.0-0.1-1.8","ghbl9s0dgx","","ghbl9s0dgx","""2024-11-18T20:31:30.370Z""","1419","materials/imgs/D68.png","arrowleft","","[""materials/imgs/D16.png"",""materials/imgs/D64.png""]","false","random","","",""
"","","","","","html-keyboard-response","56","2043248","0.0-13.0-0.1-0.9","ghbl9s0dgx","","ghbl9s0dgx","""2024-11-18T20:31:30.370Z""","null","+","null","","","","","","",""
"","","","","","image-keyboard-response","57","2044692","0.0-13.0-0.1-1.9","ghbl9s0dgx","","ghbl9s0dgx","""2024-11-18T20:31:30.370Z""","1441","materials/imgs/D11.png","arrowright","","[""materials/imgs/D87.png"",""materials/imgs/D49.png""]","false","random","","",""
"","","","","","html-keyboard-response","58","2045200","0.0-13.0-0.1-0.10","ghbl9s0dgx","","ghbl9s0dgx","""2024-11-18T20:31:30.370Z""","null","+","null","","","","","","",""
"","","","","","image-keyboard-response","59","2046119","0.0-13.0-0.1-1.10","ghbl9s0dgx","","ghbl9s0dgx","""2024-11-18T20:31:30.370Z""","916","materials/imgs/D101.png","arrowleft","","[""materials/imgs/D3.png"",""materials/imgs/D95.png""]","false","random","","",""
"","","","","","html-keyboard-response","60","2046621","0.0-13.0-0.1-0.11","ghbl9s0dgx","","ghbl9s0dgx","""2024-11-18T20:31:30.370Z""","null","+","null","","","","","","",""
"","","","","","image-keyboard-response","61","2047656","0.0-13.0-0.1-1.11","ghbl9s0dgx","","ghbl9s0dgx","""2024-11-18T20:31:30.370Z""","1032","materials/imgs/D1.png","arrowleft","","[""materials/imgs/D20.png"",""materials/imgs/D83.png""]","false","random","","",""
"","","","","","html-keyboard-response","62","2048171","0.0-13.0-0.1-0.12","ghbl9s0dgx","","ghbl9s0dgx","""2024-11-18T20:31:30.370Z""","null","+","null","","","","","","",""
"","","","","","image-keyboard-response","63","2050385","0.0-13.0-0.1-1.12","ghbl9s0dgx","","ghbl9s0dgx","""2024-11-18T20:31:30.370Z""","2210","materials/imgs/D16.png","arrowleft","","[""materials/imgs/D96.png"",""materials/imgs/D22.png""]","false","random","","",""
"","","","","","html-keyboard-response","64","2050889","0.0-13.0-0.1-0.13","ghbl9s0dgx","","ghbl9s0dgx","""2024-11-18T20:31:30.370Z""","null","+","null","","","","","","",""
"","","","","","image-keyboard-response","65","2051680","0.0-13.0-0.1-1.13","ghbl9s0dgx","","ghbl9s0dgx","""2024-11-18T20:31:30.370Z""","789","materials/imgs/D6.png","arrowleft","","[""materials/imgs/D17.png"",""materials/imgs/D29.png""]","false","random","","",""
"","","","","","html-keyboard-response","66","2052183","0.0-13.0-1.1-0.1","ghbl9s0dgx","","ghbl9s0dgx","""2024-11-18T20:31:30.370Z""","null","+","null","","","","","","",""
"","","","","","image-keyboard-response","67","2052773","0.0-13.0-1.1-1.1","ghbl9s0dgx","","ghbl9s0dgx","""2024-11-18T20:31:30.370Z""","588","materials/imgs/D46.png","arrowleft","","[""materials/imgs/D46.png"",""materials/imgs/D26.png""]","","check","materials/imgs/D46.png","0","true"
"","","","","","html-keyboard-response","68","2053277","0.0-13.0-2.1-0.2","ghbl9s0dgx","","ghbl9s0dgx","""2024-11-18T20:31:30.370Z""","null","+","null","","","","","","",""
"","","","","","image-keyboard-response","69","2054684","0.0-13.0-2.1-1.2","ghbl9s0dgx","","ghbl9s0dgx","""2024-11-18T20:31:30.370Z""","1405","materials/imgs/D6.png","arrowright","","[""materials/imgs/D26.png"",""materials/imgs/D76.png""]","false","validation","","",""
"","","","","","html-keyboard-response","70","2055193","0.0-13.0-2.1-0.3","ghbl9s0dgx","","ghbl9s0dgx","""2024-11-18T20:31:30.370Z""","null","+","null","","","","","","",""
"","","","","","image-keyboard-response","71","2056683","0.0-13.0-2.1-1.3","ghbl9s0dgx","","ghbl9s0dgx","""2024-11-18T20:31:30.370Z""","1487","materials/imgs/D6.png","arrowright","","[""materials/imgs/D26.png"",""materials/imgs/D76.png""]","false","validation","","",""
"","","","","","html-keyboard-response","72","2057185","0.0-13.0-0.2-0.14","ghbl9s0dgx","","ghbl9s0dgx","""2024-11-18T20:31:30.370Z""","null","+","null","","","","","","",""
"","","","","","image-keyboard-response","73","2058598","0.0-13.0-0.2-1.14","ghbl9s0dgx","","ghbl9s0dgx","""2024-11-18T20:31:30.370Z""","1409","materials/imgs/D19.png","arrowright","","[""materials/imgs/D79.png"",""materials/imgs/D68.png""]","false","random","","",""
"","","","","","html-keyboard-response","74","2059104","0.0-13.0-0.2-0.15","ghbl9s0dgx","","ghbl9s0dgx","""2024-11-18T20:31:30.370Z""","null","+","null","","","","","","",""
"","","","","","image-keyboard-response","75","2060985","0.0-13.0-0.2-1.15","ghbl9s0dgx","","ghbl9s0dgx","""2024-11-18T20:31:30.370Z""","1879","materials/imgs/D103.png","arrowright","","[""materials/imgs/D4.png"",""materials/imgs/D19.png""]","false","random","","",""
"","","","","","html-keyboard-response","76","2061487","0.0-13.0-0.2-0.16","ghbl9s0dgx","","ghbl9s0dgx","""2024-11-18T20:31:30.370Z""","null","+","null","","","","","","",""
"","","","","","image-keyboard-response","77","2062168","0.0-13.0-0.2-1.16","ghbl9s0dgx","","ghbl9s0dgx","""2024-11-18T20:31:30.370Z""","678","materials/imgs/D92.png","arrowleft","","[""materials/imgs/D32.png"",""materials/imgs/D102.png""]","false","random","","",""
"","","","","","html-keyboard-response","78","2062671","0.0-13.0-0.2-0.17","ghbl9s0dgx","","ghbl9s0dgx","""2024-11-18T20:31:30.370Z""","null","+","null","","","","","","",""
"","","","","","image-keyboard-response","79","2063495","0.0-13.0-0.2-1.17","ghbl9s0dgx","","ghbl9s0dgx","""2024-11-18T20:31:30.370Z""","821","materials/imgs/D36.png","arrowleft","","[""materials/imgs/D3.png"",""materials/imgs/D65.png""]","false","random","","",""
"","","","","","html-keyboard-response","80","2063996","0.0-13.0-0.2-0.18","ghbl9s0dgx","","ghbl9s0dgx","""2024-11-18T20:31:30.370Z""","null","+","null","","","","","","",""
"","","","","","image-keyboard-response","81","2064771","0.0-13.0-0.2-1.18","ghbl9s0dgx","","ghbl9s0dgx","""2024-11-18T20:31:30.370Z""","772","materials/imgs/D4.png","arrowleft","","[""materials/imgs/D6.png"",""materials/imgs/D37.png""]","false","random","","",""
"","","","","","html-keyboard-response","82","2065279","0.0-13.0-0.2-0.19","ghbl9s0dgx","","ghbl9s0dgx","""2024-11-18T20:31:30.370Z""","null","+","null","","","","","","",""
"","","","","","image-keyboard-response","83","2068151","0.0-13.0-0.2-1.19","ghbl9s0dgx","","ghbl9s0dgx","""2024-11-18T20:31:30.370Z""","2869","materials/imgs/D21.png","arrowleft","","[""materials/imgs/D3.png"",""materials/imgs/D37.png""]","false","random","","",""
"","","","","","html-keyboard-response","84","2068655","0.0-13.0-0.2-0.20","ghbl9s0dgx","","ghbl9s0dgx","""2024-11-18T20:31:30.370Z""","null","+","null","","","","","","",""
"","","","","","image-keyboard-response","85","2069580","0.0-13.0-0.2-1.20","ghbl9s0dgx","","ghbl9s0dgx","""2024-11-18T20:31:30.370Z""","921","materials/imgs/D68.png","arrowleft","","[""materials/imgs/D16.png"",""materials/imgs/D37.png""]","false","random","","",""
"","","","","","html-keyboard-response","86","2070095","0.0-13.0-1.2-0.2","ghbl9s0dgx","","ghbl9s0dgx","""2024-11-18T20:31:30.370Z""","null","+","null","","","","","","",""
"","","","","","image-keyboard-response","87","2070742","0.0-13.0-1.2-1.2","ghbl9s0dgx","","ghbl9s0dgx","""2024-11-18T20:31:30.370Z""","644","materials/imgs/D76.png","arrowleft","","[""materials/imgs/D76.png"",""materials/imgs/D78.png""]","","check","materials/imgs/D76.png","0","true"
"","","","","","html-keyboard-response","88","2071248","0.0-13.0-2.2-0.4","ghbl9s0dgx","","ghbl9s0dgx","""2024-11-18T20:31:30.370Z""","null","+","null","","","","","","",""
"","","","","","image-keyboard-response","89","2072545","0.0-13.0-2.2-1.4","ghbl9s0dgx","","ghbl9s0dgx","""2024-11-18T20:31:30.370Z""","1294","materials/imgs/D19.png","arrowleft","","[""materials/imgs/D111.png"",""materials/imgs/D56.png""]","false","validation","","",""
"","","","","","html-keyboard-response","90","2073053","0.0-13.0-2.2-0.5","ghbl9s0dgx","","ghbl9s0dgx","""2024-11-18T20:31:30.370Z""","null","+","null","","","","","","",""
"","","","","","image-keyboard-response","91","2073922","0.0-13.0-2.2-1.5","ghbl9s0dgx","","ghbl9s0dgx","""2024-11-18T20:31:30.370Z""","866","materials/imgs/D111.png","arrowleft","","[""materials/imgs/D82.png"",""materials/imgs/D95.png""]","false","validation","","",""
"","","","","","html-keyboard-response","92","2074430","0.0-13.0-0.3-0.21","ghbl9s0dgx","","ghbl9s0dgx","""2024-11-18T20:31:30.370Z""","null","+","null","","","","","","",""
"","","","","","image-keyboard-response","93","2076758","0.0-13.0-0.3-1.21","ghbl9s0dgx","","ghbl9s0dgx","""2024-11-18T20:31:30.370Z""","2326","materials/imgs/D46.png","arrowleft","","[""materials/imgs/D1.png"",""materials/imgs/D14.png""]","false","random","","",""
"","","","","","html-keyboard-response","94","2077268","0.0-13.0-0.3-0.22","ghbl9s0dgx","","ghbl9s0dgx","""2024-11-18T20:31:30.370Z""","null","+","null","","","","","","",""
"","","","","","image-keyboard-response","95","2079066","0.0-13.0-0.3-1.22","ghbl9s0dgx","","ghbl9s0dgx","""2024-11-18T20:31:30.370Z""","1795","materials/imgs/D79.png","arrowright","","[""materials/imgs/D18.png"",""materials/imgs/D22.png""]","false","random","","",""
"","","","","","html-keyboard-response","96","2079572","0.0-13.0-0.3-0.23","ghbl9s0dgx","","ghbl9s0dgx","""2024-11-18T20:31:30.370Z""","null","+","null","","","","","","",""
"","","","","","image-keyboard-response","97","2080484","0.0-13.0-0.3-1.23","ghbl9s0dgx","","ghbl9s0dgx","""2024-11-18T20:31:30.370Z""","910","materials/imgs/D68.png","arrowright","","[""materials/imgs/D52.png"",""materials/imgs/D11.png""]","false","random","","",""
"","","","","","html-keyboard-response","98","2080991","0.0-13.0-0.3-0.24","ghbl9s0dgx","","ghbl9s0dgx","""2024-11-18T20:31:30.370Z""","null","+","null","","","","","","",""
"","","","","","image-keyboard-response","99","2081748","0.0-13.0-0.3-1.24","ghbl9s0dgx","","ghbl9s0dgx","""2024-11-18T20:31:30.370Z""","755","materials/imgs/D19.png","arrowleft","","[""materials/imgs/D68.png"",""materials/imgs/D6.png""]","false","random","","",""
"","","","","","html-keyboard-response","100","2082255","0.0-13.0-0.3-0.25","ghbl9s0dgx","","ghbl9s0dgx","""2024-11-18T20:31:30.370Z""","null","+","null","","","","","","",""
"","","","","","image-keyboard-response","101","2083771","0.0-13.0-0.3-1.25","ghbl9s0dgx","","ghbl9s0dgx","""2024-11-18T20:31:30.370Z""","1513","materials/imgs/D82.png","arrowleft","","[""materials/imgs/D106.png"",""materials/imgs/D29.png""]","false","random","","",""
"","","","","","html-keyboard-response","102","2084285","0.0-13.0-0.3-0.26","ghbl9s0dgx","","ghbl9s0dgx","""2024-11-18T20:31:30.370Z""","null","+","null","","","","","","",""
"","","","","","image-keyboard-response","103","2085023","0.0-13.0-0.3-1.26","ghbl9s0dgx","","ghbl9s0dgx","""2024-11-18T20:31:30.370Z""","735","materials/imgs/D95.png","arrowleft","","[""materials/imgs/D1.png"",""materials/imgs/D76.png""]","false","random","","",""
"","","","","","html-keyboard-response","104","2085525","0.0-13.0-0.3-0.27","ghbl9s0dgx","","ghbl9s0dgx","""2024-11-18T20:31:30.370Z""","null","+","null","","","","","","",""
"","","","","","image-keyboard-response","105","2087538","0.0-13.0-0.3-1.27","ghbl9s0dgx","","ghbl9s0dgx","""2024-11-18T20:31:30.370Z""","2012","materials/imgs/D87.png","arrowright","","[""materials/imgs/D94.png"",""materials/imgs/D34.png""]","false","random","","",""
"","","","","","html-keyboard-response","106","2088053","0.0-13.0-1.3-0.3","ghbl9s0dgx","","ghbl9s0dgx","""2024-11-18T20:31:30.370Z""","null","+","null","","","","","","",""
"","","","","","image-keyboard-response","107","2088612","0.0-13.0-1.3-1.3","ghbl9s0dgx","","ghbl9s0dgx","""2024-11-18T20:31:30.370Z""","558","materials/imgs/D64.png","arrowleft","","[""materials/imgs/D64.png"",""materials/imgs/D53.png""]","","check","materials/imgs/D64.png","0","true"
"","","","","","html-keyboard-response","108","2089125","0.0-13.0-2.3-0.6","ghbl9s0dgx","","ghbl9s0dgx","""2024-11-18T20:31:30.370Z""","null","+","null","","","","","","",""
"","","","","","image-keyboard-response","109","2090206","0.0-13.0-2.3-1.6","ghbl9s0dgx","","ghbl9s0dgx","""2024-11-18T20:31:30.370Z""","1078","materials/imgs/D51.png","arrowright","","[""materials/imgs/D92.png"",""materials/imgs/D20.png""]","false","validation","","",""
"","","","","","html-keyboard-response","110","2090711","0.0-13.0-2.3-0.7","ghbl9s0dgx","","ghbl9s0dgx","""2024-11-18T20:31:30.370Z""","null","+","null","","","","","","",""
"","","","","","image-keyboard-response","111","2093667","0.0-13.0-2.3-1.7","ghbl9s0dgx","","ghbl9s0dgx","""2024-11-18T20:31:30.370Z""","2954","materials/imgs/D83.png","arrowright","","[""materials/imgs/D24.png"",""materials/imgs/D8.png""]","false","validation","","",""
"","","","","","html-keyboard-response","112","2094183","0.0-13.0-0.4-0.28","ghbl9s0dgx","","ghbl9s0dgx","""2024-11-18T20:31:30.370Z""","null","+","null","","","","","","",""
"","","","","","image-keyboard-response","113","2095585","0.0-13.0-0.4-1.28","ghbl9s0dgx","","ghbl9s0dgx","""2024-11-18T20:31:30.370Z""","1399","materials/imgs/D87.png","arrowleft","","[""materials/imgs/D18.png"",""materials/imgs/D34.png""]","false","random","","",""
"","","","","","html-keyboard-response","114","2096101","0.0-13.0-0.4-0.29","ghbl9s0dgx","","ghbl9s0dgx","""2024-11-18T20:31:30.370Z""","null","+","null","","","","","","",""
"","","","","","image-keyboard-response","115","2096675","0.0-13.0-0.4-1.29","ghbl9s0dgx","","ghbl9s0dgx","""2024-11-18T20:31:30.370Z""","571","materials/imgs/D79.png","arrowright","","[""materials/imgs/D92.png"",""materials/imgs/D80.png""]","false","random","","",""
"","","","","","html-keyboard-response","116","2097182","0.0-13.0-0.4-0.30","ghbl9s0dgx","","ghbl9s0dgx","""2024-11-18T20:31:30.370Z""","null","+","null","","","","","","",""
"","","","","","image-keyboard-response","117","2098193","0.0-13.0-0.4-1.30","ghbl9s0dgx","","ghbl9s0dgx","""2024-11-18T20:31:30.370Z""","1009","materials/imgs/D8.png","arrowright","","[""materials/imgs/D105.png"",""materials/imgs/D104.png""]","false","random","","",""
"","","","","","html-keyboard-response","118","2098697","0.0-13.0-0.4-0.31","ghbl9s0dgx","","ghbl9s0dgx","""2024-11-18T20:31:30.370Z""","null","+","null","","","","","","",""
"","","","","","image-keyboard-response","119","2099268","0.0-13.0-0.4-1.31","ghbl9s0dgx","","ghbl9s0dgx","""2024-11-18T20:31:30.370Z""","570","materials/imgs/D68.png","arrowleft","","[""materials/imgs/D106.png"",""materials/imgs/D104.png""]","false","random","","",""
"","","","","","html-keyboard-response","120","2099783","0.0-13.0-0.4-0.32","ghbl9s0dgx","","ghbl9s0dgx","""2024-11-18T20:31:30.370Z""","null","+","null","","","","","","",""
"","","","","","image-keyboard-response","121","2100746","0.0-13.0-0.4-1.32","ghbl9s0dgx","","ghbl9s0dgx","""2024-11-18T20:31:30.370Z""","961","materials/imgs/D52.png","arrowleft","","[""materials/imgs/D111.png"",""materials/imgs/D25.png""]","false","random","","",""
"","","","","","html-keyboard-response","122","2101256","0.0-13.0-0.4-0.33","ghbl9s0dgx","","ghbl9s0dgx","""2024-11-18T20:31:30.370Z""","null","+","null","","","","","","",""
"","","","","","image-keyboard-response","123","2101985","0.0-13.0-0.4-1.33","ghbl9s0dgx","","ghbl9s0dgx","""2024-11-18T20:31:30.370Z""","724","materials/imgs/D76.png","arrowright","","[""materials/imgs/D35.png"",""materials/imgs/D11.png""]","false","random","","",""
"","","","","","html-keyboard-response","124","2102498","0.0-13.0-0.4-0.34","ghbl9s0dgx","","ghbl9s0dgx","""2024-11-18T20:31:30.370Z""","null","+","null","","","","","","",""
"","","","","","image-keyboard-response","125","2103117","0.0-13.0-0.4-1.34","ghbl9s0dgx","","ghbl9s0dgx","""2024-11-18T20:31:30.370Z""","616","materials/imgs/D53.png","arrowleft","","[""materials/imgs/D36.png"",""materials/imgs/D80.png""]","false","random","","",""
"","","","","","html-keyboard-response","126","2103634","0.0-13.0-1.4-0.4","ghbl9s0dgx","","ghbl9s0dgx","""2024-11-18T20:31:30.370Z""","null","+","null","","","","","","",""
"","","","","","image-keyboard-response","127","2104167","0.0-13.0-1.4-1.4","ghbl9s0dgx","","ghbl9s0dgx","""2024-11-18T20:31:30.370Z""","530","materials/imgs/D78.png","arrowright","","[""materials/imgs/D76.png"",""materials/imgs/D78.png""]","","check","materials/imgs/D78.png","1","true"
"","","","","","html-keyboard-response","128","2104674","0.0-13.0-2.4-0.8","ghbl9s0dgx","","ghbl9s0dgx","""2024-11-18T20:31:30.370Z""","null","+","null","","","","","","",""
"","","","","","image-keyboard-response","129","2106115","0.0-13.0-2.4-1.8","ghbl9s0dgx","","ghbl9s0dgx","""2024-11-18T20:31:30.370Z""","1438","materials/imgs/D35.png","arrowright","","[""materials/imgs/D83.png"",""materials/imgs/D24.png""]","false","validation","","",""
"","","","","","html-keyboard-response","130","2106618","0.0-13.0-2.4-0.9","ghbl9s0dgx","","ghbl9s0dgx","""2024-11-18T20:31:30.370Z""","null","+","null","","","","","","",""
"","","","","","image-keyboard-response","131","2108386","0.0-13.0-2.4-1.9","ghbl9s0dgx","","ghbl9s0dgx","""2024-11-18T20:31:30.370Z""","1765","materials/imgs/D77.png","arrowleft","","[""materials/imgs/D102.png"",""materials/imgs/D65.png""]","false","validation","","",""
"","","","","","html-button-response","132","2152339","0.0-14.0","ghbl9s0dgx","","ghbl9s0dgx","""2024-11-18T20:31:30.370Z""","43950","You have completed 25% of the trials. Please click 'Continue' when you are ready proceed.","0","","","","","","",""
"","","","","","html-keyboard-response","133","2152850","0.0-15.0-0.0-0.0","ghbl9s0dgx","","ghbl9s0dgx","""2024-11-18T20:31:30.370Z""","null","+","null","","","","","","",""
"","","","","","image-keyboard-response","134","2157471","0.0-15.0-0.0-1.0","ghbl9s0dgx","","ghbl9s0dgx","""2024-11-18T20:31:30.370Z""","4618","materials/imgs/D36.png","arrowright","","[""materials/imgs/D105.png"",""materials/imgs/D11.png""]","false","random","","",""
"","","","","","html-keyboard-response","135","2157978","0.0-15.0-0.0-0.1","ghbl9s0dgx","","ghbl9s0dgx","""2024-11-18T20:31:30.370Z""","null","+","null","","","","","","",""
"","","","","","image-keyboard-response","136","2158734","0.0-15.0-0.0-1.1","ghbl9s0dgx","","ghbl9s0dgx","""2024-11-18T20:31:30.370Z""","752","materials/imgs/D22.png","arrowright","","[""materials/imgs/D51.png"",""materials/imgs/D65.png""]","false","random","","",""
"","","","","","html-keyboard-response","137","2159244","0.0-15.0-0.0-0.2","ghbl9s0dgx","","ghbl9s0dgx","""2024-11-18T20:31:30.370Z""","null","+","null","","","","","","",""
"","","","","","image-keyboard-response","138","2161410","0.0-15.0-0.0-1.2","ghbl9s0dgx","","ghbl9s0dgx","""2024-11-18T20:31:30.370Z""","2163","materials/imgs/D80.png","arrowright","","[""materials/imgs/D26.png"",""materials/imgs/D105.png""]","false","random","","",""
"","","","","","html-keyboard-response","139","2161921","0.0-15.0-0.0-0.3","ghbl9s0dgx","","ghbl9s0dgx","""2024-11-18T20:31:30.370Z""","null","+","null","","","","","","",""
"","","","","","image-keyboard-response","140","2162981","0.0-15.0-0.0-1.3","ghbl9s0dgx","","ghbl9s0dgx","""2024-11-18T20:31:30.370Z""","1057","materials/imgs/D66.png","arrowright","","[""materials/imgs/D52.png"",""materials/imgs/D19.png""]","false","random","","",""
"","","","","","html-keyboard-response","141","2163497","0.0-15.0-0.0-0.4","ghbl9s0dgx","","ghbl9s0dgx","""2024-11-18T20:31:30.370Z""","null","+","null","","","","","","",""
"","","","","","image-keyboard-response","142","2164399","0.0-15.0-0.0-1.4","ghbl9s0dgx","","ghbl9s0dgx","""2024-11-18T20:31:30.370Z""","900","materials/imgs/D3.png","arrowleft","","[""materials/imgs/D55.png"",""materials/imgs/D37.png""]","false","random","","",""
"","","","","","html-keyboard-response","143","2164915","0.0-15.0-0.0-0.5","ghbl9s0dgx","","ghbl9s0dgx","""2024-11-18T20:31:30.370Z""","null","+","null","","","","","","",""
"","","","","","image-keyboard-response","144","2166422","0.0-15.0-0.0-1.5","ghbl9s0dgx","","ghbl9s0dgx","""2024-11-18T20:31:30.370Z""","1504","materials/imgs/D3.png","arrowright","","[""materials/imgs/D78.png"",""materials/imgs/D101.png""]","false","random","","",""
"","","","","","html-keyboard-response","145","2166927","0.0-15.0-0.0-0.6","ghbl9s0dgx","","ghbl9s0dgx","""2024-11-18T20:31:30.370Z""","null","+","null","","","","","","",""
"","","","","","image-keyboard-response","146","2168102","0.0-15.0-0.0-1.6","ghbl9s0dgx","","ghbl9s0dgx","""2024-11-18T20:31:30.370Z""","1173","materials/imgs/D75.png","arrowleft","","[""materials/imgs/D102.png"",""materials/imgs/D20.png""]","false","random","","",""
"","","","","","html-keyboard-response","147","2168609","0.0-15.0-1.0-0.0","ghbl9s0dgx","","ghbl9s0dgx","""2024-11-18T20:31:30.370Z""","null","+","null","","","","","","",""
"","","","","","image-keyboard-response","148","2169251","0.0-15.0-1.0-1.0","ghbl9s0dgx","","ghbl9s0dgx","""2024-11-18T20:31:30.370Z""","640","materials/imgs/D101.png","arrowright","","[""materials/imgs/D106.png"",""materials/imgs/D101.png""]","","check","materials/imgs/D101.png","1","true"
"","","","","","html-keyboard-response","149","2169762","0.0-15.0-2.0-0.0","ghbl9s0dgx","","ghbl9s0dgx","""2024-11-18T20:31:30.370Z""","null","+","null","","","","","","",""
"","","","","","image-keyboard-response","150","2170705","0.0-15.0-2.0-1.0","ghbl9s0dgx","","ghbl9s0dgx","""2024-11-18T20:31:30.370Z""","941","materials/imgs/D24.png","arrowleft","","[""materials/imgs/D36.png"",""materials/imgs/D8.png""]","false","validation","","",""
"","","","","","html-keyboard-response","151","2171220","0.0-15.0-2.0-0.1","ghbl9s0dgx","","ghbl9s0dgx","""2024-11-18T20:31:30.370Z""","null","+","null","","","","","","",""
"","","","","","image-keyboard-response","152","2172553","0.0-15.0-2.0-1.1","ghbl9s0dgx","","ghbl9s0dgx","""2024-11-18T20:31:30.370Z""","1331","materials/imgs/D65.png","arrowright","","[""materials/imgs/D4.png"",""materials/imgs/D16.png""]","false","validation","","",""
"","","","","","html-keyboard-response","153","2173059","0.0-15.0-0.1-0.7","ghbl9s0dgx","","ghbl9s0dgx","""2024-11-18T20:31:30.370Z""","null","+","null","","","","","","",""
"","","","","","image-keyboard-response","154","2174424","0.0-15.0-0.1-1.7","ghbl9s0dgx","","ghbl9s0dgx","""2024-11-18T20:31:30.370Z""","1362","materials/imgs/D92.png","arrowleft","","[""materials/imgs/D102.png"",""materials/imgs/D65.png""]","false","random","","",""
"","","","","","html-keyboard-response","155","2174927","0.0-15.0-0.1-0.8","ghbl9s0dgx","","ghbl9s0dgx","""2024-11-18T20:31:30.370Z""","null","+","null","","","","","","",""
"","","","","","image-keyboard-response","156","2175889","0.0-15.0-0.1-1.8","ghbl9s0dgx","","ghbl9s0dgx","""2024-11-18T20:31:30.370Z""","959","materials/imgs/D77.png","arrowright","","[""materials/imgs/D96.png"",""materials/imgs/D81.png""]","false","random","","",""
"","","","","","html-keyboard-response","157","2176396","0.0-15.0-0.1-0.9","ghbl9s0dgx","","ghbl9s0dgx","""2024-11-18T20:31:30.370Z""","null","+","null","","","","","","",""
"","","","","","image-keyboard-response","158","2177205","0.0-15.0-0.1-1.9","ghbl9s0dgx","","ghbl9s0dgx","""2024-11-18T20:31:30.370Z""","806","materials/imgs/D102.png","arrowleft","","[""materials/imgs/D22.png"",""materials/imgs/D14.png""]","false","random","","",""
"","","","","","html-keyboard-response","159","2177707","0.0-15.0-0.1-0.10","ghbl9s0dgx","","ghbl9s0dgx","""2024-11-18T20:31:30.370Z""","null","+","null","","","","","","",""
"","","","","","image-keyboard-response","160","2178871","0.0-15.0-0.1-1.10","ghbl9s0dgx","","ghbl9s0dgx","""2024-11-18T20:31:30.370Z""","1161","materials/imgs/D74.png","arrowright","","[""materials/imgs/D95.png"",""materials/imgs/D92.png""]","false","random","","",""
"","","","","","html-keyboard-response","161","2179377","0.0-15.0-0.1-0.11","ghbl9s0dgx","","ghbl9s0dgx","""2024-11-18T20:31:30.370Z""","null","+","null","","","","","","",""
"","","","","","image-keyboard-response","162","2180460","0.0-15.0-0.1-1.11","ghbl9s0dgx","","ghbl9s0dgx","""2024-11-18T20:31:30.370Z""","1079","materials/imgs/D48.png","arrowleft","","[""materials/imgs/D46.png"",""materials/imgs/D66.png""]","false","random","","",""
"","","","","","html-keyboard-response","163","2180964","0.0-15.0-0.1-0.12","ghbl9s0dgx","","ghbl9s0dgx","""2024-11-18T20:31:30.370Z""","null","+","null","","","","","","",""
"","","","","","image-keyboard-response","164","2181784","0.0-15.0-0.1-1.12","ghbl9s0dgx","","ghbl9s0dgx","""2024-11-18T20:31:30.370Z""","817","materials/imgs/D11.png","arrowright","","[""materials/imgs/D26.png"",""materials/imgs/D78.png""]","false","random","","",""
"","","","","","html-keyboard-response","165","2182294","0.0-15.0-0.1-0.13","ghbl9s0dgx","","ghbl9s0dgx","""2024-11-18T20:31:30.370Z""","null","+","null","","","","","","",""
"","","","","","image-keyboard-response","166","2183105","0.0-15.0-0.1-1.13","ghbl9s0dgx","","ghbl9s0dgx","""2024-11-18T20:31:30.370Z""","808","materials/imgs/D29.png","arrowright","","[""materials/imgs/D56.png"",""materials/imgs/D82.png""]","false","random","","",""
"","","","","","html-keyboard-response","167","2183621","0.0-15.0-1.1-0.1","ghbl9s0dgx","","ghbl9s0dgx","""2024-11-18T20:31:30.370Z""","null","+","null","","","","","","",""
"","","","","","image-keyboard-response","168","2184724","0.0-15.0-1.1-1.1","ghbl9s0dgx","","ghbl9s0dgx","""2024-11-18T20:31:30.370Z""","1101","materials/imgs/D18.png","arrowright","","[""materials/imgs/D8.png"",""materials/imgs/D18.png""]","","check","materials/imgs/D18.png","1","true"
"","","","","","html-keyboard-response","169","2185235","0.0-15.0-2.1-0.2","ghbl9s0dgx","","ghbl9s0dgx","""2024-11-18T20:31:30.370Z""","null","+","null","","","","","","",""
"","","","","","image-keyboard-response","170","2187027","0.0-15.0-2.1-1.2","ghbl9s0dgx","","ghbl9s0dgx","""2024-11-18T20:31:30.370Z""","1790","materials/imgs/D1.png","arrowright","","[""materials/imgs/D57.png"",""materials/imgs/D76.png""]","false","validation","","",""
"","","","","","html-keyboard-response","171","2187540","0.0-15.0-2.1-0.3","ghbl9s0dgx","","ghbl9s0dgx","""2024-11-18T20:31:30.370Z""","null","+","null","","","","","","",""
"","","","","","image-keyboard-response","172","2188900","0.0-15.0-2.1-1.3","ghbl9s0dgx","","ghbl9s0dgx","""2024-11-18T20:31:30.370Z""","1358","materials/imgs/D49.png","arrowright","","[""materials/imgs/D8.png"",""materials/imgs/D101.png""]","false","validation","","",""
"","","","","","html-keyboard-response","173","2189413","0.0-15.0-0.2-0.14","ghbl9s0dgx","","ghbl9s0dgx","""2024-11-18T20:31:30.370Z""","null","+","null","","","","","","",""
"","","","","","image-keyboard-response","174","2190778","0.0-15.0-0.2-1.14","ghbl9s0dgx","","ghbl9s0dgx","""2024-11-18T20:31:30.370Z""","1362","materials/imgs/D104.png","arrowleft","","[""materials/imgs/D85.png"",""materials/imgs/D51.png""]","false","random","","",""
"","","","","","html-keyboard-response","175","2191287","0.0-15.0-0.2-0.15","ghbl9s0dgx","","ghbl9s0dgx","""2024-11-18T20:31:30.370Z""","null","+","null","","","","","","",""
"","","","","","image-keyboard-response","176","2192957","0.0-15.0-0.2-1.15","ghbl9s0dgx","","ghbl9s0dgx","""2024-11-18T20:31:30.370Z""","1667","materials/imgs/D18.png","arrowright","","[""materials/imgs/D105.png"",""materials/imgs/D11.png""]","false","random","","",""
"","","","","","html-keyboard-response","177","2193458","0.0-15.0-0.2-0.16","ghbl9s0dgx","","ghbl9s0dgx","""2024-11-18T20:31:30.370Z""","null","+","null","","","","","","",""
"","","","","","image-keyboard-response","178","2194416","0.0-15.0-0.2-1.16","ghbl9s0dgx","","ghbl9s0dgx","""2024-11-18T20:31:30.370Z""","955","materials/imgs/D49.png","arrowright","","[""materials/imgs/D101.png"",""materials/imgs/D105.png""]","false","random","","",""
"","","","","","html-keyboard-response","179","2194931","0.0-15.0-0.2-0.17","ghbl9s0dgx","","ghbl9s0dgx","""2024-11-18T20:31:30.370Z""","null","+","null","","","","","","",""
"","","","","","image-keyboard-response","180","2197100","0.0-15.0-0.2-1.17","ghbl9s0dgx","","ghbl9s0dgx","""2024-11-18T20:31:30.370Z""","2167","materials/imgs/D94.png","arrowright","","[""materials/imgs/D9.png"",""materials/imgs/D51.png""]","false","random","","",""
"","","","","","html-keyboard-response","181","2197614","0.0-15.0-0.2-0.18","ghbl9s0dgx","","ghbl9s0dgx","""2024-11-18T20:31:30.370Z""","null","+","null","","","","","","",""
"","","","","","image-keyboard-response","182","2198898","0.0-15.0-0.2-1.18","ghbl9s0dgx","","ghbl9s0dgx","""2024-11-18T20:31:30.370Z""","1281","materials/imgs/D46.png","arrowleft","","[""materials/imgs/D3.png"",""materials/imgs/D53.png""]","false","random","","",""
"","","","","","html-keyboard-response","183","2199407","0.0-15.0-0.2-0.19","ghbl9s0dgx","","ghbl9s0dgx","""2024-11-18T20:31:30.370Z""","null","+","null","","","","","","",""
"","","","","","image-keyboard-response","184","2200445","0.0-15.0-0.2-1.19","ghbl9s0dgx","","ghbl9s0dgx","""2024-11-18T20:31:30.370Z""","1034","materials/imgs/D95.png","arrowright","","[""materials/imgs/D79.png"",""materials/imgs/D20.png""]","false","random","","",""
"","","","","","html-keyboard-response","185","2200958","0.0-15.0-0.2-0.20","ghbl9s0dgx","","ghbl9s0dgx","""2024-11-18T20:31:30.370Z""","null","+","null","","","","","","",""
"","","","","","image-keyboard-response","186","2201923","0.0-15.0-0.2-1.20","ghbl9s0dgx","","ghbl9s0dgx","""2024-11-18T20:31:30.370Z""","962","materials/imgs/D36.png","arrowright","","[""materials/imgs/D87.png"",""materials/imgs/D35.png""]","false","random","","",""
"","","","","","html-keyboard-response","187","2202428","0.0-15.0-1.2-0.2","ghbl9s0dgx","","ghbl9s0dgx","""2024-11-18T20:31:30.370Z""","null","+","null","","","","","","",""
"","","","","","image-keyboard-response","188","2202993","0.0-15.0-1.2-1.2","ghbl9s0dgx","","ghbl9s0dgx","""2024-11-18T20:31:30.370Z""","561","materials/imgs/D76.png","arrowleft","","[""materials/imgs/D76.png"",""materials/imgs/D78.png""]","","check","materials/imgs/D76.png","0","true"
"","","","","","html-keyboard-response","189","2203499","0.0-15.0-2.2-0.4","ghbl9s0dgx","","ghbl9s0dgx","""2024-11-18T20:31:30.370Z""","null","+","null","","","","","","",""
"","","","","","image-keyboard-response","190","2204731","0.0-15.0-2.2-1.4","ghbl9s0dgx","","ghbl9s0dgx","""2024-11-18T20:31:30.370Z""","1229","materials/imgs/D22.png","arrowleft","","[""materials/imgs/D4.png"",""materials/imgs/D25.png""]","false","validation","","",""
"","","","","","html-keyboard-response","191","2205240","0.0-15.0-2.2-0.5","ghbl9s0dgx","","ghbl9s0dgx","""2024-11-18T20:31:30.370Z""","null","+","null","","","","","","",""
"","","","","","image-keyboard-response","192","2206462","0.0-15.0-2.2-1.5","ghbl9s0dgx","","ghbl9s0dgx","""2024-11-18T20:31:30.370Z""","1220","materials/imgs/D111.png","arrowleft","","[""materials/imgs/D82.png"",""materials/imgs/D95.png""]","false","validation","","",""
"","","","","","html-keyboard-response","193","2206966","0.0-15.0-0.3-0.21","ghbl9s0dgx","","ghbl9s0dgx","""2024-11-18T20:31:30.370Z""","null","+","null","","","","","","",""
"","","","","","image-keyboard-response","194","2207502","0.0-15.0-0.3-1.21","ghbl9s0dgx","","ghbl9s0dgx","""2024-11-18T20:31:30.370Z""","534","materials/imgs/D4.png","arrowleft","","[""materials/imgs/D24.png"",""materials/imgs/D82.png""]","false","random","","",""
"","","","","","html-keyboard-response","195","2208004","0.0-15.0-0.3-0.22","ghbl9s0dgx","","ghbl9s0dgx","""2024-11-18T20:31:30.370Z""","null","+","null","","","","","","",""
"","","","","","image-keyboard-response","196","2209262","0.0-15.0-0.3-1.22","ghbl9s0dgx","","ghbl9s0dgx","""2024-11-18T20:31:30.370Z""","1255","materials/imgs/D14.png","arrowleft","","[""materials/imgs/D24.png"",""materials/imgs/D101.png""]","false","random","","",""
"","","","","","html-keyboard-response","197","2209763","0.0-15.0-0.3-0.23","ghbl9s0dgx","","ghbl9s0dgx","""2024-11-18T20:31:30.370Z""","null","+","null","","","","","","",""
"","","","","","image-keyboard-response","198","2210970","0.0-15.0-0.3-1.23","ghbl9s0dgx","","ghbl9s0dgx","""2024-11-18T20:31:30.370Z""","1204","materials/imgs/D87.png","arrowright","","[""materials/imgs/D49.png"",""materials/imgs/D105.png""]","false","random","","",""
"","","","","","html-keyboard-response","199","2211472","0.0-15.0-0.3-0.24","ghbl9s0dgx","","ghbl9s0dgx","""2024-11-18T20:31:30.370Z""","null","+","null","","","","","","",""
"","","","","","image-keyboard-response","200","2212851","0.0-15.0-0.3-1.24","ghbl9s0dgx","","ghbl9s0dgx","""2024-11-18T20:31:30.370Z""","1377","materials/imgs/D66.png","arrowleft","","[""materials/imgs/D22.png"",""materials/imgs/D102.png""]","false","random","","",""
"","","","","","html-keyboard-response","201","2213360","0.0-15.0-0.3-0.25","ghbl9s0dgx","","ghbl9s0dgx","""2024-11-18T20:31:30.370Z""","null","+","null","","","","","","",""
"","","","","","image-keyboard-response","202","2214538","0.0-15.0-0.3-1.25","ghbl9s0dgx","","ghbl9s0dgx","""2024-11-18T20:31:30.370Z""","1175","materials/imgs/D1.png","arrowleft","","[""materials/imgs/D8.png"",""materials/imgs/D51.png""]","false","random","","",""
"","","","","","html-keyboard-response","203","2215040","0.0-15.0-0.3-0.26","ghbl9s0dgx","","ghbl9s0dgx","""2024-11-18T20:31:30.370Z""","null","+","null","","","","","","",""
"","","","","","image-keyboard-response","204","2216014","0.0-15.0-0.3-1.26","ghbl9s0dgx","","ghbl9s0dgx","""2024-11-18T20:31:30.370Z""","973","materials/imgs/D48.png","arrowleft","","[""materials/imgs/D14.png"",""materials/imgs/D102.png""]","false","random","","",""
"","","","","","html-keyboard-response","205","2216517","0.0-15.0-0.3-0.27","ghbl9s0dgx","","ghbl9s0dgx","""2024-11-18T20:31:30.370Z""","null","+","null","","","","","","",""
"","","","","","image-keyboard-response","206","2217588","0.0-15.0-0.3-1.27","ghbl9s0dgx","","ghbl9s0dgx","""2024-11-18T20:31:30.370Z""","1070","materials/imgs/D11.png","arrowleft","","[""materials/imgs/D106.png"",""materials/imgs/D64.png""]","false","random","","",""
"","","","","","html-keyboard-response","207","2218092","0.0-15.0-1.3-0.3","ghbl9s0dgx","","ghbl9s0dgx","""2024-11-18T20:31:30.370Z""","null","+","null","","","","","","",""
"","","","","","image-keyboard-response","208","2218946","0.0-15.0-1.3-1.3","ghbl9s0dgx","","ghbl9s0dgx","""2024-11-18T20:31:30.370Z""","853","materials/imgs/D18.png","arrowright","","[""materials/imgs/D8.png"",""materials/imgs/D18.png""]","","check","materials/imgs/D18.png","1","true"
"","","","","","html-keyboard-response","209","2219451","0.0-15.0-2.3-0.6","ghbl9s0dgx","","ghbl9s0dgx","""2024-11-18T20:31:30.370Z""","null","+","null","","","","","","",""
"","","","","","image-keyboard-response","210","2220677","0.0-15.0-2.3-1.6","ghbl9s0dgx","","ghbl9s0dgx","""2024-11-18T20:31:30.370Z""","1224","materials/imgs/D84.png","arrowright","","[""materials/imgs/D106.png"",""materials/imgs/D37.png""]","false","validation","","",""
"","","","","","html-keyboard-response","211","2221187","0.0-15.0-2.3-0.7","ghbl9s0dgx","","ghbl9s0dgx","""2024-11-18T20:31:30.370Z""","null","+","null","","","","","","",""
"","","","","","image-keyboard-response","212","2222691","0.0-15.0-2.3-1.7","ghbl9s0dgx","","ghbl9s0dgx","""2024-11-18T20:31:30.370Z""","1500","materials/imgs/D65.png","arrowright","","[""materials/imgs/D4.png"",""materials/imgs/D16.png""]","false","validation","","",""
"","","","","","html-keyboard-response","213","2223202","0.0-15.0-0.4-0.28","ghbl9s0dgx","","ghbl9s0dgx","""2024-11-18T20:31:30.370Z""","null","+","null","","","","","","",""
"","","","","","image-keyboard-response","214","2224279","0.0-15.0-0.4-1.28","ghbl9s0dgx","","ghbl9s0dgx","""2024-11-18T20:31:30.370Z""","1074","materials/imgs/D101.png","arrowleft","","[""materials/imgs/D36.png"",""materials/imgs/D21.png""]","false","random","","",""
"","","","","","html-keyboard-response","215","2224784","0.0-15.0-0.4-0.29","ghbl9s0dgx","","ghbl9s0dgx","""2024-11-18T20:31:30.370Z""","null","+","null","","","","","","",""
"","","","","","image-keyboard-response","216","2226269","0.0-15.0-0.4-1.29","ghbl9s0dgx","","ghbl9s0dgx","""2024-11-18T20:31:30.370Z""","1483","materials/imgs/D82.png","arrowright","","[""materials/imgs/D3.png"",""materials/imgs/D4.png""]","false","random","","",""
"","","","","","html-keyboard-response","217","2226785","0.0-15.0-0.4-0.30","ghbl9s0dgx","","ghbl9s0dgx","""2024-11-18T20:31:30.370Z""","null","+","null","","","","","","",""
"","","","","","image-keyboard-response","218","2228273","0.0-15.0-0.4-1.30","ghbl9s0dgx","","ghbl9s0dgx","""2024-11-18T20:31:30.370Z""","1486","materials/imgs/D78.png","arrowright","","[""materials/imgs/D87.png"",""materials/imgs/D82.png""]","false","random","","",""
"","","","","","html-keyboard-response","219","2228785","0.0-15.0-0.4-0.31","ghbl9s0dgx","","ghbl9s0dgx","""2024-11-18T20:31:30.370Z""","null","+","null","","","","","","",""
"","","","","","image-keyboard-response","220","2230511","0.0-15.0-0.4-1.31","ghbl9s0dgx","","ghbl9s0dgx","""2024-11-18T20:31:30.370Z""","1724","materials/imgs/D84.png","arrowleft","","[""materials/imgs/D47.png"",""materials/imgs/D26.png""]","false","random","","",""
"","","","","","html-keyboard-response","221","2231023","0.0-15.0-0.4-0.32","ghbl9s0dgx","","ghbl9s0dgx","""2024-11-18T20:31:30.370Z""","null","+","null","","","","","","",""
"","","","","","image-keyboard-response","222","2233821","0.0-15.0-0.4-1.32","ghbl9s0dgx","","ghbl9s0dgx","""2024-11-18T20:31:30.370Z""","2795","materials/imgs/D51.png","arrowright","","[""materials/imgs/D6.png"",""materials/imgs/D36.png""]","false","random","","",""
"","","","","","html-keyboard-response","223","2234331","0.0-15.0-0.4-0.33","ghbl9s0dgx","","ghbl9s0dgx","""2024-11-18T20:31:30.370Z""","null","+","null","","","","","","",""
"","","","","","image-keyboard-response","224","2236236","0.0-15.0-0.4-1.33","ghbl9s0dgx","","ghbl9s0dgx","""2024-11-18T20:31:30.370Z""","1897","materials/imgs/D9.png","arrowleft","","[""materials/imgs/D55.png"",""materials/imgs/D48.png""]","false","random","","",""
"","","","","","html-keyboard-response","225","2236744","0.0-15.0-0.4-0.34","ghbl9s0dgx","","ghbl9s0dgx","""2024-11-18T20:31:30.370Z""","null","+","null","","","","","","",""
"","","","","","image-keyboard-response","226","2237928","0.0-15.0-0.4-1.34","ghbl9s0dgx","","ghbl9s0dgx","""2024-11-18T20:31:30.370Z""","1180","materials/imgs/D103.png","arrowleft","","[""materials/imgs/D35.png"",""materials/imgs/D24.png""]","false","random","","",""
"","","","","","html-keyboard-response","227","2238439","0.0-15.0-1.4-0.4","ghbl9s0dgx","","ghbl9s0dgx","""2024-11-18T20:31:30.370Z""","null","+","null","","","","","","",""
"","","","","","image-keyboard-response","228","2239016","0.0-15.0-1.4-1.4","ghbl9s0dgx","","ghbl9s0dgx","""2024-11-18T20:31:30.370Z""","574","materials/imgs/D8.png","arrowright","","[""materials/imgs/D18.png"",""materials/imgs/D8.png""]","","check","materials/imgs/D8.png","1","true"
"","","","","","html-keyboard-response","229","2239525","0.0-15.0-2.4-0.8","ghbl9s0dgx","","ghbl9s0dgx","""2024-11-18T20:31:30.370Z""","null","+","null","","","","","","",""
"","","","","","image-keyboard-response","230","2240568","0.0-15.0-2.4-1.8","ghbl9s0dgx","","ghbl9s0dgx","""2024-11-18T20:31:30.370Z""","1041","materials/imgs/D4.png","arrowleft","","[""materials/imgs/D52.png"",""materials/imgs/D83.png""]","false","validation","","",""
"","","","","","html-keyboard-response","231","2241077","0.0-15.0-2.4-0.9","ghbl9s0dgx","","ghbl9s0dgx","""2024-11-18T20:31:30.370Z""","null","+","null","","","","","","",""
"","","","","","image-keyboard-response","232","2242793","0.0-15.0-2.4-1.9","ghbl9s0dgx","","ghbl9s0dgx","""2024-11-18T20:31:30.370Z""","1713","materials/imgs/D46.png","arrowleft","","[""materials/imgs/D92.png"",""materials/imgs/D77.png""]","false","validation","","",""
"","","","","","html-button-response","233","2393783","0.0-16.0","ghbl9s0dgx","","ghbl9s0dgx","""2024-11-18T20:31:30.370Z""","150988","You have completed 50% of the trials. Please click 'Continue' when you are ready proceed.","0","","","","","","",""
"","","","","","html-keyboard-response","234","2394285","0.0-17.0-0.0-0.0","ghbl9s0dgx","","ghbl9s0dgx","""2024-11-18T20:31:30.370Z""","null","+","null","","","","","","",""
"","","","","","image-keyboard-response","235","2397068","0.0-17.0-0.0-1.0","ghbl9s0dgx","","ghbl9s0dgx","""2024-11-18T20:31:30.370Z""","2780","materials/imgs/D68.png","arrowright","","[""materials/imgs/D34.png"",""materials/imgs/D81.png""]","false","random","","",""
"","","","","","html-keyboard-response","236","2397570","0.0-17.0-0.0-0.1","ghbl9s0dgx","","ghbl9s0dgx","""2024-11-18T20:31:30.370Z""","null","+","null","","","","","","",""
"","","","","","image-keyboard-response","237","2400126","0.0-17.0-0.0-1.1","ghbl9s0dgx","","ghbl9s0dgx","""2024-11-18T20:31:30.370Z""","2554","materials/imgs/D75.png","arrowright","","[""materials/imgs/D95.png"",""materials/imgs/D1.png""]","false","random","","",""
"","","","","","html-keyboard-response","238","2400635","0.0-17.0-0.0-0.2","ghbl9s0dgx","","ghbl9s0dgx","""2024-11-18T20:31:30.370Z""","null","+","null","","","","","","",""
"","","","","","image-keyboard-response","239","2402860","0.0-17.0-0.0-1.2","ghbl9s0dgx","","ghbl9s0dgx","""2024-11-18T20:31:30.370Z""","2222","materials/imgs/D56.png","arrowleft","","[""materials/imgs/D21.png"",""materials/imgs/D104.png""]","false","random","","",""
"","","","","","html-keyboard-response","240","2403367","0.0-17.0-0.0-0.3","ghbl9s0dgx","","ghbl9s0dgx","""2024-11-18T20:31:30.370Z""","null","+","null","","","","","","",""
"","","","","","image-keyboard-response","241","2404339","0.0-17.0-0.0-1.3","ghbl9s0dgx","","ghbl9s0dgx","""2024-11-18T20:31:30.370Z""","970","materials/imgs/D65.png","arrowleft","","[""materials/imgs/D49.png"",""materials/imgs/D77.png""]","false","random","","",""
"","","","","","html-keyboard-response","242","2404852","0.0-17.0-0.0-0.4","ghbl9s0dgx","","ghbl9s0dgx","""2024-11-18T20:31:30.370Z""","null","+","null","","","","","","",""
"","","","","","image-keyboard-response","243","2406173","0.0-17.0-0.0-1.4","ghbl9s0dgx","","ghbl9s0dgx","""2024-11-18T20:31:30.370Z""","1319","materials/imgs/D76.png","arrowright","","[""materials/imgs/D29.png"",""materials/imgs/D87.png""]","false","random","","",""
"","","","","","html-keyboard-response","244","2406683","0.0-17.0-0.0-0.5","ghbl9s0dgx","","ghbl9s0dgx","""2024-11-18T20:31:30.370Z""","null","+","null","","","","","","",""
"","","","","","image-keyboard-response","245","2409189","0.0-17.0-0.0-1.5","ghbl9s0dgx","","ghbl9s0dgx","""2024-11-18T20:31:30.370Z""","2503","materials/imgs/D87.png","arrowleft","","[""materials/imgs/D21.png"",""materials/imgs/D34.png""]","false","random","","",""
"","","","","","html-keyboard-response","246","2409703","0.0-17.0-0.0-0.6","ghbl9s0dgx","","ghbl9s0dgx","""2024-11-18T20:31:30.370Z""","null","+","null","","","","","","",""
"","","","","","image-keyboard-response","247","2410793","0.0-17.0-0.0-1.6","ghbl9s0dgx","","ghbl9s0dgx","""2024-11-18T20:31:30.370Z""","1088","materials/imgs/D4.png","arrowright","","[""materials/imgs/D19.png"",""materials/imgs/D16.png""]","false","random","","",""
"","","","","","html-keyboard-response","248","2411300","0.0-17.0-1.0-0.0","ghbl9s0dgx","","ghbl9s0dgx","""2024-11-18T20:31:30.370Z""","null","+","null","","","","","","",""
"","","","","","image-keyboard-response","249","2411834","0.0-17.0-1.0-1.0","ghbl9s0dgx","","ghbl9s0dgx","""2024-11-18T20:31:30.370Z""","533","materials/imgs/D76.png","arrowleft","","[""materials/imgs/D76.png"",""materials/imgs/D78.png""]","","check","materials/imgs/D76.png","0","true"
"","","","","","html-keyboard-response","250","2412340","0.0-17.0-2.0-0.0","ghbl9s0dgx","","ghbl9s0dgx","""2024-11-18T20:31:30.370Z""","null","+","null","","","","","","",""
"","","","","","image-keyboard-response","251","2414930","0.0-17.0-2.0-1.0","ghbl9s0dgx","","ghbl9s0dgx","""2024-11-18T20:31:30.370Z""","2589","materials/imgs/D96.png","arrowright","","[""materials/imgs/D46.png"",""materials/imgs/D18.png""]","false","validation","","",""
"","","","","","html-keyboard-response","252","2415442","0.0-17.0-2.0-0.1","ghbl9s0dgx","","ghbl9s0dgx","""2024-11-18T20:31:30.370Z""","null","+","null","","","","","","",""
"","","","","","image-keyboard-response","253","2417231","0.0-17.0-2.0-1.1","ghbl9s0dgx","","ghbl9s0dgx","""2024-11-18T20:31:30.370Z""","1787","materials/imgs/D95.png","arrowright","","[""materials/imgs/D36.png"",""materials/imgs/D4.png""]","false","validation","","",""
"","","","","","html-keyboard-response","254","2417749","0.0-17.0-0.1-0.7","ghbl9s0dgx","","ghbl9s0dgx","""2024-11-18T20:31:30.370Z""","null","+","null","","","","","","",""
"","","","","","image-keyboard-response","255","2419160","0.0-17.0-0.1-1.7","ghbl9s0dgx","","ghbl9s0dgx","""2024-11-18T20:31:30.370Z""","1408","materials/imgs/D84.png","arrowright","","[""materials/imgs/D25.png"",""materials/imgs/D47.png""]","false","random","","",""
"","","","","","html-keyboard-response","256","2419665","0.0-17.0-0.1-0.8","ghbl9s0dgx","","ghbl9s0dgx","""2024-11-18T20:31:30.370Z""","null","+","null","","","","","","",""
"","","","","","image-keyboard-response","257","2420317","0.0-17.0-0.1-1.8","ghbl9s0dgx","","ghbl9s0dgx","""2024-11-18T20:31:30.370Z""","648","materials/imgs/D34.png","arrowright","","[""materials/imgs/D1.png"",""materials/imgs/D52.png""]","false","random","","",""
"","","","","","html-keyboard-response","258","2420823","0.0-17.0-0.1-0.9","ghbl9s0dgx","","ghbl9s0dgx","""2024-11-18T20:31:30.370Z""","null","+","null","","","","","","",""
"","","","","","image-keyboard-response","259","2421502","0.0-17.0-0.1-1.9","ghbl9s0dgx","","ghbl9s0dgx","""2024-11-18T20:31:30.370Z""","676","materials/imgs/D53.png","arrowleft","","[""materials/imgs/D21.png"",""materials/imgs/D46.png""]","false","random","","",""
"","","","","","html-keyboard-response","260","2422009","0.0-17.0-0.1-0.10","ghbl9s0dgx","","ghbl9s0dgx","""2024-11-18T20:31:30.370Z""","null","+","null","","","","","","",""
"","","","","","image-keyboard-response","261","2423175","0.0-17.0-0.1-1.10","ghbl9s0dgx","","ghbl9s0dgx","""2024-11-18T20:31:30.370Z""","1164","materials/imgs/D66.png","arrowright","","[""materials/imgs/D26.png"",""materials/imgs/D16.png""]","false","random","","",""
"","","","","","html-keyboard-response","262","2423686","0.0-17.0-0.1-0.11","ghbl9s0dgx","","ghbl9s0dgx","""2024-11-18T20:31:30.370Z""","null","+","null","","","","","","",""
"","","","","","image-keyboard-response","263","2424780","0.0-17.0-0.1-1.11","ghbl9s0dgx","","ghbl9s0dgx","""2024-11-18T20:31:30.370Z""","1090","materials/imgs/D82.png","arrowright","","[""materials/imgs/D25.png"",""materials/imgs/D104.png""]","false","random","","",""
"","","","","","html-keyboard-response","264","2425281","0.0-17.0-0.1-0.12","ghbl9s0dgx","","ghbl9s0dgx","""2024-11-18T20:31:30.370Z""","null","+","null","","","","","","",""
"","","","","","image-keyboard-response","265","2426095","0.0-17.0-0.1-1.12","ghbl9s0dgx","","ghbl9s0dgx","""2024-11-18T20:31:30.370Z""","812","materials/imgs/D32.png","arrowleft","","[""materials/imgs/D19.png"",""materials/imgs/D20.png""]","false","random","","",""
"","","","","","html-keyboard-response","266","2426606","0.0-17.0-0.1-0.13","ghbl9s0dgx","","ghbl9s0dgx","""2024-11-18T20:31:30.370Z""","null","+","null","","","","","","",""
"","","","","","image-keyboard-response","267","2427743","0.0-17.0-0.1-1.13","ghbl9s0dgx","","ghbl9s0dgx","""2024-11-18T20:31:30.370Z""","1134","materials/imgs/D68.png","arrowright","","[""materials/imgs/D51.png"",""materials/imgs/D76.png""]","false","random","","",""
"","","","","","html-keyboard-response","268","2428253","0.0-17.0-1.1-0.1","ghbl9s0dgx","","ghbl9s0dgx","""2024-11-18T20:31:30.370Z""","null","+","null","","","","","","",""
"","","","","","image-keyboard-response","269","2429010","0.0-17.0-1.1-1.1","ghbl9s0dgx","","ghbl9s0dgx","""2024-11-18T20:31:30.370Z""","754","materials/imgs/D8.png","arrowright","","[""materials/imgs/D18.png"",""materials/imgs/D8.png""]","","check","materials/imgs/D8.png","1","true"
"","","","","","html-keyboard-response","270","2429515","0.0-17.0-2.1-0.2","ghbl9s0dgx","","ghbl9s0dgx","""2024-11-18T20:31:30.370Z""","null","+","null","","","","","","",""
"","","","","","image-keyboard-response","271","2431187","0.0-17.0-2.1-1.2","ghbl9s0dgx","","ghbl9s0dgx","""2024-11-18T20:31:30.370Z""","1669","materials/imgs/D103.png","arrowleft","","[""materials/imgs/D76.png"",""materials/imgs/D106.png""]","false","validation","","",""
"","","","","","html-keyboard-response","272","2431699","0.0-17.0-2.1-0.3","ghbl9s0dgx","","ghbl9s0dgx","""2024-11-18T20:31:30.370Z""","null","+","null","","","","","","",""
"","","","","","image-keyboard-response","273","2432733","0.0-17.0-2.1-1.3","ghbl9s0dgx","","ghbl9s0dgx","""2024-11-18T20:31:30.370Z""","1032","materials/imgs/D25.png","arrowright","","[""materials/imgs/D103.png"",""materials/imgs/D64.png""]","false","validation","","",""
"","","","","","html-keyboard-response","274","2433234","0.0-17.0-0.2-0.14","ghbl9s0dgx","","ghbl9s0dgx","""2024-11-18T20:31:30.370Z""","null","+","null","","","","","","",""
"","","","","","image-keyboard-response","275","2433993","0.0-17.0-0.2-1.14","ghbl9s0dgx","","ghbl9s0dgx","""2024-11-18T20:31:30.370Z""","756","materials/imgs/D104.png","arrowleft","","[""materials/imgs/D80.png"",""materials/imgs/D105.png""]","false","random","","",""
"","","","","","html-keyboard-response","276","2434498","0.0-17.0-0.2-0.15","ghbl9s0dgx","","ghbl9s0dgx","""2024-11-18T20:31:30.370Z""","null","+","null","","","","","","",""
"","","","","","image-keyboard-response","277","2435577","0.0-17.0-0.2-1.15","ghbl9s0dgx","","ghbl9s0dgx","""2024-11-18T20:31:30.370Z""","1076","materials/imgs/D101.png","arrowright","","[""materials/imgs/D106.png"",""materials/imgs/D56.png""]","false","random","","",""
"","","","","","html-keyboard-response","278","2436084","0.0-17.0-0.2-0.16","ghbl9s0dgx","","ghbl9s0dgx","""2024-11-18T20:31:30.370Z""","null","+","null","","","","","","",""
"","","","","","image-keyboard-response","279","2437303","0.0-17.0-0.2-1.16","ghbl9s0dgx","","ghbl9s0dgx","""2024-11-18T20:31:30.370Z""","1217","materials/imgs/D17.png","arrowleft","","[""materials/imgs/D76.png"",""materials/imgs/D78.png""]","false","random","","",""
"","","","","","html-keyboard-response","280","2437815","0.0-17.0-0.2-0.17","ghbl9s0dgx","","ghbl9s0dgx","""2024-11-18T20:31:30.370Z""","null","+","null","","","","","","",""
"","","","","","image-keyboard-response","281","2439230","0.0-17.0-0.2-1.17","ghbl9s0dgx","","ghbl9s0dgx","""2024-11-18T20:31:30.370Z""","1411","materials/imgs/D79.png","arrowright","","[""materials/imgs/D74.png"",""materials/imgs/D65.png""]","false","random","","",""
"","","","","","html-keyboard-response","282","2439737","0.0-17.0-0.2-0.18","ghbl9s0dgx","","ghbl9s0dgx","""2024-11-18T20:31:30.370Z""","null","+","null","","","","","","",""
"","","","","","image-keyboard-response","283","2440628","0.0-17.0-0.2-1.18","ghbl9s0dgx","","ghbl9s0dgx","""2024-11-18T20:31:30.370Z""","889","materials/imgs/D34.png","arrowright","","[""materials/imgs/D84.png"",""materials/imgs/D36.png""]","false","random","","",""
"","","","","","html-keyboard-response","284","2441134","0.0-17.0-0.2-0.19","ghbl9s0dgx","","ghbl9s0dgx","""2024-11-18T20:31:30.370Z""","null","+","null","","","","","","",""
"","","","","","image-keyboard-response","285","2442160","0.0-17.0-0.2-1.19","ghbl9s0dgx","","ghbl9s0dgx","""2024-11-18T20:31:30.370Z""","1024","materials/imgs/D14.png","arrowright","","[""materials/imgs/D22.png"",""materials/imgs/D55.png""]","false","random","","",""
"","","","","","html-keyboard-response","286","2442672","0.0-17.0-0.2-0.20","ghbl9s0dgx","","ghbl9s0dgx","""2024-11-18T20:31:30.370Z""","null","+","null","","","","","","",""
"","","","","","image-keyboard-response","287","2444796","0.0-17.0-0.2-1.20","ghbl9s0dgx","","ghbl9s0dgx","""2024-11-18T20:31:30.370Z""","2122","materials/imgs/D32.png","arrowleft","","[""materials/imgs/D22.png"",""materials/imgs/D74.png""]","false","random","","",""
"","","","","","html-keyboard-response","288","2445312","0.0-17.0-1.2-0.2","ghbl9s0dgx","","ghbl9s0dgx","""2024-11-18T20:31:30.370Z""","null","+","null","","","","","","",""
"","","","","","image-keyboard-response","289","2445853","0.0-17.0-1.2-1.2","ghbl9s0dgx","","ghbl9s0dgx","""2024-11-18T20:31:30.370Z""","539","materials/imgs/D53.png","arrowright","","[""materials/imgs/D64.png"",""materials/imgs/D53.png""]","","check","materials/imgs/D53.png","1","true"
"","","","","","html-keyboard-response","290","2446370","0.0-17.0-2.2-0.4","ghbl9s0dgx","","ghbl9s0dgx","""2024-11-18T20:31:30.370Z""","null","+","null","","","","","","",""
"","","","","","image-keyboard-response","291","2447321","0.0-17.0-2.2-1.4","ghbl9s0dgx","","ghbl9s0dgx","""2024-11-18T20:31:30.370Z""","949","materials/imgs/D68.png","arrowleft","","[""materials/imgs/D96.png"",""materials/imgs/D48.png""]","false","validation","","",""
"","","","","","html-keyboard-response","292","2447829","0.0-17.0-2.2-0.5","ghbl9s0dgx","","ghbl9s0dgx","""2024-11-18T20:31:30.370Z""","null","+","null","","","","","","",""
"","","","","","image-keyboard-response","293","2448454","0.0-17.0-2.2-1.5","ghbl9s0dgx","","ghbl9s0dgx","""2024-11-18T20:31:30.370Z""","623","materials/imgs/D16.png","arrowleft","","[""materials/imgs/D52.png"",""materials/imgs/D25.png""]","false","validation","","",""
"","","","","","html-keyboard-response","294","2448964","0.0-17.0-0.3-0.21","ghbl9s0dgx","","ghbl9s0dgx","""2024-11-18T20:31:30.370Z""","null","+","null","","","","","","",""
"","","","","","image-keyboard-response","295","2450064","0.0-17.0-0.3-1.21","ghbl9s0dgx","","ghbl9s0dgx","""2024-11-18T20:31:30.370Z""","1098","materials/imgs/D18.png","arrowleft","","[""materials/imgs/D96.png"",""materials/imgs/D66.png""]","false","random","","",""
"","","","","","html-keyboard-response","296","2450579","0.0-17.0-0.3-0.22","ghbl9s0dgx","","ghbl9s0dgx","""2024-11-18T20:31:30.370Z""","null","+","null","","","","","","",""
"","","","","","image-keyboard-response","297","2451559","0.0-17.0-0.3-1.22","ghbl9s0dgx","","ghbl9s0dgx","""2024-11-18T20:31:30.370Z""","977","materials/imgs/D48.png","arrowleft","","[""materials/imgs/D8.png"",""materials/imgs/D95.png""]","false","random","","",""
"","","","","","html-keyboard-response","298","2452068","0.0-17.0-0.3-0.23","ghbl9s0dgx","","ghbl9s0dgx","""2024-11-18T20:31:30.370Z""","null","+","null","","","","","","",""
"","","","","","image-keyboard-response","299","2454031","0.0-17.0-0.3-1.23","ghbl9s0dgx","","ghbl9s0dgx","""2024-11-18T20:31:30.370Z""","1961","materials/imgs/D96.png","arrowright","","[""materials/imgs/D104.png"",""materials/imgs/D49.png""]","false","random","","",""
"","","","","","html-keyboard-response","300","2454549","0.0-17.0-0.3-0.24","ghbl9s0dgx","","ghbl9s0dgx","""2024-11-18T20:31:30.370Z""","null","+","null","","","","","","",""
"","","","","","image-keyboard-response","301","2455511","0.0-17.0-0.3-1.24","ghbl9s0dgx","","ghbl9s0dgx","""2024-11-18T20:31:30.370Z""","959","materials/imgs/D101.png","arrowleft","","[""materials/imgs/D87.png"",""materials/imgs/D35.png""]","false","random","","",""
"","","","","","html-keyboard-response","302","2456015","0.0-17.0-0.3-0.25","ghbl9s0dgx","","ghbl9s0dgx","""2024-11-18T20:31:30.370Z""","null","+","null","","","","","","",""
"","","","","","image-keyboard-response","303","2457341","0.0-17.0-0.3-1.25","ghbl9s0dgx","","ghbl9s0dgx","""2024-11-18T20:31:30.370Z""","1324","materials/imgs/D64.png","arrowright","","[""materials/imgs/D68.png"",""materials/imgs/D46.png""]","false","random","","",""
"","","","","","html-keyboard-response","304","2457847","0.0-17.0-0.3-0.26","ghbl9s0dgx","","ghbl9s0dgx","""2024-11-18T20:31:30.370Z""","null","+","null","","","","","","",""
"","","","","","image-keyboard-response","305","2458519","0.0-17.0-0.3-1.26","ghbl9s0dgx","","ghbl9s0dgx","""2024-11-18T20:31:30.370Z""","670","materials/imgs/D6.png","arrowleft","","[""materials/imgs/D57.png"",""materials/imgs/D94.png""]","false","random","","",""
"","","","","","html-keyboard-response","306","2459029","0.0-17.0-0.3-0.27","ghbl9s0dgx","","ghbl9s0dgx","""2024-11-18T20:31:30.370Z""","null","+","null","","","","","","",""
"","","","","","image-keyboard-response","307","2459826","0.0-17.0-0.3-1.27","ghbl9s0dgx","","ghbl9s0dgx","""2024-11-18T20:31:30.370Z""","794","materials/imgs/D82.png","arrowleft","","[""materials/imgs/D22.png"",""materials/imgs/D79.png""]","false","random","","",""
"","","","","","html-keyboard-response","308","2460338","0.0-17.0-1.3-0.3","ghbl9s0dgx","","ghbl9s0dgx","""2024-11-18T20:31:30.370Z""","null","+","null","","","","","","",""
"","","","","","image-keyboard-response","309","2460941","0.0-17.0-1.3-1.3","ghbl9s0dgx","","ghbl9s0dgx","""2024-11-18T20:31:30.370Z""","601","materials/imgs/D64.png","arrowleft","","[""materials/imgs/D64.png"",""materials/imgs/D53.png""]","","check","materials/imgs/D64.png","0","true"
"","","","","","html-keyboard-response","310","2461455","0.0-17.0-2.3-0.6","ghbl9s0dgx","","ghbl9s0dgx","""2024-11-18T20:31:30.370Z""","null","+","null","","","","","","",""
"","","","","","image-keyboard-response","311","2462820","0.0-17.0-2.3-1.6","ghbl9s0dgx","","ghbl9s0dgx","""2024-11-18T20:31:30.370Z""","1363","materials/imgs/D66.png","arrowleft","","[""materials/imgs/D85.png"",""materials/imgs/D25.png""]","false","validation","","",""
"","","","","","html-keyboard-response","312","2463324","0.0-17.0-2.3-0.7","ghbl9s0dgx","","ghbl9s0dgx","""2024-11-18T20:31:30.370Z""","null","+","null","","","","","","",""
"","","","","","image-keyboard-response","313","2464343","0.0-17.0-2.3-1.7","ghbl9s0dgx","","ghbl9s0dgx","""2024-11-18T20:31:30.370Z""","1017","materials/imgs/D51.png","arrowright","","[""materials/imgs/D92.png"",""materials/imgs/D20.png""]","false","validation","","",""
"","","","","","html-keyboard-response","314","2464855","0.0-17.0-0.4-0.28","ghbl9s0dgx","","ghbl9s0dgx","""2024-11-18T20:31:30.370Z""","null","+","null","","","","","","",""
"","","","","","image-keyboard-response","315","2465445","0.0-17.0-0.4-1.28","ghbl9s0dgx","","ghbl9s0dgx","""2024-11-18T20:31:30.370Z""","587","materials/imgs/D9.png","arrowleft","","[""materials/imgs/D4.png"",""materials/imgs/D102.png""]","false","random","","",""
"","","","","","html-keyboard-response","316","2465959","0.0-17.0-0.4-0.29","ghbl9s0dgx","","ghbl9s0dgx","""2024-11-18T20:31:30.370Z""","null","+","null","","","","","","",""
"","","","","","image-keyboard-response","317","2466902","0.0-17.0-0.4-1.29","ghbl9s0dgx","","ghbl9s0dgx","""2024-11-18T20:31:30.370Z""","940","materials/imgs/D101.png","arrowleft","","[""materials/imgs/D14.png"",""materials/imgs/D35.png""]","false","random","","",""
"","","","","","html-keyboard-response","318","2467416","0.0-17.0-0.4-0.30","ghbl9s0dgx","","ghbl9s0dgx","""2024-11-18T20:31:30.370Z""","null","+","null","","","","","","",""
"","","","","","image-keyboard-response","319","2468436","0.0-17.0-0.4-1.30","ghbl9s0dgx","","ghbl9s0dgx","""2024-11-18T20:31:30.370Z""","1018","materials/imgs/D25.png","arrowright","","[""materials/imgs/D9.png"",""materials/imgs/D65.png""]","false","random","","",""
"","","","","","html-keyboard-response","320","2468948","0.0-17.0-0.4-0.31","ghbl9s0dgx","","ghbl9s0dgx","""2024-11-18T20:31:30.370Z""","null","+","null","","","","","","",""
"","","","","","image-keyboard-response","321","2470462","0.0-17.0-0.4-1.31","ghbl9s0dgx","","ghbl9s0dgx","""2024-11-18T20:31:30.370Z""","1511","materials/imgs/D76.png","arrowleft","","[""materials/imgs/D82.png"",""materials/imgs/D83.png""]","false","random","","",""
"","","","","","html-keyboard-response","322","2470976","0.0-17.0-0.4-0.32","ghbl9s0dgx","","ghbl9s0dgx","""2024-11-18T20:31:30.370Z""","null","+","null","","","","","","",""
"","","","","","image-keyboard-response","323","2471673","0.0-17.0-0.4-1.32","ghbl9s0dgx","","ghbl9s0dgx","""2024-11-18T20:31:30.370Z""","694","materials/imgs/D8.png","arrowleft","","[""materials/imgs/D19.png"",""materials/imgs/D53.png""]","false","random","","",""
"","","","","","html-keyboard-response","324","2472189","0.0-17.0-0.4-0.33","ghbl9s0dgx","","ghbl9s0dgx","""2024-11-18T20:31:30.370Z""","null","+","null","","","","","","",""
"","","","","","image-keyboard-response","325","2473511","0.0-17.0-0.4-1.33","ghbl9s0dgx","","ghbl9s0dgx","""2024-11-18T20:31:30.370Z""","1320","materials/imgs/D57.png","arrowleft","","[""materials/imgs/D6.png"",""materials/imgs/D83.png""]","false","random","","",""
"","","","","","html-keyboard-response","326","2474027","0.0-17.0-0.4-0.34","ghbl9s0dgx","","ghbl9s0dgx","""2024-11-18T20:31:30.370Z""","null","+","null","","","","","","",""
"","","","","","image-keyboard-response","327","2475343","0.0-17.0-0.4-1.34","ghbl9s0dgx","","ghbl9s0dgx","""2024-11-18T20:31:30.370Z""","1313","materials/imgs/D49.png","arrowright","","[""materials/imgs/D75.png"",""materials/imgs/D83.png""]","false","random","","",""
"","","","","","html-keyboard-response","328","2475851","0.0-17.0-1.4-0.4","ghbl9s0dgx","","ghbl9s0dgx","""2024-11-18T20:31:30.370Z""","null","+","null","","","","","","",""
"","","","","","image-keyboard-response","329","2476520","0.0-17.0-1.4-1.4","ghbl9s0dgx","","ghbl9s0dgx","""2024-11-18T20:31:30.370Z""","666","materials/imgs/D53.png","arrowright","","[""materials/imgs/D64.png"",""materials/imgs/D53.png""]","","check","materials/imgs/D53.png","1","true"
"","","","","","html-keyboard-response","330","2477036","0.0-17.0-2.4-0.8","ghbl9s0dgx","","ghbl9s0dgx","""2024-11-18T20:31:30.370Z""","null","+","null","","","","","","",""
"","","","","","image-keyboard-response","331","2479089","0.0-17.0-2.4-1.8","ghbl9s0dgx","","ghbl9s0dgx","""2024-11-18T20:31:30.370Z""","2050","materials/imgs/D46.png","arrowleft","","[""materials/imgs/D92.png"",""materials/imgs/D77.png""]","false","validation","","",""
"","","","","","html-keyboard-response","332","2479595","0.0-17.0-2.4-0.9","ghbl9s0dgx","","ghbl9s0dgx","""2024-11-18T20:31:30.370Z""","null","+","null","","","","","","",""
"","","","","","image-keyboard-response","333","2480551","0.0-17.0-2.4-1.9","ghbl9s0dgx","","ghbl9s0dgx","""2024-11-18T20:31:30.370Z""","953","materials/imgs/D35.png","arrowleft","","[""materials/imgs/D83.png"",""materials/imgs/D24.png""]","false","validation","","",""
"","","","","","html-button-response","334","2520643","0.0-18.0","ghbl9s0dgx","","ghbl9s0dgx","""2024-11-18T20:31:30.370Z""","40090","You have completed 75% of the trials. Please click 'Continue' when you are ready proceed.","0","","","","","","",""
"","","","","","html-keyboard-response","335","2521151","0.0-19.0-0.0-0.0","ghbl9s0dgx","","ghbl9s0dgx","""2024-11-18T20:31:30.370Z""","null","+","null","","","","","","",""
"","","","","","image-keyboard-response","336","2522579","0.0-19.0-0.0-1.0","ghbl9s0dgx","","ghbl9s0dgx","""2024-11-18T20:31:30.370Z""","1425","materials/imgs/D84.png","arrowleft","","[""materials/imgs/D111.png"",""materials/imgs/D66.png""]","false","random","","",""
"","","","","","html-keyboard-response","337","2523087","0.0-19.0-0.0-0.1","ghbl9s0dgx","","ghbl9s0dgx","""2024-11-18T20:31:30.370Z""","null","+","null","","","","","","",""
"","","","","","image-keyboard-response","338","2524095","0.0-19.0-0.0-1.1","ghbl9s0dgx","","ghbl9s0dgx","""2024-11-18T20:31:30.370Z""","1004","materials/imgs/D25.png","arrowright","","[""materials/imgs/D48.png"",""materials/imgs/D1.png""]","false","random","","",""
"","","","","","html-keyboard-response","339","2524609","0.0-19.0-0.0-0.2","ghbl9s0dgx","","ghbl9s0dgx","""2024-11-18T20:31:30.370Z""","null","+","null","","","","","","",""
"","","","","","image-keyboard-response","340","2527035","0.0-19.0-0.0-1.2","ghbl9s0dgx","","ghbl9s0dgx","""2024-11-18T20:31:30.370Z""","2424","materials/imgs/D95.png","arrowright","","[""materials/imgs/D24.png"",""materials/imgs/D35.png""]","false","random","","",""
"","","","","","html-keyboard-response","341","2527549","0.0-19.0-0.0-0.3","ghbl9s0dgx","","ghbl9s0dgx","""2024-11-18T20:31:30.370Z""","null","+","null","","","","","","",""
"","","","","","image-keyboard-response","342","2528556","0.0-19.0-0.0-1.3","ghbl9s0dgx","","ghbl9s0dgx","""2024-11-18T20:31:30.370Z""","1004","materials/imgs/D11.png","arrowright","","[""materials/imgs/D96.png"",""materials/imgs/D55.png""]","false","random","","",""
"","","","","","html-keyboard-response","343","2529066","0.0-19.0-0.0-0.4","ghbl9s0dgx","","ghbl9s0dgx","""2024-11-18T20:31:30.370Z""","null","+","null","","","","","","",""
"","","","","","image-keyboard-response","344","2530190","0.0-19.0-0.0-1.4","ghbl9s0dgx","","ghbl9s0dgx","""2024-11-18T20:31:30.370Z""","1121","materials/imgs/D102.png","arrowleft","","[""materials/imgs/D14.png"",""materials/imgs/D95.png""]","false","random","","",""
"","","","","","html-keyboard-response","345","2530696","0.0-19.0-0.0-0.5","ghbl9s0dgx","","ghbl9s0dgx","""2024-11-18T20:31:30.370Z""","null","+","null","","","","","","",""
"","","","","","image-keyboard-response","346","2531493","0.0-19.0-0.0-1.5","ghbl9s0dgx","","ghbl9s0dgx","""2024-11-18T20:31:30.370Z""","794","materials/imgs/D34.png","arrowleft","","[""materials/imgs/D20.png"",""materials/imgs/D92.png""]","false","random","","",""
"","","","","","html-keyboard-response","347","2532005","0.0-19.0-0.0-0.6","ghbl9s0dgx","","ghbl9s0dgx","""2024-11-18T20:31:30.370Z""","null","+","null","","","","","","",""
"","","","","","image-keyboard-response","348","2532749","0.0-19.0-0.0-1.6","ghbl9s0dgx","","ghbl9s0dgx","""2024-11-18T20:31:30.370Z""","741","materials/imgs/D49.png","arrowleft","","[""materials/imgs/D78.png"",""materials/imgs/D48.png""]","false","random","","",""
"","","","","","html-keyboard-response","349","2533253","0.0-19.0-1.0-0.0","ghbl9s0dgx","","ghbl9s0dgx","""2024-11-18T20:31:30.370Z""","null","+","null","","","","","","",""
"","","","","","image-keyboard-response","350","2533773","0.0-19.0-1.0-1.0","ghbl9s0dgx","","ghbl9s0dgx","""2024-11-18T20:31:30.370Z""","517","materials/imgs/D8.png","arrowright","","[""materials/imgs/D18.png"",""materials/imgs/D8.png""]","","check","materials/imgs/D8.png","1","true"
"","","","","","html-keyboard-response","351","2534278","0.0-19.0-2.0-0.0","ghbl9s0dgx","","ghbl9s0dgx","""2024-11-18T20:31:30.370Z""","null","+","null","","","","","","",""
"","","","","","image-keyboard-response","352","2534787","0.0-19.0-2.0-1.0","ghbl9s0dgx","","ghbl9s0dgx","""2024-11-18T20:31:30.370Z""","507","materials/imgs/D105.png","arrowleft","","[""materials/imgs/D106.png"",""materials/imgs/D52.png""]","false","validation","","",""
"","","","","","html-keyboard-response","353","2535301","0.0-19.0-2.0-0.1","ghbl9s0dgx","","ghbl9s0dgx","""2024-11-18T20:31:30.370Z""","null","+","null","","","","","","",""
"","","","","","image-keyboard-response","354","2538205","0.0-19.0-2.0-1.1","ghbl9s0dgx","","ghbl9s0dgx","""2024-11-18T20:31:30.370Z""","2901","materials/imgs/D26.png","arrowright","","[""materials/imgs/D36.png"",""materials/imgs/D92.png""]","false","validation","","",""
"","","","","","html-keyboard-response","355","2538708","0.0-19.0-0.1-0.7","ghbl9s0dgx","","ghbl9s0dgx","""2024-11-18T20:31:30.370Z""","null","+","null","","","","","","",""
"","","","","","image-keyboard-response","356","2541630","0.0-19.0-0.1-1.7","ghbl9s0dgx","","ghbl9s0dgx","""2024-11-18T20:31:30.370Z""","2920","materials/imgs/D19.png","arrowright","","[""materials/imgs/D75.png"",""materials/imgs/D48.png""]","false","random","","",""
"","","","","","html-keyboard-response","357","2542136","0.0-19.0-0.1-0.8","ghbl9s0dgx","","ghbl9s0dgx","""2024-11-18T20:31:30.370Z""","null","+","null","","","","","","",""
"","","","","","image-keyboard-response","358","2543102","0.0-19.0-0.1-1.8","ghbl9s0dgx","","ghbl9s0dgx","""2024-11-18T20:31:30.370Z""","962","materials/imgs/D56.png","arrowleft","","[""materials/imgs/D68.png"",""materials/imgs/D32.png""]","false","random","","",""
"","","","","","html-keyboard-response","359","2543605","0.0-19.0-0.1-0.9","ghbl9s0dgx","","ghbl9s0dgx","""2024-11-18T20:31:30.370Z""","null","+","null","","","","","","",""
"","","","","","image-keyboard-response","360","2544114","0.0-19.0-0.1-1.9","ghbl9s0dgx","","ghbl9s0dgx","""2024-11-18T20:31:30.370Z""","507","materials/imgs/D34.png","arrowleft","","[""materials/imgs/D77.png"",""materials/imgs/D57.png""]","false","random","","",""
"","","","","","html-keyboard-response","361","2544629","0.0-19.0-0.1-0.10","ghbl9s0dgx","","ghbl9s0dgx","""2024-11-18T20:31:30.370Z""","null","+","null","","","","","","",""
"","","","","","image-keyboard-response","362","2546429","0.0-19.0-0.1-1.10","ghbl9s0dgx","","ghbl9s0dgx","""2024-11-18T20:31:30.370Z""","1798","materials/imgs/D29.png","arrowright","","[""materials/imgs/D20.png"",""materials/imgs/D36.png""]","false","random","","",""
"","","","","","html-keyboard-response","363","2546933","0.0-19.0-0.1-0.11","ghbl9s0dgx","","ghbl9s0dgx","""2024-11-18T20:31:30.370Z""","null","+","null","","","","","","",""
"","","","","","image-keyboard-response","364","2547512","0.0-19.0-0.1-1.11","ghbl9s0dgx","","ghbl9s0dgx","""2024-11-18T20:31:30.370Z""","576","materials/imgs/D4.png","arrowleft","","[""materials/imgs/D20.png"",""materials/imgs/D47.png""]","false","random","","",""
"","","","","","html-keyboard-response","365","2548021","0.0-19.0-0.1-0.12","ghbl9s0dgx","","ghbl9s0dgx","""2024-11-18T20:31:30.370Z""","null","+","null","","","","","","",""
"","","","","","image-keyboard-response","366","2548881","0.0-19.0-0.1-1.12","ghbl9s0dgx","","ghbl9s0dgx","""2024-11-18T20:31:30.370Z""","858","materials/imgs/D22.png","arrowright","","[""materials/imgs/D51.png"",""materials/imgs/D20.png""]","false","random","","",""
"","","","","","html-keyboard-response","367","2549383","0.0-19.0-0.1-0.13","ghbl9s0dgx","","ghbl9s0dgx","""2024-11-18T20:31:30.370Z""","null","+","null","","","","","","",""
"","","","","","image-keyboard-response","368","2550426","0.0-19.0-0.1-1.13","ghbl9s0dgx","","ghbl9s0dgx","""2024-11-18T20:31:30.370Z""","1040","materials/imgs/D111.png","arrowleft","","[""materials/imgs/D47.png"",""materials/imgs/D53.png""]","false","random","","",""
"","","","","","html-keyboard-response","369","2550936","0.0-19.0-1.1-0.1","ghbl9s0dgx","","ghbl9s0dgx","""2024-11-18T20:31:30.370Z""","null","+","null","","","","","","",""
"","","","","","image-keyboard-response","370","2551419","0.0-19.0-1.1-1.1","ghbl9s0dgx","","ghbl9s0dgx","""2024-11-18T20:31:30.370Z""","480","materials/imgs/D78.png","arrowright","","[""materials/imgs/D76.png"",""materials/imgs/D78.png""]","","check","materials/imgs/D78.png","1","true"
"","","","","","html-keyboard-response","371","2551925","0.0-19.0-2.1-0.2","ghbl9s0dgx","","ghbl9s0dgx","""2024-11-18T20:31:30.370Z""","null","+","null","","","","","","",""
"","","","","","image-keyboard-response","372","2552866","0.0-19.0-2.1-1.2","ghbl9s0dgx","","ghbl9s0dgx","""2024-11-18T20:31:30.370Z""","937","materials/imgs/D76.png","arrowleft","","[""materials/imgs/D83.png"",""materials/imgs/D6.png""]","false","validation","","",""
"","","","","","html-keyboard-response","373","2553382","0.0-19.0-2.1-0.3","ghbl9s0dgx","","ghbl9s0dgx","""2024-11-18T20:31:30.370Z""","null","+","null","","","","","","",""
"","","","","","image-keyboard-response","374","2554413","0.0-19.0-2.1-1.3","ghbl9s0dgx","","ghbl9s0dgx","""2024-11-18T20:31:30.370Z""","1029","materials/imgs/D48.png","arrowright","","[""materials/imgs/D4.png"",""materials/imgs/D37.png""]","false","validation","","",""
"","","","","","html-keyboard-response","375","2554917","0.0-19.0-0.2-0.14","ghbl9s0dgx","","ghbl9s0dgx","""2024-11-18T20:31:30.370Z""","null","+","null","","","","","","",""
"","","","","","image-keyboard-response","376","2555993","0.0-19.0-0.2-1.14","ghbl9s0dgx","","ghbl9s0dgx","""2024-11-18T20:31:30.370Z""","1072","materials/imgs/D52.png","arrowleft","","[""materials/imgs/D21.png"",""materials/imgs/D1.png""]","false","random","","",""
"","","","","","html-keyboard-response","377","2556500","0.0-19.0-0.2-0.15","ghbl9s0dgx","","ghbl9s0dgx","""2024-11-18T20:31:30.370Z""","null","+","null","","","","","","",""
"","","","","","image-keyboard-response","378","2557331","0.0-19.0-0.2-1.15","ghbl9s0dgx","","ghbl9s0dgx","""2024-11-18T20:31:30.370Z""","828","materials/imgs/D17.png","arrowright","","[""materials/imgs/D32.png"",""materials/imgs/D65.png""]","false","random","","",""
"","","","","","html-keyboard-response","379","2557836","0.0-19.0-0.2-0.16","ghbl9s0dgx","","ghbl9s0dgx","""2024-11-18T20:31:30.370Z""","null","+","null","","","","","","",""
"","","","","","image-keyboard-response","380","2559100","0.0-19.0-0.2-1.16","ghbl9s0dgx","","ghbl9s0dgx","""2024-11-18T20:31:30.370Z""","1261","materials/imgs/D6.png","arrowright","","[""materials/imgs/D1.png"",""materials/imgs/D22.png""]","false","random","","",""
"","","","","","html-keyboard-response","381","2559611","0.0-19.0-0.2-0.17","ghbl9s0dgx","","ghbl9s0dgx","""2024-11-18T20:31:30.370Z""","null","+","null","","","","","","",""
"","","","","","image-keyboard-response","382","2561060","0.0-19.0-0.2-1.17","ghbl9s0dgx","","ghbl9s0dgx","""2024-11-18T20:31:30.370Z""","1447","materials/imgs/D78.png","arrowleft","","[""materials/imgs/D20.png"",""materials/imgs/D46.png""]","false","random","","",""
"","","","","","html-keyboard-response","383","2561578","0.0-19.0-0.2-0.18","ghbl9s0dgx","","ghbl9s0dgx","""2024-11-18T20:31:30.370Z""","null","+","null","","","","","","",""
"","","","","","image-keyboard-response","384","2562725","0.0-19.0-0.2-1.18","ghbl9s0dgx","","ghbl9s0dgx","""2024-11-18T20:31:30.370Z""","1145","materials/imgs/D20.png","arrowleft","","[""materials/imgs/D82.png"",""materials/imgs/D3.png""]","false","random","","",""
"","","","","","html-keyboard-response","385","2563228","0.0-19.0-0.2-0.19","ghbl9s0dgx","","ghbl9s0dgx","""2024-11-18T20:31:30.370Z""","null","+","null","","","","","","",""
"","","","","","image-keyboard-response","386","2563985","0.0-19.0-0.2-1.19","ghbl9s0dgx","","ghbl9s0dgx","""2024-11-18T20:31:30.370Z""","754","materials/imgs/D66.png","arrowright","","[""materials/imgs/D83.png"",""materials/imgs/D75.png""]","false","random","","",""
"","","","","","html-keyboard-response","387","2564492","0.0-19.0-0.2-0.20","ghbl9s0dgx","","ghbl9s0dgx","""2024-11-18T20:31:30.370Z""","null","+","null","","","","","","",""
"","","","","","image-keyboard-response","388","2566377","0.0-19.0-0.2-1.20","ghbl9s0dgx","","ghbl9s0dgx","""2024-11-18T20:31:30.370Z""","1882","materials/imgs/D102.png","arrowright","","[""materials/imgs/D77.png"",""materials/imgs/D19.png""]","false","random","","",""
"","","","","","html-keyboard-response","389","2566892","0.0-19.0-1.2-0.2","ghbl9s0dgx","","ghbl9s0dgx","""2024-11-18T20:31:30.370Z""","null","+","null","","","","","","",""
"","","","","","image-keyboard-response","390","2567422","0.0-19.0-1.2-1.2","ghbl9s0dgx","","ghbl9s0dgx","""2024-11-18T20:31:30.370Z""","528","materials/imgs/D46.png","arrowleft","","[""materials/imgs/D46.png"",""materials/imgs/D26.png""]","","check","materials/imgs/D46.png","0","true"
"","","","","","html-keyboard-response","391","2567929","0.0-19.0-2.2-0.4","ghbl9s0dgx","","ghbl9s0dgx","""2024-11-18T20:31:30.370Z""","null","+","null","","","","","","",""
"","","","","","image-keyboard-response","392","2569516","0.0-19.0-2.2-1.4","ghbl9s0dgx","","ghbl9s0dgx","""2024-11-18T20:31:30.370Z""","1585","materials/imgs/D37.png","arrowleft","","[""materials/imgs/D84.png"",""materials/imgs/D111.png""]","false","validation","","",""
"","","","","","html-keyboard-response","393","2570025","0.0-19.0-2.2-0.5","ghbl9s0dgx","","ghbl9s0dgx","""2024-11-18T20:31:30.370Z""","null","+","null","","","","","","",""
"","","","","","image-keyboard-response","394","2571239","0.0-19.0-2.2-1.5","ghbl9s0dgx","","ghbl9s0dgx","""2024-11-18T20:31:30.370Z""","1211","materials/imgs/D18.png","arrowright","","[""materials/imgs/D32.png"",""materials/imgs/D57.png""]","false","validation","","",""
"","","","","","html-keyboard-response","395","2571753","0.0-19.0-0.3-0.21","ghbl9s0dgx","","ghbl9s0dgx","""2024-11-18T20:31:30.370Z""","null","+","null","","","","","","",""
"","","","","","image-keyboard-response","396","2572337","0.0-19.0-0.3-1.21","ghbl9s0dgx","","ghbl9s0dgx","""2024-11-18T20:31:30.370Z""","581","materials/imgs/D34.png","arrowleft","","[""materials/imgs/D3.png"",""materials/imgs/D79.png""]","false","random","","",""
"","","","","","html-keyboard-response","397","2572842","0.0-19.0-0.3-0.22","ghbl9s0dgx","","ghbl9s0dgx","""2024-11-18T20:31:30.370Z""","null","+","null","","","","","","",""
"","","","","","image-keyboard-response","398","2573714","0.0-19.0-0.3-1.22","ghbl9s0dgx","","ghbl9s0dgx","""2024-11-18T20:31:30.370Z""","870","materials/imgs/D49.png","arrowright","","[""materials/imgs/D48.png"",""materials/imgs/D26.png""]","false","random","","",""
"","","","","","html-keyboard-response","399","2574218","0.0-19.0-0.3-0.23","ghbl9s0dgx","","ghbl9s0dgx","""2024-11-18T20:31:30.370Z""","null","+","null","","","","","","",""
"","","","","","image-keyboard-response","400","2574783","0.0-19.0-0.3-1.23","ghbl9s0dgx","","ghbl9s0dgx","""2024-11-18T20:31:30.370Z""","563","materials/imgs/D53.png","arrowleft","","[""materials/imgs/D6.png"",""materials/imgs/D81.png""]","false","random","","",""
"","","","","","html-keyboard-response","401","2575285","0.0-19.0-0.3-0.24","ghbl9s0dgx","","ghbl9s0dgx","""2024-11-18T20:31:30.370Z""","null","+","null","","","","","","",""
"","","","","","image-keyboard-response","402","2576055","0.0-19.0-0.3-1.24","ghbl9s0dgx","","ghbl9s0dgx","""2024-11-18T20:31:30.370Z""","767","materials/imgs/D65.png","arrowleft","","[""materials/imgs/D18.png"",""materials/imgs/D85.png""]","false","random","","",""
"","","","","","html-keyboard-response","403","2576556","0.0-19.0-0.3-0.25","ghbl9s0dgx","","ghbl9s0dgx","""2024-11-18T20:31:30.370Z""","null","+","null","","","","","","",""
"","","","","","image-keyboard-response","404","2577304","0.0-19.0-0.3-1.25","ghbl9s0dgx","","ghbl9s0dgx","""2024-11-18T20:31:30.370Z""","746","materials/imgs/D102.png","arrowleft","","[""materials/imgs/D82.png"",""materials/imgs/D48.png""]","false","random","","",""
"","","","","","html-keyboard-response","405","2577806","0.0-19.0-0.3-0.26","ghbl9s0dgx","","ghbl9s0dgx","""2024-11-18T20:31:30.370Z""","null","+","null","","","","","","",""
"","","","","","image-keyboard-response","406","2579132","0.0-19.0-0.3-1.26","ghbl9s0dgx","","ghbl9s0dgx","""2024-11-18T20:31:30.370Z""","1323","materials/imgs/D79.png","arrowleft","","[""materials/imgs/D49.png"",""materials/imgs/D1.png""]","false","random","","",""
"","","","","","html-keyboard-response","407","2579635","0.0-19.0-0.3-0.27","ghbl9s0dgx","","ghbl9s0dgx","""2024-11-18T20:31:30.370Z""","null","+","null","","","","","","",""
"","","","","","image-keyboard-response","408","2580179","0.0-19.0-0.3-1.27","ghbl9s0dgx","","ghbl9s0dgx","""2024-11-18T20:31:30.370Z""","542","materials/imgs/D17.png","arrowright","","[""materials/imgs/D74.png"",""materials/imgs/D104.png""]","false","random","","",""
"","","","","","html-keyboard-response","409","2580689","0.0-19.0-1.3-0.3","ghbl9s0dgx","","ghbl9s0dgx","""2024-11-18T20:31:30.370Z""","null","+","null","","","","","","",""
"","","","","","image-keyboard-response","410","2581262","0.0-19.0-1.3-1.3","ghbl9s0dgx","","ghbl9s0dgx","""2024-11-18T20:31:30.370Z""","570","materials/imgs/D8.png","arrowright","","[""materials/imgs/D18.png"",""materials/imgs/D8.png""]","","check","materials/imgs/D8.png","1","true"
"","","","","","html-keyboard-response","411","2581777","0.0-19.0-2.3-0.6","ghbl9s0dgx","","ghbl9s0dgx","""2024-11-18T20:31:30.370Z""","null","+","null","","","","","","",""
"","","","","","image-keyboard-response","412","2583812","0.0-19.0-2.3-1.6","ghbl9s0dgx","","ghbl9s0dgx","""2024-11-18T20:31:30.370Z""","2033","materials/imgs/D47.png","arrowright","","[""materials/imgs/D1.png"",""materials/imgs/D52.png""]","false","validation","","",""
"","","","","","html-keyboard-response","413","2584319","0.0-19.0-2.3-0.7","ghbl9s0dgx","","ghbl9s0dgx","""2024-11-18T20:31:30.370Z""","null","+","null","","","","","","",""
"","","","","","image-keyboard-response","414","2585239","0.0-19.0-2.3-1.7","ghbl9s0dgx","","ghbl9s0dgx","""2024-11-18T20:31:30.370Z""","918","materials/imgs/D32.png","arrowleft","","[""materials/imgs/D68.png"",""materials/imgs/D96.png""]","false","validation","","",""
"","","","","","html-keyboard-response","415","2585743","0.0-19.0-0.4-0.28","ghbl9s0dgx","","ghbl9s0dgx","""2024-11-18T20:31:30.370Z""","null","+","null","","","","","","",""
"","","","","","image-keyboard-response","416","2586514","0.0-19.0-0.4-1.28","ghbl9s0dgx","","ghbl9s0dgx","""2024-11-18T20:31:30.370Z""","769","materials/imgs/D96.png","arrowright","","[""materials/imgs/D55.png"",""materials/imgs/D56.png""]","false","random","","",""
"","","","","","html-keyboard-response","417","2587023","0.0-19.0-0.4-0.29","ghbl9s0dgx","","ghbl9s0dgx","""2024-11-18T20:31:30.370Z""","null","+","null","","","","","","",""
"","","","","","image-keyboard-response","418","2588694","0.0-19.0-0.4-1.29","ghbl9s0dgx","","ghbl9s0dgx","""2024-11-18T20:31:30.370Z""","1668","materials/imgs/D49.png","arrowleft","","[""materials/imgs/D46.png"",""materials/imgs/D66.png""]","false","random","","",""
"","","","","","html-keyboard-response","419","2589199","0.0-19.0-0.4-0.30","ghbl9s0dgx","","ghbl9s0dgx","""2024-11-18T20:31:30.370Z""","null","+","null","","","","","","",""
"","","","","","image-keyboard-response","420","2591941","0.0-19.0-0.4-1.30","ghbl9s0dgx","","ghbl9s0dgx","""2024-11-18T20:31:30.370Z""","2738","materials/imgs/D29.png","arrowright","","[""materials/imgs/D51.png"",""materials/imgs/D46.png""]","false","random","","",""
"","","","","","html-keyboard-response","421","2592446","0.0-19.0-0.4-0.31","ghbl9s0dgx","","ghbl9s0dgx","""2024-11-18T20:31:30.370Z""","null","+","null","","","","","","",""
"","","","","","image-keyboard-response","422","2593734","0.0-19.0-0.4-1.31","ghbl9s0dgx","","ghbl9s0dgx","""2024-11-18T20:31:30.370Z""","1285","materials/imgs/D46.png","arrowright","","[""materials/imgs/D79.png"",""materials/imgs/D19.png""]","false","random","","",""
"","","","","","html-keyboard-response","423","2594238","0.0-19.0-0.4-0.32","ghbl9s0dgx","","ghbl9s0dgx","""2024-11-18T20:31:30.370Z""","null","+","null","","","","","","",""
"","","","","","image-keyboard-response","424","2595270","0.0-19.0-0.4-1.32","ghbl9s0dgx","","ghbl9s0dgx","""2024-11-18T20:31:30.370Z""","1029","materials/imgs/D11.png","arrowleft","","[""materials/imgs/D14.png"",""materials/imgs/D111.png""]","false","random","","",""
"","","","","","html-keyboard-response","425","2595775","0.0-19.0-0.4-0.33","ghbl9s0dgx","","ghbl9s0dgx","""2024-11-18T20:31:30.370Z""","null","+","null","","","","","","",""
"","","","","","image-keyboard-response","426","2596606","0.0-19.0-0.4-1.33","ghbl9s0dgx","","ghbl9s0dgx","""2024-11-18T20:31:30.370Z""","827","materials/imgs/D37.png","arrowright","","[""materials/imgs/D6.png"",""materials/imgs/D47.png""]","false","random","","",""
"","","","","","html-keyboard-response","427","2597118","0.0-19.0-0.4-0.34","ghbl9s0dgx","","ghbl9s0dgx","""2024-11-18T20:31:30.370Z""","null","+","null","","","","","","",""
"","","","","","image-keyboard-response","428","2598297","0.0-19.0-0.4-1.34","ghbl9s0dgx","","ghbl9s0dgx","""2024-11-18T20:31:30.370Z""","1176","materials/imgs/D24.png","arrowright","","[""materials/imgs/D26.png"",""materials/imgs/D106.png""]","false","random","","",""
"","","","","","html-keyboard-response","429","2598799","0.0-19.0-1.4-0.4","ghbl9s0dgx","","ghbl9s0dgx","""2024-11-18T20:31:30.370Z""","null","+","null","","","","","","",""
"","","","","","image-keyboard-response","430","2599408","0.0-19.0-1.4-1.4","ghbl9s0dgx","","ghbl9s0dgx","""2024-11-18T20:31:30.370Z""","607","materials/imgs/D8.png","arrowright","","[""materials/imgs/D18.png"",""materials/imgs/D8.png""]","","check","materials/imgs/D8.png","1","true"
"","","","","","html-keyboard-response","431","2599917","0.0-19.0-2.4-0.8","ghbl9s0dgx","","ghbl9s0dgx","""2024-11-18T20:31:30.370Z""","null","+","null","","","","","","",""
"","","","","","image-keyboard-response","432","2600743","0.0-19.0-2.4-1.8","ghbl9s0dgx","","ghbl9s0dgx","""2024-11-18T20:31:30.370Z""","823","materials/imgs/D52.png","arrowleft","","[""materials/imgs/D9.png"",""materials/imgs/D19.png""]","false","validation","","",""
"","","","","","html-keyboard-response","433","2601245","0.0-19.0-2.4-0.9","ghbl9s0dgx","","ghbl9s0dgx","""2024-11-18T20:31:30.370Z""","null","+","null","","","","","","",""
"","","","","","image-keyboard-response","434","2602611","0.0-19.0-2.4-1.9","ghbl9s0dgx","","ghbl9s0dgx","""2024-11-18T20:31:30.370Z""","1363","materials/imgs/D96.png","arrowright","","[""materials/imgs/D46.png"",""materials/imgs/D18.png""]","false","validation","","",""
