"success","timeout","failed_images","failed_audio","failed_video","trial_type","trial_index","time_elapsed","internal_node_id","subject_id","sona_id","subjectID","dateInfo","rt","stimulus","response","question_order","choices","speedy","sampleAlg","selected_image","selected_index","correct"
"true","false","[]","[]","[]","preload","0","603","0.0-0.0","jbu4vnrhhs","","jbu4vnrhhs","""2024-11-12T18:20:25.627Z""","","","","","","","","","",""
"true","","","","","fullscreen","1","3867","0.0-1.0","jbu4vnrhhs","","jbu4vnrhhs","""2024-11-12T18:20:25.627Z""","","","","","","","","","",""
"","","","","","html-keyboard-response","2","3878","0.0-2.0","jbu4vnrhhs","","jbu4vnrhhs","""2024-11-12T18:20:25.627Z""","null","","null","","","","","","",""
"","","","","","html-button-response","3","5507","0.0-3.0","jbu4vnrhhs","","jbu4vnrhhs","""2024-11-12T18:20:25.627Z""","1626","<div style='text-align:center; font-size:20px; line-height:25px; width: 1200px;'>
                Welcome to our experiment! <br>
                <br>At the bottom of this screen, you will see a button that says 'Begin Experiment.
                <br>Please only click that button when you are ready to complete the 25 minute experiment in one sitting. <br>
                <br> Once you click that button, it will not be possible to restart the experiment. <br><br>","0","","","","","","",""
"true","","","","","fullscreen","4","8348","0.0-4.0","jbu4vnrhhs","","jbu4vnrhhs","""2024-11-12T18:20:25.627Z""","","","","","","","","","",""
"","","","","","survey-multi-select","5","13084","0.0-5.0","jbu4vnrhhs","","jbu4vnrhhs","""2024-11-12T18:20:25.627Z""","4732","","{""Consent"":[""<strong>I consent</strong>""]}","[0]","","","","","",""
"","","","","","html-button-response","6","18093","0.0-6.0","jbu4vnrhhs","","jbu4vnrhhs","""2024-11-12T18:20:25.627Z""","5009","Welcome! <p> This experiment involves two parts: demographic information, followed by the experimental task.<p> It will take about 25 minutes to complete both parts.","0","","","","","","",""
"","","","","","survey-text","7","28467","0.0-7.0","jbu4vnrhhs","","jbu4vnrhhs","""2024-11-12T18:20:25.627Z""","10352","","{""Age"":""18"",""Gender"":""Male"",""Race/ethnicity"":""White""}","","","","","","",""
"","","","","","html-button-response","8","49201","0.0-8.0","jbu4vnrhhs","","jbu4vnrhhs","""2024-11-12T18:20:25.627Z""","20734","<div style='text-align: center;'>
      <p>In each trial of this task, you will see three texture images: one target item on top, and two choices beneath the target item.</p>
      <p><strong>Please select the item that is most like the target item.</strong></p>
      <p>To select the option on the <strong>LEFT</strong>, press the <strong>LEFT ARROW</strong> key. 
      To select the option on the <strong>RIGHT</strong>, press the <strong>RIGHT ARROW</strong> key.</p>
                  <!-- Target Image at the Top -->
      <div style='margin: 20px;'>
        <img src='materials/imgs/instruction_images/InstructionImg1D78.png' alt='Target Image' style='width:200px; height:auto;' />
        <p><em>Target Image</em></p>
      </div>

      <!-- Two Choice Images Below -->
      <div style='display: flex; justify-content: center;'>
        <div style='margin-right: 50px;'>
          <img src='materials/imgs/instruction_images/InstructionImg2D34.png' alt='Choice Image 1' style='width:150px; height:auto;' />
          <p><em><strong>LEFT ARROW</strong></em></p>
        </div>
        <div style='margin-left: 50px;'>
          <img src='materials/imgs/instruction_images/InstructionImg3D80.png' alt='Choice Image 2' style='width:150px; height:auto;' />
          <p><em><strong>RIGHT ARROW</strong></em></p>
        </div>
      </div>
    </div>

      <p>When you are ready to proceed, please click 'Continue' to begin practice.</p>","0","","","","","","",""
"","","","","","html-keyboard-response","9","51704","0.0-9.0","jbu4vnrhhs","","jbu4vnrhhs","""2024-11-12T18:20:25.627Z""","null","+","null","","","","","","",""
"","","","","","html-keyboard-response","10","52206","0.0-10.0-0.0-0.0","jbu4vnrhhs","","jbu4vnrhhs","""2024-11-12T18:20:25.627Z""","null","+","null","","","","","","",""
"","","","","","image-keyboard-response","11","53698","0.0-10.0-0.0-1.0","jbu4vnrhhs","","jbu4vnrhhs","""2024-11-12T18:20:25.627Z""","1475","materials/imgs/D75.png","arrowleft","","[""materials/imgs/D9.png"",""materials/imgs/D84.png""]","false","random","","",""
"","","","","","html-keyboard-response","12","54200","0.0-10.0-0.0-0.1","jbu4vnrhhs","","jbu4vnrhhs","""2024-11-12T18:20:25.627Z""","null","+","null","","","","","","",""
"","","","","","image-keyboard-response","13","55589","0.0-10.0-0.0-1.1","jbu4vnrhhs","","jbu4vnrhhs","""2024-11-12T18:20:25.627Z""","1387","materials/imgs/D9.png","arrowright","","[""materials/imgs/D1.png"",""materials/imgs/D111.png""]","false","random","","",""
"","","","","","html-keyboard-response","14","56092","0.0-10.0-0.0-0.2","jbu4vnrhhs","","jbu4vnrhhs","""2024-11-12T18:20:25.627Z""","null","+","null","","","","","","",""
"","","","","","image-keyboard-response","15","57179","0.0-10.0-0.0-1.2","jbu4vnrhhs","","jbu4vnrhhs","""2024-11-12T18:20:25.627Z""","1078","materials/imgs/D53.png","arrowright","","[""materials/imgs/D29.png"",""materials/imgs/D105.png""]","false","random","","",""
"","","","","","html-keyboard-response","16","57680","0.0-10.0-0.0-0.3","jbu4vnrhhs","","jbu4vnrhhs","""2024-11-12T18:20:25.627Z""","null","+","null","","","","","","",""
"","","","","","image-keyboard-response","17","59447","0.0-10.0-0.0-1.3","jbu4vnrhhs","","jbu4vnrhhs","""2024-11-12T18:20:25.627Z""","1761","materials/imgs/D16.png","arrowright","","[""materials/imgs/D74.png"",""materials/imgs/D32.png""]","false","random","","",""
"","","","","","html-keyboard-response","18","59948","0.0-10.0-0.0-0.4","jbu4vnrhhs","","jbu4vnrhhs","""2024-11-12T18:20:25.627Z""","null","+","null","","","","","","",""
"","","","","","image-keyboard-response","19","60985","0.0-10.0-0.0-1.4","jbu4vnrhhs","","jbu4vnrhhs","""2024-11-12T18:20:25.627Z""","1026","materials/imgs/D48.png","arrowright","","[""materials/imgs/D84.png"",""materials/imgs/D6.png""]","false","random","","",""
"","","","","","html-keyboard-response","20","61487","0.0-10.0-0.0-0.5","jbu4vnrhhs","","jbu4vnrhhs","""2024-11-12T18:20:25.627Z""","null","+","null","","","","","","",""
"","","","","","image-keyboard-response","21","62634","0.0-10.0-0.0-1.5","jbu4vnrhhs","","jbu4vnrhhs","""2024-11-12T18:20:25.627Z""","1137","materials/imgs/D49.png","arrowleft","","[""materials/imgs/D79.png"",""materials/imgs/D102.png""]","false","random","","",""
"","","","","","html-keyboard-response","22","63136","0.0-10.0-0.0-0.6","jbu4vnrhhs","","jbu4vnrhhs","""2024-11-12T18:20:25.627Z""","null","+","null","","","","","","",""
"","","","","","image-keyboard-response","23","64363","0.0-10.0-0.0-1.6","jbu4vnrhhs","","jbu4vnrhhs","""2024-11-12T18:20:25.627Z""","1216","materials/imgs/D21.png","arrowleft","","[""materials/imgs/D80.png"",""materials/imgs/D24.png""]","false","random","","",""
"","","","","","html-keyboard-response","24","64865","0.0-10.0-0.0-0.7","jbu4vnrhhs","","jbu4vnrhhs","""2024-11-12T18:20:25.627Z""","null","+","null","","","","","","",""
"","","","","","image-keyboard-response","25","66057","0.0-10.0-0.0-1.7","jbu4vnrhhs","","jbu4vnrhhs","""2024-11-12T18:20:25.627Z""","1190","materials/imgs/D16.png","arrowleft","","[""materials/imgs/D105.png"",""materials/imgs/D20.png""]","false","random","","",""
"","","","","","html-keyboard-response","26","66559","0.0-10.0-0.0-0.8","jbu4vnrhhs","","jbu4vnrhhs","""2024-11-12T18:20:25.627Z""","null","+","null","","","","","","",""
"","","","","","image-keyboard-response","27","68296","0.0-10.0-0.0-1.8","jbu4vnrhhs","","jbu4vnrhhs","""2024-11-12T18:20:25.627Z""","1736","materials/imgs/D20.png","arrowleft","","[""materials/imgs/D6.png"",""materials/imgs/D29.png""]","false","random","","",""
"","","","","","html-keyboard-response","28","68798","0.0-10.0-0.0-0.9","jbu4vnrhhs","","jbu4vnrhhs","""2024-11-12T18:20:25.627Z""","null","+","null","","","","","","",""
"","","","","","image-keyboard-response","29","70516","0.0-10.0-0.0-1.9","jbu4vnrhhs","","jbu4vnrhhs","""2024-11-12T18:20:25.627Z""","1717","materials/imgs/D105.png","arrowright","","[""materials/imgs/D25.png"",""materials/imgs/D8.png""]","false","random","","",""
"","","","","","html-button-response","30","72234","0.0-11.0","jbu4vnrhhs","","jbu4vnrhhs","""2024-11-12T18:20:25.627Z""","1717","<p>Great job!</p>
      <p>You are now ready to begin the experiment.</p>
      <p>There will be around 200 trials. You will have opportunities to take breaks at three stages of the trials.</p>
      <p>When you are ready to begin please click 'Continue'.</p>","0","","","","","","",""
"","","","","","html-keyboard-response","31","74737","0.0-12.0","jbu4vnrhhs","","jbu4vnrhhs","""2024-11-12T18:20:25.627Z""","null","+","null","","","","","","",""
"","","","","","html-keyboard-response","32","75238","0.0-13.0-0.0-0.0","jbu4vnrhhs","","jbu4vnrhhs","""2024-11-12T18:20:25.627Z""","null","+","null","","","","","","",""
"","","","","","image-keyboard-response","33","76091","0.0-13.0-0.0-1.0","jbu4vnrhhs","","jbu4vnrhhs","""2024-11-12T18:20:25.627Z""","851","materials/imgs/D20.png","arrowright","","[""materials/imgs/D24.png"",""materials/imgs/D85.png""]","false","random","","",""
"","","","","","html-keyboard-response","34","76592","0.0-13.0-0.0-0.1","jbu4vnrhhs","","jbu4vnrhhs","""2024-11-12T18:20:25.627Z""","null","+","null","","","","","","",""
"","","","","","image-keyboard-response","35","77435","0.0-13.0-0.0-1.1","jbu4vnrhhs","","jbu4vnrhhs","""2024-11-12T18:20:25.627Z""","834","materials/imgs/D57.png","arrowleft","","[""materials/imgs/D94.png"",""materials/imgs/D68.png""]","false","random","","",""
"","","","","","html-keyboard-response","36","77937","0.0-13.0-0.0-0.2","jbu4vnrhhs","","jbu4vnrhhs","""2024-11-12T18:20:25.627Z""","null","+","null","","","","","","",""
"","","","","","image-keyboard-response","37","78812","0.0-13.0-0.0-1.2","jbu4vnrhhs","","jbu4vnrhhs","""2024-11-12T18:20:25.627Z""","874","materials/imgs/D79.png","arrowright","","[""materials/imgs/D24.png"",""materials/imgs/D20.png""]","false","random","","",""
"","","","","","html-keyboard-response","38","79314","0.0-13.0-0.0-0.3","jbu4vnrhhs","","jbu4vnrhhs","""2024-11-12T18:20:25.627Z""","null","+","null","","","","","","",""
"","","","","","image-keyboard-response","39","80148","0.0-13.0-0.0-1.3","jbu4vnrhhs","","jbu4vnrhhs","""2024-11-12T18:20:25.627Z""","823","materials/imgs/D66.png","arrowleft","","[""materials/imgs/D81.png"",""materials/imgs/D48.png""]","false","random","","",""
"","","","","","html-keyboard-response","40","80649","0.0-13.0-0.0-0.4","jbu4vnrhhs","","jbu4vnrhhs","""2024-11-12T18:20:25.627Z""","null","+","null","","","","","","",""
"","","","","","image-keyboard-response","41","81475","0.0-13.0-0.0-1.4","jbu4vnrhhs","","jbu4vnrhhs","""2024-11-12T18:20:25.627Z""","815","materials/imgs/D47.png","arrowleft","","[""materials/imgs/D24.png"",""materials/imgs/D104.png""]","false","random","","",""
"","","","","","html-keyboard-response","42","81977","0.0-13.0-0.0-0.5","jbu4vnrhhs","","jbu4vnrhhs","""2024-11-12T18:20:25.627Z""","null","+","null","","","","","","",""
"","","","","","image-keyboard-response","43","82877","0.0-13.0-0.0-1.5","jbu4vnrhhs","","jbu4vnrhhs","""2024-11-12T18:20:25.627Z""","899","materials/imgs/D81.png","arrowleft","","[""materials/imgs/D37.png"",""materials/imgs/D102.png""]","false","random","","",""
"","","","","","html-keyboard-response","44","83379","0.0-13.0-0.0-0.6","jbu4vnrhhs","","jbu4vnrhhs","""2024-11-12T18:20:25.627Z""","null","+","null","","","","","","",""
"","","","","","image-keyboard-response","45","83985","0.0-13.0-0.0-1.6","jbu4vnrhhs","","jbu4vnrhhs","""2024-11-12T18:20:25.627Z""","605","materials/imgs/D81.png","arrowright","","[""materials/imgs/D102.png"",""materials/imgs/D9.png""]","false","random","","",""
"","","","","","html-keyboard-response","46","84487","0.0-13.0-1.0-0.0","jbu4vnrhhs","","jbu4vnrhhs","""2024-11-12T18:20:25.627Z""","null","+","null","","","","","","",""
"","","","","","image-keyboard-response","47","85121","0.0-13.0-1.0-1.0","jbu4vnrhhs","","jbu4vnrhhs","""2024-11-12T18:20:25.627Z""","632","materials/imgs/D53.png","arrowright","","[""materials/imgs/D64.png"",""materials/imgs/D53.png""]","","check","materials/imgs/D53.png","1","true"
"","","","","","html-keyboard-response","48","85624","0.0-13.0-2.0-0.0","jbu4vnrhhs","","jbu4vnrhhs","""2024-11-12T18:20:25.627Z""","null","+","null","","","","","","",""
"","","","","","image-keyboard-response","49","86418","0.0-13.0-2.0-1.0","jbu4vnrhhs","","jbu4vnrhhs","""2024-11-12T18:20:25.627Z""","793","materials/imgs/D68.png","arrowright","","[""materials/imgs/D96.png"",""materials/imgs/D48.png""]","false","validation","","",""
"","","","","","html-keyboard-response","50","86920","0.0-13.0-2.0-0.1","jbu4vnrhhs","","jbu4vnrhhs","""2024-11-12T18:20:25.627Z""","null","+","null","","","","","","",""
"","","","","","image-keyboard-response","51","87828","0.0-13.0-2.0-1.1","jbu4vnrhhs","","jbu4vnrhhs","""2024-11-12T18:20:25.627Z""","896","materials/imgs/D83.png","arrowleft","","[""materials/imgs/D24.png"",""materials/imgs/D8.png""]","false","validation","","",""
"","","","","","html-keyboard-response","52","88330","0.0-13.0-0.1-0.7","jbu4vnrhhs","","jbu4vnrhhs","""2024-11-12T18:20:25.627Z""","null","+","null","","","","","","",""
"","","","","","image-keyboard-response","53","89465","0.0-13.0-0.1-1.7","jbu4vnrhhs","","jbu4vnrhhs","""2024-11-12T18:20:25.627Z""","1134","materials/imgs/D37.png","arrowright","","[""materials/imgs/D36.png"",""materials/imgs/D24.png""]","false","random","","",""
"","","","","","html-keyboard-response","54","89966","0.0-13.0-0.1-0.8","jbu4vnrhhs","","jbu4vnrhhs","""2024-11-12T18:20:25.627Z""","null","+","null","","","","","","",""
"","","","","","image-keyboard-response","55","90985","0.0-13.0-0.1-1.8","jbu4vnrhhs","","jbu4vnrhhs","""2024-11-12T18:20:25.627Z""","1017","materials/imgs/D85.png","arrowright","","[""materials/imgs/D8.png"",""materials/imgs/D37.png""]","false","random","","",""
"","","","","","html-keyboard-response","56","91487","0.0-13.0-0.1-0.9","jbu4vnrhhs","","jbu4vnrhhs","""2024-11-12T18:20:25.627Z""","null","+","null","","","","","","",""
"","","","","","image-keyboard-response","57","92533","0.0-13.0-0.1-1.9","jbu4vnrhhs","","jbu4vnrhhs","""2024-11-12T18:20:25.627Z""","1036","materials/imgs/D26.png","arrowright","","[""materials/imgs/D9.png"",""materials/imgs/D83.png""]","false","random","","",""
"","","","","","html-keyboard-response","58","93035","0.0-13.0-0.1-0.10","jbu4vnrhhs","","jbu4vnrhhs","""2024-11-12T18:20:25.627Z""","null","+","null","","","","","","",""
"","","","","","image-keyboard-response","59","94497","0.0-13.0-0.1-1.10","jbu4vnrhhs","","jbu4vnrhhs","""2024-11-12T18:20:25.627Z""","1461","materials/imgs/D37.png","arrowright","","[""materials/imgs/D103.png"",""materials/imgs/D46.png""]","false","random","","",""
"","","","","","html-keyboard-response","60","94998","0.0-13.0-0.1-0.11","jbu4vnrhhs","","jbu4vnrhhs","""2024-11-12T18:20:25.627Z""","null","+","null","","","","","","",""
"","","","","","image-keyboard-response","61","96163","0.0-13.0-0.1-1.11","jbu4vnrhhs","","jbu4vnrhhs","""2024-11-12T18:20:25.627Z""","1155","materials/imgs/D92.png","arrowleft","","[""materials/imgs/D105.png"",""materials/imgs/D56.png""]","false","random","","",""
"","","","","","html-keyboard-response","62","96665","0.0-13.0-0.1-0.12","jbu4vnrhhs","","jbu4vnrhhs","""2024-11-12T18:20:25.627Z""","null","+","null","","","","","","",""
"","","","","","image-keyboard-response","63","97804","0.0-13.0-0.1-1.12","jbu4vnrhhs","","jbu4vnrhhs","""2024-11-12T18:20:25.627Z""","1138","materials/imgs/D103.png","arrowright","","[""materials/imgs/D83.png"",""materials/imgs/D34.png""]","false","random","","",""
"","","","","","html-keyboard-response","64","98306","0.0-13.0-0.1-0.13","jbu4vnrhhs","","jbu4vnrhhs","""2024-11-12T18:20:25.627Z""","null","+","null","","","","","","",""
"","","","","","image-keyboard-response","65","99455","0.0-13.0-0.1-1.13","jbu4vnrhhs","","jbu4vnrhhs","""2024-11-12T18:20:25.627Z""","1138","materials/imgs/D18.png","arrowright","","[""materials/imgs/D9.png"",""materials/imgs/D68.png""]","false","random","","",""
"","","","","","html-keyboard-response","66","99956","0.0-13.0-1.1-0.1","jbu4vnrhhs","","jbu4vnrhhs","""2024-11-12T18:20:25.627Z""","null","+","null","","","","","","",""
"","","","","","image-keyboard-response","67","100565","0.0-13.0-1.1-1.1","jbu4vnrhhs","","jbu4vnrhhs","""2024-11-12T18:20:25.627Z""","608","materials/imgs/D26.png","arrowleft","","[""materials/imgs/D26.png"",""materials/imgs/D46.png""]","","check","materials/imgs/D26.png","0","true"
"","","","","","html-keyboard-response","68","101067","0.0-13.0-2.1-0.2","jbu4vnrhhs","","jbu4vnrhhs","""2024-11-12T18:20:25.627Z""","null","+","null","","","","","","",""
"","","","","","image-keyboard-response","69","102702","0.0-13.0-2.1-1.2","jbu4vnrhhs","","jbu4vnrhhs","""2024-11-12T18:20:25.627Z""","1634","materials/imgs/D8.png","arrowleft","","[""materials/imgs/D101.png"",""materials/imgs/D52.png""]","false","validation","","",""
"","","","","","html-keyboard-response","70","103204","0.0-13.0-2.1-0.3","jbu4vnrhhs","","jbu4vnrhhs","""2024-11-12T18:20:25.627Z""","null","+","null","","","","","","",""
"","","","","","image-keyboard-response","71","104415","0.0-13.0-2.1-1.3","jbu4vnrhhs","","jbu4vnrhhs","""2024-11-12T18:20:25.627Z""","1201","materials/imgs/D77.png","arrowright","","[""materials/imgs/D102.png"",""materials/imgs/D65.png""]","false","validation","","",""
"","","","","","html-keyboard-response","72","104917","0.0-13.0-0.2-0.14","jbu4vnrhhs","","jbu4vnrhhs","""2024-11-12T18:20:25.627Z""","null","+","null","","","","","","",""
"","","","","","image-keyboard-response","73","105661","0.0-13.0-0.2-1.14","jbu4vnrhhs","","jbu4vnrhhs","""2024-11-12T18:20:25.627Z""","733","materials/imgs/D17.png","arrowright","","[""materials/imgs/D66.png"",""materials/imgs/D16.png""]","false","random","","",""
"","","","","","html-keyboard-response","74","106163","0.0-13.0-0.2-0.15","jbu4vnrhhs","","jbu4vnrhhs","""2024-11-12T18:20:25.627Z""","null","+","null","","","","","","",""
"","","","","","image-keyboard-response","75","106799","0.0-13.0-0.2-1.15","jbu4vnrhhs","","jbu4vnrhhs","""2024-11-12T18:20:25.627Z""","634","materials/imgs/D9.png","arrowleft","","[""materials/imgs/D92.png"",""materials/imgs/D18.png""]","false","random","","",""
"","","","","","html-keyboard-response","76","107301","0.0-13.0-0.2-0.16","jbu4vnrhhs","","jbu4vnrhhs","""2024-11-12T18:20:25.627Z""","null","+","null","","","","","","",""
"","","","","","image-keyboard-response","77","108243","0.0-13.0-0.2-1.16","jbu4vnrhhs","","jbu4vnrhhs","""2024-11-12T18:20:25.627Z""","931","materials/imgs/D95.png","arrowleft","","[""materials/imgs/D66.png"",""materials/imgs/D101.png""]","false","random","","",""
"","","","","","html-keyboard-response","78","108744","0.0-13.0-0.2-0.17","jbu4vnrhhs","","jbu4vnrhhs","""2024-11-12T18:20:25.627Z""","null","+","null","","","","","","",""
"","","","","","image-keyboard-response","79","109868","0.0-13.0-0.2-1.17","jbu4vnrhhs","","jbu4vnrhhs","""2024-11-12T18:20:25.627Z""","1121","materials/imgs/D77.png","arrowright","","[""materials/imgs/D66.png"",""materials/imgs/D35.png""]","false","random","","",""
"","","","","","html-keyboard-response","80","110369","0.0-13.0-0.2-0.18","jbu4vnrhhs","","jbu4vnrhhs","""2024-11-12T18:20:25.627Z""","null","+","null","","","","","","",""
"","","","","","image-keyboard-response","81","111354","0.0-13.0-0.2-1.18","jbu4vnrhhs","","jbu4vnrhhs","""2024-11-12T18:20:25.627Z""","983","materials/imgs/D49.png","arrowright","","[""materials/imgs/D83.png"",""materials/imgs/D55.png""]","false","random","","",""
"","","","","","html-keyboard-response","82","111855","0.0-13.0-0.2-0.19","jbu4vnrhhs","","jbu4vnrhhs","""2024-11-12T18:20:25.627Z""","null","+","null","","","","","","",""
"","","","","","image-keyboard-response","83","113029","0.0-13.0-0.2-1.19","jbu4vnrhhs","","jbu4vnrhhs","""2024-11-12T18:20:25.627Z""","1173","materials/imgs/D83.png","arrowright","","[""materials/imgs/D96.png"",""materials/imgs/D19.png""]","false","random","","",""
"","","","","","html-keyboard-response","84","113530","0.0-13.0-0.2-0.20","jbu4vnrhhs","","jbu4vnrhhs","""2024-11-12T18:20:25.627Z""","null","+","null","","","","","","",""
"","","","","","image-keyboard-response","85","114722","0.0-13.0-0.2-1.20","jbu4vnrhhs","","jbu4vnrhhs","""2024-11-12T18:20:25.627Z""","1181","materials/imgs/D78.png","arrowleft","","[""materials/imgs/D56.png"",""materials/imgs/D47.png""]","false","random","","",""
"","","","","","html-keyboard-response","86","115223","0.0-13.0-1.2-0.2","jbu4vnrhhs","","jbu4vnrhhs","""2024-11-12T18:20:25.627Z""","null","+","null","","","","","","",""
"","","","","","image-keyboard-response","87","116064","0.0-13.0-1.2-1.2","jbu4vnrhhs","","jbu4vnrhhs","""2024-11-12T18:20:25.627Z""","840","materials/imgs/D18.png","arrowright","","[""materials/imgs/D8.png"",""materials/imgs/D18.png""]","","check","materials/imgs/D18.png","1","true"
"","","","","","html-keyboard-response","88","116566","0.0-13.0-2.2-0.4","jbu4vnrhhs","","jbu4vnrhhs","""2024-11-12T18:20:25.627Z""","null","+","null","","","","","","",""
"","","","","","image-keyboard-response","89","117118","0.0-13.0-2.2-1.4","jbu4vnrhhs","","jbu4vnrhhs","""2024-11-12T18:20:25.627Z""","551","materials/imgs/D105.png","arrowleft","","[""materials/imgs/D106.png"",""materials/imgs/D52.png""]","false","validation","","",""
"","","","","","html-keyboard-response","90","117620","0.0-13.0-2.2-0.5","jbu4vnrhhs","","jbu4vnrhhs","""2024-11-12T18:20:25.627Z""","null","+","null","","","","","","",""
"","","","","","image-keyboard-response","91","119207","0.0-13.0-2.2-1.5","jbu4vnrhhs","","jbu4vnrhhs","""2024-11-12T18:20:25.627Z""","1586","materials/imgs/D83.png","arrowleft","","[""materials/imgs/D24.png"",""materials/imgs/D8.png""]","false","validation","","",""
"","","","","","html-keyboard-response","92","119709","0.0-13.0-0.3-0.21","jbu4vnrhhs","","jbu4vnrhhs","""2024-11-12T18:20:25.627Z""","null","+","null","","","","","","",""
"","","","","","image-keyboard-response","93","121143","0.0-13.0-0.3-1.21","jbu4vnrhhs","","jbu4vnrhhs","""2024-11-12T18:20:25.627Z""","1433","materials/imgs/D74.png","arrowright","","[""materials/imgs/D79.png"",""materials/imgs/D11.png""]","false","random","","",""
"","","","","","html-keyboard-response","94","121645","0.0-13.0-0.3-0.22","jbu4vnrhhs","","jbu4vnrhhs","""2024-11-12T18:20:25.627Z""","null","+","null","","","","","","",""
"","","","","","image-keyboard-response","95","122848","0.0-13.0-0.3-1.22","jbu4vnrhhs","","jbu4vnrhhs","""2024-11-12T18:20:25.627Z""","1202","materials/imgs/D9.png","arrowleft","","[""materials/imgs/D75.png"",""materials/imgs/D35.png""]","false","random","","",""
"","","","","","html-keyboard-response","96","123349","0.0-13.0-0.3-0.23","jbu4vnrhhs","","jbu4vnrhhs","""2024-11-12T18:20:25.627Z""","null","+","null","","","","","","",""
"","","","","","image-keyboard-response","97","126422","0.0-13.0-0.3-1.23","jbu4vnrhhs","","jbu4vnrhhs","""2024-11-12T18:20:25.627Z""","3071","materials/imgs/D74.png","arrowleft","","[""materials/imgs/D26.png"",""materials/imgs/D48.png""]","false","random","","",""
"","","","","","html-keyboard-response","98","126923","0.0-13.0-0.3-0.24","jbu4vnrhhs","","jbu4vnrhhs","""2024-11-12T18:20:25.627Z""","null","+","null","","","","","","",""
"","","","","","image-keyboard-response","99","130257","0.0-13.0-0.3-1.24","jbu4vnrhhs","","jbu4vnrhhs","""2024-11-12T18:20:25.627Z""","3333","materials/imgs/D84.png","arrowleft","","[""materials/imgs/D52.png"",""materials/imgs/D47.png""]","false","random","","",""
"","","","","","html-keyboard-response","100","130759","0.0-13.0-0.3-0.25","jbu4vnrhhs","","jbu4vnrhhs","""2024-11-12T18:20:25.627Z""","null","+","null","","","","","","",""
"","","","","","image-keyboard-response","101","131648","0.0-13.0-0.3-1.25","jbu4vnrhhs","","jbu4vnrhhs","""2024-11-12T18:20:25.627Z""","888","materials/imgs/D24.png","arrowleft","","[""materials/imgs/D55.png"",""materials/imgs/D106.png""]","false","random","","",""
"","","","","","html-keyboard-response","102","132149","0.0-13.0-0.3-0.26","jbu4vnrhhs","","jbu4vnrhhs","""2024-11-12T18:20:25.627Z""","null","+","null","","","","","","",""
"","","","","","image-keyboard-response","103","132935","0.0-13.0-0.3-1.26","jbu4vnrhhs","","jbu4vnrhhs","""2024-11-12T18:20:25.627Z""","784","materials/imgs/D68.png","arrowright","","[""materials/imgs/D18.png"",""materials/imgs/D106.png""]","false","random","","",""
"","","","","","html-keyboard-response","104","133437","0.0-13.0-0.3-0.27","jbu4vnrhhs","","jbu4vnrhhs","""2024-11-12T18:20:25.627Z""","null","+","null","","","","","","",""
"","","","","","image-keyboard-response","105","134110","0.0-13.0-0.3-1.27","jbu4vnrhhs","","jbu4vnrhhs","""2024-11-12T18:20:25.627Z""","671","materials/imgs/D85.png","arrowleft","","[""materials/imgs/D49.png"",""materials/imgs/D56.png""]","false","random","","",""
"","","","","","html-keyboard-response","106","134612","0.0-13.0-1.3-0.3","jbu4vnrhhs","","jbu4vnrhhs","""2024-11-12T18:20:25.627Z""","null","+","null","","","","","","",""
"","","","","","image-keyboard-response","107","135198","0.0-13.0-1.3-1.3","jbu4vnrhhs","","jbu4vnrhhs","""2024-11-12T18:20:25.627Z""","585","materials/imgs/D26.png","arrowleft","","[""materials/imgs/D26.png"",""materials/imgs/D46.png""]","","check","materials/imgs/D26.png","0","true"
"","","","","","html-keyboard-response","108","135700","0.0-13.0-2.3-0.6","jbu4vnrhhs","","jbu4vnrhhs","""2024-11-12T18:20:25.627Z""","null","+","null","","","","","","",""
"","","","","","image-keyboard-response","109","136293","0.0-13.0-2.3-1.6","jbu4vnrhhs","","jbu4vnrhhs","""2024-11-12T18:20:25.627Z""","592","materials/imgs/D105.png","arrowleft","","[""materials/imgs/D106.png"",""materials/imgs/D52.png""]","false","validation","","",""
"","","","","","html-keyboard-response","110","136794","0.0-13.0-2.3-0.7","jbu4vnrhhs","","jbu4vnrhhs","""2024-11-12T18:20:25.627Z""","null","+","null","","","","","","",""
"","","","","","image-keyboard-response","111","138821","0.0-13.0-2.3-1.7","jbu4vnrhhs","","jbu4vnrhhs","""2024-11-12T18:20:25.627Z""","2025","materials/imgs/D106.png","arrowleft","","[""materials/imgs/D57.png"",""materials/imgs/D18.png""]","false","validation","","",""
"","","","","","html-keyboard-response","112","139322","0.0-13.0-0.4-0.28","jbu4vnrhhs","","jbu4vnrhhs","""2024-11-12T18:20:25.627Z""","null","+","null","","","","","","",""
"","","","","","image-keyboard-response","113","140560","0.0-13.0-0.4-1.28","jbu4vnrhhs","","jbu4vnrhhs","""2024-11-12T18:20:25.627Z""","1237","materials/imgs/D20.png","arrowleft","","[""materials/imgs/D106.png"",""materials/imgs/D64.png""]","false","random","","",""
"","","","","","html-keyboard-response","114","141062","0.0-13.0-0.4-0.29","jbu4vnrhhs","","jbu4vnrhhs","""2024-11-12T18:20:25.627Z""","null","+","null","","","","","","",""
"","","","","","image-keyboard-response","115","142226","0.0-13.0-0.4-1.29","jbu4vnrhhs","","jbu4vnrhhs","""2024-11-12T18:20:25.627Z""","1163","materials/imgs/D25.png","arrowleft","","[""materials/imgs/D82.png"",""materials/imgs/D48.png""]","false","random","","",""
"","","","","","html-keyboard-response","116","142728","0.0-13.0-0.4-0.30","jbu4vnrhhs","","jbu4vnrhhs","""2024-11-12T18:20:25.627Z""","null","+","null","","","","","","",""
"","","","","","image-keyboard-response","117","143306","0.0-13.0-0.4-1.30","jbu4vnrhhs","","jbu4vnrhhs","""2024-11-12T18:20:25.627Z""","576","materials/imgs/D53.png","arrowright","","[""materials/imgs/D34.png"",""materials/imgs/D55.png""]","false","random","","",""
"","","","","","html-keyboard-response","118","143808","0.0-13.0-0.4-0.31","jbu4vnrhhs","","jbu4vnrhhs","""2024-11-12T18:20:25.627Z""","null","+","null","","","","","","",""
"","","","","","image-keyboard-response","119","144398","0.0-13.0-0.4-1.31","jbu4vnrhhs","","jbu4vnrhhs","""2024-11-12T18:20:25.627Z""","589","materials/imgs/D47.png","arrowleft","","[""materials/imgs/D22.png"",""materials/imgs/D6.png""]","false","random","","",""
"","","","","","html-keyboard-response","120","144900","0.0-13.0-0.4-0.32","jbu4vnrhhs","","jbu4vnrhhs","""2024-11-12T18:20:25.627Z""","null","+","null","","","","","","",""
"","","","","","image-keyboard-response","121","145416","0.0-13.0-0.4-1.32","jbu4vnrhhs","","jbu4vnrhhs","""2024-11-12T18:20:25.627Z""","515","materials/imgs/D65.png","arrowright","","[""materials/imgs/D4.png"",""materials/imgs/D1.png""]","false","random","","",""
"","","","","","html-keyboard-response","122","145918","0.0-13.0-0.4-0.33","jbu4vnrhhs","","jbu4vnrhhs","""2024-11-12T18:20:25.627Z""","null","+","null","","","","","","",""
"","","","","","image-keyboard-response","123","146713","0.0-13.0-0.4-1.33","jbu4vnrhhs","","jbu4vnrhhs","""2024-11-12T18:20:25.627Z""","794","materials/imgs/D81.png","arrowleft","","[""materials/imgs/D29.png"",""materials/imgs/D6.png""]","false","random","","",""
"","","","","","html-keyboard-response","124","147215","0.0-13.0-0.4-0.34","jbu4vnrhhs","","jbu4vnrhhs","""2024-11-12T18:20:25.627Z""","null","+","null","","","","","","",""
"","","","","","image-keyboard-response","125","148058","0.0-13.0-0.4-1.34","jbu4vnrhhs","","jbu4vnrhhs","""2024-11-12T18:20:25.627Z""","842","materials/imgs/D47.png","arrowright","","[""materials/imgs/D35.png"",""materials/imgs/D29.png""]","false","random","","",""
"","","","","","html-keyboard-response","126","148560","0.0-13.0-1.4-0.4","jbu4vnrhhs","","jbu4vnrhhs","""2024-11-12T18:20:25.627Z""","null","+","null","","","","","","",""
"","","","","","image-keyboard-response","127","149101","0.0-13.0-1.4-1.4","jbu4vnrhhs","","jbu4vnrhhs","""2024-11-12T18:20:25.627Z""","540","materials/imgs/D53.png","arrowright","","[""materials/imgs/D64.png"",""materials/imgs/D53.png""]","","check","materials/imgs/D53.png","1","true"
"","","","","","html-keyboard-response","128","149603","0.0-13.0-2.4-0.8","jbu4vnrhhs","","jbu4vnrhhs","""2024-11-12T18:20:25.627Z""","null","+","null","","","","","","",""
"","","","","","image-keyboard-response","129","151111","0.0-13.0-2.4-1.8","jbu4vnrhhs","","jbu4vnrhhs","""2024-11-12T18:20:25.627Z""","1497","materials/imgs/D51.png","arrowright","","[""materials/imgs/D92.png"",""materials/imgs/D20.png""]","false","validation","","",""
"","","","","","html-keyboard-response","130","151613","0.0-13.0-2.4-0.9","jbu4vnrhhs","","jbu4vnrhhs","""2024-11-12T18:20:25.627Z""","null","+","null","","","","","","",""
"","","","","","image-keyboard-response","131","152955","0.0-13.0-2.4-1.9","jbu4vnrhhs","","jbu4vnrhhs","""2024-11-12T18:20:25.627Z""","1341","materials/imgs/D51.png","arrowright","","[""materials/imgs/D92.png"",""materials/imgs/D20.png""]","false","validation","","",""
"","","","","","html-button-response","132","155602","0.0-14.0","jbu4vnrhhs","","jbu4vnrhhs","""2024-11-12T18:20:25.627Z""","2645","You have completed 25% of the trials. Please click 'Continue' when you are ready proceed.","0","","","","","","",""
"","","","","","html-keyboard-response","133","156104","0.0-15.0-0.0-0.0","jbu4vnrhhs","","jbu4vnrhhs","""2024-11-12T18:20:25.627Z""","null","+","null","","","","","","",""
"","","","","","image-keyboard-response","134","157236","0.0-15.0-0.0-1.0","jbu4vnrhhs","","jbu4vnrhhs","""2024-11-12T18:20:25.627Z""","1131","materials/imgs/D81.png","arrowright","","[""materials/imgs/D53.png"",""materials/imgs/D104.png""]","false","random","","",""
"","","","","","html-keyboard-response","135","157739","0.0-15.0-0.0-0.1","jbu4vnrhhs","","jbu4vnrhhs","""2024-11-12T18:20:25.627Z""","null","+","null","","","","","","",""
"","","","","","image-keyboard-response","136","158425","0.0-15.0-0.0-1.1","jbu4vnrhhs","","jbu4vnrhhs","""2024-11-12T18:20:25.627Z""","684","materials/imgs/D94.png","arrowleft","","[""materials/imgs/D25.png"",""materials/imgs/D37.png""]","false","random","","",""
"","","","","","html-keyboard-response","137","158927","0.0-15.0-0.0-0.2","jbu4vnrhhs","","jbu4vnrhhs","""2024-11-12T18:20:25.627Z""","null","+","null","","","","","","",""
"","","","","","image-keyboard-response","138","159680","0.0-15.0-0.0-1.2","jbu4vnrhhs","","jbu4vnrhhs","""2024-11-12T18:20:25.627Z""","753","materials/imgs/D84.png","arrowright","","[""materials/imgs/D56.png"",""materials/imgs/D6.png""]","false","random","","",""
"","","","","","html-keyboard-response","139","160181","0.0-15.0-0.0-0.3","jbu4vnrhhs","","jbu4vnrhhs","""2024-11-12T18:20:25.627Z""","null","+","null","","","","","","",""
"","","","","","image-keyboard-response","140","161033","0.0-15.0-0.0-1.3","jbu4vnrhhs","","jbu4vnrhhs","""2024-11-12T18:20:25.627Z""","851","materials/imgs/D81.png","arrowleft","","[""materials/imgs/D56.png"",""materials/imgs/D111.png""]","false","random","","",""
"","","","","","html-keyboard-response","141","161535","0.0-15.0-0.0-0.4","jbu4vnrhhs","","jbu4vnrhhs","""2024-11-12T18:20:25.627Z""","null","+","null","","","","","","",""
"","","","","","image-keyboard-response","142","162640","0.0-15.0-0.0-1.4","jbu4vnrhhs","","jbu4vnrhhs","""2024-11-12T18:20:25.627Z""","1095","materials/imgs/D76.png","arrowleft","","[""materials/imgs/D32.png"",""materials/imgs/D56.png""]","false","random","","",""
"","","","","","html-keyboard-response","143","163141","0.0-15.0-0.0-0.5","jbu4vnrhhs","","jbu4vnrhhs","""2024-11-12T18:20:25.627Z""","null","+","null","","","","","","",""
"","","","","","image-keyboard-response","144","164028","0.0-15.0-0.0-1.5","jbu4vnrhhs","","jbu4vnrhhs","""2024-11-12T18:20:25.627Z""","884","materials/imgs/D26.png","arrowleft","","[""materials/imgs/D34.png"",""materials/imgs/D11.png""]","false","random","","",""
"","","","","","html-keyboard-response","145","164529","0.0-15.0-0.0-0.6","jbu4vnrhhs","","jbu4vnrhhs","""2024-11-12T18:20:25.627Z""","null","+","null","","","","","","",""
"","","","","","image-keyboard-response","146","165437","0.0-15.0-0.0-1.6","jbu4vnrhhs","","jbu4vnrhhs","""2024-11-12T18:20:25.627Z""","907","materials/imgs/D1.png","arrowleft","","[""materials/imgs/D32.png"",""materials/imgs/D74.png""]","false","random","","",""
"","","","","","html-keyboard-response","147","165938","0.0-15.0-1.0-0.0","jbu4vnrhhs","","jbu4vnrhhs","""2024-11-12T18:20:25.627Z""","null","+","null","","","","","","",""
"","","","","","image-keyboard-response","148","166475","0.0-15.0-1.0-1.0","jbu4vnrhhs","","jbu4vnrhhs","""2024-11-12T18:20:25.627Z""","535","materials/imgs/D53.png","arrowright","","[""materials/imgs/D64.png"",""materials/imgs/D53.png""]","","check","materials/imgs/D53.png","1","true"
"","","","","","html-keyboard-response","149","166977","0.0-15.0-2.0-0.0","jbu4vnrhhs","","jbu4vnrhhs","""2024-11-12T18:20:25.627Z""","null","+","null","","","","","","",""
"","","","","","image-keyboard-response","150","167745","0.0-15.0-2.0-1.0","jbu4vnrhhs","","jbu4vnrhhs","""2024-11-12T18:20:25.627Z""","767","materials/imgs/D11.png","arrowleft","","[""materials/imgs/D83.png"",""materials/imgs/D48.png""]","false","validation","","",""
"","","","","","html-keyboard-response","151","168247","0.0-15.0-2.0-0.1","jbu4vnrhhs","","jbu4vnrhhs","""2024-11-12T18:20:25.627Z""","null","+","null","","","","","","",""
"","","","","","image-keyboard-response","152","169085","0.0-15.0-2.0-1.1","jbu4vnrhhs","","jbu4vnrhhs","""2024-11-12T18:20:25.627Z""","837","materials/imgs/D46.png","arrowright","","[""materials/imgs/D92.png"",""materials/imgs/D77.png""]","false","validation","","",""
"","","","","","html-keyboard-response","153","169587","0.0-15.0-0.1-0.7","jbu4vnrhhs","","jbu4vnrhhs","""2024-11-12T18:20:25.627Z""","null","+","null","","","","","","",""
"","","","","","image-keyboard-response","154","170622","0.0-15.0-0.1-1.7","jbu4vnrhhs","","jbu4vnrhhs","""2024-11-12T18:20:25.627Z""","1034","materials/imgs/D29.png","arrowright","","[""materials/imgs/D18.png"",""materials/imgs/D1.png""]","false","random","","",""
"","","","","","html-keyboard-response","155","171124","0.0-15.0-0.1-0.8","jbu4vnrhhs","","jbu4vnrhhs","""2024-11-12T18:20:25.627Z""","null","+","null","","","","","","",""
"","","","","","image-keyboard-response","156","171605","0.0-15.0-0.1-1.8","jbu4vnrhhs","","jbu4vnrhhs","""2024-11-12T18:20:25.627Z""","479","materials/imgs/D29.png","arrowleft","","[""materials/imgs/D82.png"",""materials/imgs/D105.png""]","true","random","","",""
"","","","","","html-keyboard-response","157","178608","0.0-15.0-0.1-2.8-0.8","jbu4vnrhhs","","jbu4vnrhhs","""2024-11-12T18:20:25.627Z""","7001","<p><strong>You're going too fast.</strong><p>Please slow down and assess each triplet.<p>Press 'y' to continue.</p></p>","y","","","","","","",""
"","","","","","html-keyboard-response","158","179109","0.0-15.0-0.1-0.9","jbu4vnrhhs","","jbu4vnrhhs","""2024-11-12T18:20:25.627Z""","null","+","null","","","","","","",""
"","","","","","image-keyboard-response","159","180880","0.0-15.0-0.1-1.9","jbu4vnrhhs","","jbu4vnrhhs","""2024-11-12T18:20:25.627Z""","1768","materials/imgs/D36.png","arrowleft","","[""materials/imgs/D87.png"",""materials/imgs/D96.png""]","false","random","","",""
"","","","","","html-keyboard-response","160","181382","0.0-15.0-0.1-0.10","jbu4vnrhhs","","jbu4vnrhhs","""2024-11-12T18:20:25.627Z""","null","+","null","","","","","","",""
"","","","","","image-keyboard-response","161","182354","0.0-15.0-0.1-1.10","jbu4vnrhhs","","jbu4vnrhhs","""2024-11-12T18:20:25.627Z""","971","materials/imgs/D17.png","arrowright","","[""materials/imgs/D101.png"",""materials/imgs/D34.png""]","false","random","","",""
"","","","","","html-keyboard-response","162","182856","0.0-15.0-0.1-0.11","jbu4vnrhhs","","jbu4vnrhhs","""2024-11-12T18:20:25.627Z""","null","+","null","","","","","","",""
"","","","","","image-keyboard-response","163","184023","0.0-15.0-0.1-1.11","jbu4vnrhhs","","jbu4vnrhhs","""2024-11-12T18:20:25.627Z""","1166","materials/imgs/D35.png","arrowright","","[""materials/imgs/D85.png"",""materials/imgs/D51.png""]","false","random","","",""
"","","","","","html-keyboard-response","164","184525","0.0-15.0-0.1-0.12","jbu4vnrhhs","","jbu4vnrhhs","""2024-11-12T18:20:25.627Z""","null","+","null","","","","","","",""
"","","","","","image-keyboard-response","165","185458","0.0-15.0-0.1-1.12","jbu4vnrhhs","","jbu4vnrhhs","""2024-11-12T18:20:25.627Z""","932","materials/imgs/D36.png","arrowleft","","[""materials/imgs/D53.png"",""materials/imgs/D34.png""]","false","random","","",""
"","","","","","html-keyboard-response","166","185960","0.0-15.0-0.1-0.13","jbu4vnrhhs","","jbu4vnrhhs","""2024-11-12T18:20:25.627Z""","null","+","null","","","","","","",""
"","","","","","image-keyboard-response","167","187206","0.0-15.0-0.1-1.13","jbu4vnrhhs","","jbu4vnrhhs","""2024-11-12T18:20:25.627Z""","1244","materials/imgs/D19.png","arrowleft","","[""materials/imgs/D35.png"",""materials/imgs/D37.png""]","false","random","","",""
"","","","","","html-keyboard-response","168","187707","0.0-15.0-1.1-0.1","jbu4vnrhhs","","jbu4vnrhhs","""2024-11-12T18:20:25.627Z""","null","+","null","","","","","","",""
"","","","","","image-keyboard-response","169","188481","0.0-15.0-1.1-1.1","jbu4vnrhhs","","jbu4vnrhhs","""2024-11-12T18:20:25.627Z""","773","materials/imgs/D53.png","arrowright","","[""materials/imgs/D64.png"",""materials/imgs/D53.png""]","","check","materials/imgs/D53.png","1","true"
"","","","","","html-keyboard-response","170","188983","0.0-15.0-2.1-0.2","jbu4vnrhhs","","jbu4vnrhhs","""2024-11-12T18:20:25.627Z""","null","+","null","","","","","","",""
"","","","","","image-keyboard-response","171","190443","0.0-15.0-2.1-1.2","jbu4vnrhhs","","jbu4vnrhhs","""2024-11-12T18:20:25.627Z""","1459","materials/imgs/D52.png","arrowleft","","[""materials/imgs/D9.png"",""materials/imgs/D19.png""]","false","validation","","",""
"","","","","","html-keyboard-response","172","190945","0.0-15.0-2.1-0.3","jbu4vnrhhs","","jbu4vnrhhs","""2024-11-12T18:20:25.627Z""","null","+","null","","","","","","",""
"","","","","","image-keyboard-response","173","191872","0.0-15.0-2.1-1.3","jbu4vnrhhs","","jbu4vnrhhs","""2024-11-12T18:20:25.627Z""","926","materials/imgs/D22.png","arrowleft","","[""materials/imgs/D4.png"",""materials/imgs/D25.png""]","false","validation","","",""
"","","","","","html-keyboard-response","174","192374","0.0-15.0-0.2-0.14","jbu4vnrhhs","","jbu4vnrhhs","""2024-11-12T18:20:25.627Z""","null","+","null","","","","","","",""
"","","","","","image-keyboard-response","175","193552","0.0-15.0-0.2-1.14","jbu4vnrhhs","","jbu4vnrhhs","""2024-11-12T18:20:25.627Z""","1177","materials/imgs/D74.png","arrowleft","","[""materials/imgs/D35.png"",""materials/imgs/D25.png""]","false","random","","",""
"","","","","","html-keyboard-response","176","194054","0.0-15.0-0.2-0.15","jbu4vnrhhs","","jbu4vnrhhs","""2024-11-12T18:20:25.627Z""","null","+","null","","","","","","",""
"","","","","","image-keyboard-response","177","195302","0.0-15.0-0.2-1.15","jbu4vnrhhs","","jbu4vnrhhs","""2024-11-12T18:20:25.627Z""","1247","materials/imgs/D64.png","arrowright","","[""materials/imgs/D66.png"",""materials/imgs/D3.png""]","false","random","","",""
"","","","","","html-keyboard-response","178","195804","0.0-15.0-0.2-0.16","jbu4vnrhhs","","jbu4vnrhhs","""2024-11-12T18:20:25.627Z""","null","+","null","","","","","","",""
"","","","","","image-keyboard-response","179","197512","0.0-15.0-0.2-1.16","jbu4vnrhhs","","jbu4vnrhhs","""2024-11-12T18:20:25.627Z""","1707","materials/imgs/D96.png","arrowright","","[""materials/imgs/D34.png"",""materials/imgs/D101.png""]","false","random","","",""
"","","","","","html-keyboard-response","180","198013","0.0-15.0-0.2-0.17","jbu4vnrhhs","","jbu4vnrhhs","""2024-11-12T18:20:25.627Z""","null","+","null","","","","","","",""
"","","","","","image-keyboard-response","181","198855","0.0-15.0-0.2-1.17","jbu4vnrhhs","","jbu4vnrhhs","""2024-11-12T18:20:25.627Z""","841","materials/imgs/D85.png","arrowright","","[""materials/imgs/D51.png"",""materials/imgs/D79.png""]","false","random","","",""
"","","","","","html-keyboard-response","182","199357","0.0-15.0-0.2-0.18","jbu4vnrhhs","","jbu4vnrhhs","""2024-11-12T18:20:25.627Z""","null","+","null","","","","","","",""
"","","","","","image-keyboard-response","183","200873","0.0-15.0-0.2-1.18","jbu4vnrhhs","","jbu4vnrhhs","""2024-11-12T18:20:25.627Z""","1515","materials/imgs/D56.png","arrowright","","[""materials/imgs/D102.png"",""materials/imgs/D111.png""]","false","random","","",""
"","","","","","html-keyboard-response","184","201375","0.0-15.0-0.2-0.19","jbu4vnrhhs","","jbu4vnrhhs","""2024-11-12T18:20:25.627Z""","null","+","null","","","","","","",""
"","","","","","image-keyboard-response","185","202452","0.0-15.0-0.2-1.19","jbu4vnrhhs","","jbu4vnrhhs","""2024-11-12T18:20:25.627Z""","1076","materials/imgs/D82.png","arrowright","","[""materials/imgs/D46.png"",""materials/imgs/D19.png""]","false","random","","",""
"","","","","","html-keyboard-response","186","202954","0.0-15.0-0.2-0.20","jbu4vnrhhs","","jbu4vnrhhs","""2024-11-12T18:20:25.627Z""","null","+","null","","","","","","",""
"","","","","","image-keyboard-response","187","203932","0.0-15.0-0.2-1.20","jbu4vnrhhs","","jbu4vnrhhs","""2024-11-12T18:20:25.627Z""","977","materials/imgs/D17.png","arrowleft","","[""materials/imgs/D83.png"",""materials/imgs/D75.png""]","false","random","","",""
"","","","","","html-keyboard-response","188","204433","0.0-15.0-1.2-0.2","jbu4vnrhhs","","jbu4vnrhhs","""2024-11-12T18:20:25.627Z""","null","+","null","","","","","","",""
"","","","","","image-keyboard-response","189","205347","0.0-15.0-1.2-1.2","jbu4vnrhhs","","jbu4vnrhhs","""2024-11-12T18:20:25.627Z""","912","materials/imgs/D46.png","arrowleft","","[""materials/imgs/D46.png"",""materials/imgs/D26.png""]","","check","materials/imgs/D46.png","0","true"
"","","","","","html-keyboard-response","190","205849","0.0-15.0-2.2-0.4","jbu4vnrhhs","","jbu4vnrhhs","""2024-11-12T18:20:25.627Z""","null","+","null","","","","","","",""
"","","","","","image-keyboard-response","191","206831","0.0-15.0-2.2-1.4","jbu4vnrhhs","","jbu4vnrhhs","""2024-11-12T18:20:25.627Z""","980","materials/imgs/D24.png","arrowleft","","[""materials/imgs/D36.png"",""materials/imgs/D8.png""]","false","validation","","",""
"","","","","","html-keyboard-response","192","207333","0.0-15.0-2.2-0.5","jbu4vnrhhs","","jbu4vnrhhs","""2024-11-12T18:20:25.627Z""","null","+","null","","","","","","",""
"","","","","","image-keyboard-response","193","208304","0.0-15.0-2.2-1.5","jbu4vnrhhs","","jbu4vnrhhs","""2024-11-12T18:20:25.627Z""","970","materials/imgs/D66.png","arrowleft","","[""materials/imgs/D85.png"",""materials/imgs/D25.png""]","false","validation","","",""
"","","","","","html-keyboard-response","194","208806","0.0-15.0-0.3-0.21","jbu4vnrhhs","","jbu4vnrhhs","""2024-11-12T18:20:25.627Z""","null","+","null","","","","","","",""
"","","","","","image-keyboard-response","195","210147","0.0-15.0-0.3-1.21","jbu4vnrhhs","","jbu4vnrhhs","""2024-11-12T18:20:25.627Z""","1340","materials/imgs/D56.png","arrowleft","","[""materials/imgs/D94.png"",""materials/imgs/D14.png""]","false","random","","",""
"","","","","","html-keyboard-response","196","210649","0.0-15.0-0.3-0.22","jbu4vnrhhs","","jbu4vnrhhs","""2024-11-12T18:20:25.627Z""","null","+","null","","","","","","",""
"","","","","","image-keyboard-response","197","212019","0.0-15.0-0.3-1.22","jbu4vnrhhs","","jbu4vnrhhs","""2024-11-12T18:20:25.627Z""","1369","materials/imgs/D68.png","arrowright","","[""materials/imgs/D6.png"",""materials/imgs/D51.png""]","false","random","","",""
"","","","","","html-keyboard-response","198","212521","0.0-15.0-0.3-0.23","jbu4vnrhhs","","jbu4vnrhhs","""2024-11-12T18:20:25.627Z""","null","+","null","","","","","","",""
"","","","","","image-keyboard-response","199","213577","0.0-15.0-0.3-1.23","jbu4vnrhhs","","jbu4vnrhhs","""2024-11-12T18:20:25.627Z""","1055","materials/imgs/D85.png","arrowleft","","[""materials/imgs/D17.png"",""materials/imgs/D34.png""]","false","random","","",""
"","","","","","html-keyboard-response","200","214079","0.0-15.0-0.3-0.24","jbu4vnrhhs","","jbu4vnrhhs","""2024-11-12T18:20:25.627Z""","null","+","null","","","","","","",""
"","","","","","image-keyboard-response","201","215308","0.0-15.0-0.3-1.24","jbu4vnrhhs","","jbu4vnrhhs","""2024-11-12T18:20:25.627Z""","1228","materials/imgs/D83.png","arrowright","","[""materials/imgs/D20.png"",""materials/imgs/D29.png""]","false","random","","",""
"","","","","","html-keyboard-response","202","215810","0.0-15.0-0.3-0.25","jbu4vnrhhs","","jbu4vnrhhs","""2024-11-12T18:20:25.627Z""","null","+","null","","","","","","",""
"","","","","","image-keyboard-response","203","216969","0.0-15.0-0.3-1.25","jbu4vnrhhs","","jbu4vnrhhs","""2024-11-12T18:20:25.627Z""","1158","materials/imgs/D52.png","arrowright","","[""materials/imgs/D48.png"",""materials/imgs/D92.png""]","false","random","","",""
"","","","","","html-keyboard-response","204","217471","0.0-15.0-0.3-0.26","jbu4vnrhhs","","jbu4vnrhhs","""2024-11-12T18:20:25.627Z""","null","+","null","","","","","","",""
"","","","","","image-keyboard-response","205","218691","0.0-15.0-0.3-1.26","jbu4vnrhhs","","jbu4vnrhhs","""2024-11-12T18:20:25.627Z""","1219","materials/imgs/D52.png","arrowleft","","[""materials/imgs/D14.png"",""materials/imgs/D49.png""]","false","random","","",""
"","","","","","html-keyboard-response","206","219193","0.0-15.0-0.3-0.27","jbu4vnrhhs","","jbu4vnrhhs","""2024-11-12T18:20:25.627Z""","null","+","null","","","","","","",""
"","","","","","image-keyboard-response","207","221175","0.0-15.0-0.3-1.27","jbu4vnrhhs","","jbu4vnrhhs","""2024-11-12T18:20:25.627Z""","1981","materials/imgs/D22.png","arrowleft","","[""materials/imgs/D68.png"",""materials/imgs/D16.png""]","false","random","","",""
"","","","","","html-keyboard-response","208","221677","0.0-15.0-1.3-0.3","jbu4vnrhhs","","jbu4vnrhhs","""2024-11-12T18:20:25.627Z""","null","+","null","","","","","","",""
"","","","","","image-keyboard-response","209","222337","0.0-15.0-1.3-1.3","jbu4vnrhhs","","jbu4vnrhhs","""2024-11-12T18:20:25.627Z""","660","materials/imgs/D53.png","arrowright","","[""materials/imgs/D64.png"",""materials/imgs/D53.png""]","","check","materials/imgs/D53.png","1","true"
"","","","","","html-keyboard-response","210","222839","0.0-15.0-2.3-0.6","jbu4vnrhhs","","jbu4vnrhhs","""2024-11-12T18:20:25.627Z""","null","+","null","","","","","","",""
"","","","","","image-keyboard-response","211","224366","0.0-15.0-2.3-1.6","jbu4vnrhhs","","jbu4vnrhhs","""2024-11-12T18:20:25.627Z""","1527","materials/imgs/D82.png","arrowleft","","[""materials/imgs/D83.png"",""materials/imgs/D22.png""]","false","validation","","",""
"","","","","","html-keyboard-response","212","224868","0.0-15.0-2.3-0.7","jbu4vnrhhs","","jbu4vnrhhs","""2024-11-12T18:20:25.627Z""","null","+","null","","","","","","",""
"","","","","","image-keyboard-response","213","225808","0.0-15.0-2.3-1.7","jbu4vnrhhs","","jbu4vnrhhs","""2024-11-12T18:20:25.627Z""","938","materials/imgs/D96.png","arrowright","","[""materials/imgs/D46.png"",""materials/imgs/D18.png""]","false","validation","","",""
"","","","","","html-keyboard-response","214","226309","0.0-15.0-0.4-0.28","jbu4vnrhhs","","jbu4vnrhhs","""2024-11-12T18:20:25.627Z""","null","+","null","","","","","","",""
"","","","","","image-keyboard-response","215","227584","0.0-15.0-0.4-1.28","jbu4vnrhhs","","jbu4vnrhhs","""2024-11-12T18:20:25.627Z""","1274","materials/imgs/D103.png","arrowleft","","[""materials/imgs/D53.png"",""materials/imgs/D47.png""]","false","random","","",""
"","","","","","html-keyboard-response","216","228086","0.0-15.0-0.4-0.29","jbu4vnrhhs","","jbu4vnrhhs","""2024-11-12T18:20:25.627Z""","null","+","null","","","","","","",""
"","","","","","image-keyboard-response","217","229619","0.0-15.0-0.4-1.29","jbu4vnrhhs","","jbu4vnrhhs","""2024-11-12T18:20:25.627Z""","1532","materials/imgs/D8.png","arrowright","","[""materials/imgs/D24.png"",""materials/imgs/D29.png""]","false","random","","",""
"","","","","","html-keyboard-response","218","230121","0.0-15.0-0.4-0.30","jbu4vnrhhs","","jbu4vnrhhs","""2024-11-12T18:20:25.627Z""","null","+","null","","","","","","",""
"","","","","","image-keyboard-response","219","231022","0.0-15.0-0.4-1.30","jbu4vnrhhs","","jbu4vnrhhs","""2024-11-12T18:20:25.627Z""","899","materials/imgs/D36.png","arrowright","","[""materials/imgs/D51.png"",""materials/imgs/D56.png""]","false","random","","",""
"","","","","","html-keyboard-response","220","231523","0.0-15.0-0.4-0.31","jbu4vnrhhs","","jbu4vnrhhs","""2024-11-12T18:20:25.627Z""","null","+","null","","","","","","",""
"","","","","","image-keyboard-response","221","232583","0.0-15.0-0.4-1.31","jbu4vnrhhs","","jbu4vnrhhs","""2024-11-12T18:20:25.627Z""","1058","materials/imgs/D29.png","arrowleft","","[""materials/imgs/D52.png"",""materials/imgs/D11.png""]","false","random","","",""
"","","","","","html-keyboard-response","222","233085","0.0-15.0-0.4-0.32","jbu4vnrhhs","","jbu4vnrhhs","""2024-11-12T18:20:25.627Z""","null","+","null","","","","","","",""
"","","","","","image-keyboard-response","223","233829","0.0-15.0-0.4-1.32","jbu4vnrhhs","","jbu4vnrhhs","""2024-11-12T18:20:25.627Z""","743","materials/imgs/D106.png","arrowright","","[""materials/imgs/D8.png"",""materials/imgs/D78.png""]","false","random","","",""
"","","","","","html-keyboard-response","224","234330","0.0-15.0-0.4-0.33","jbu4vnrhhs","","jbu4vnrhhs","""2024-11-12T18:20:25.627Z""","null","+","null","","","","","","",""
"","","","","","image-keyboard-response","225","235012","0.0-15.0-0.4-1.33","jbu4vnrhhs","","jbu4vnrhhs","""2024-11-12T18:20:25.627Z""","680","materials/imgs/D55.png","arrowleft","","[""materials/imgs/D77.png"",""materials/imgs/D47.png""]","false","random","","",""
"","","","","","html-keyboard-response","226","235513","0.0-15.0-0.4-0.34","jbu4vnrhhs","","jbu4vnrhhs","""2024-11-12T18:20:25.627Z""","null","+","null","","","","","","",""
"","","","","","image-keyboard-response","227","237339","0.0-15.0-0.4-1.34","jbu4vnrhhs","","jbu4vnrhhs","""2024-11-12T18:20:25.627Z""","1824","materials/imgs/D65.png","arrowleft","","[""materials/imgs/D24.png"",""materials/imgs/D68.png""]","false","random","","",""
"","","","","","html-keyboard-response","228","237840","0.0-15.0-1.4-0.4","jbu4vnrhhs","","jbu4vnrhhs","""2024-11-12T18:20:25.627Z""","null","+","null","","","","","","",""
"","","","","","image-keyboard-response","229","238397","0.0-15.0-1.4-1.4","jbu4vnrhhs","","jbu4vnrhhs","""2024-11-12T18:20:25.627Z""","555","materials/imgs/D26.png","arrowleft","","[""materials/imgs/D26.png"",""materials/imgs/D46.png""]","","check","materials/imgs/D26.png","0","true"
"","","","","","html-keyboard-response","230","238898","0.0-15.0-2.4-0.8","jbu4vnrhhs","","jbu4vnrhhs","""2024-11-12T18:20:25.627Z""","null","+","null","","","","","","",""
"","","","","","image-keyboard-response","231","239537","0.0-15.0-2.4-1.8","jbu4vnrhhs","","jbu4vnrhhs","""2024-11-12T18:20:25.627Z""","637","materials/imgs/D57.png","arrowright","","[""materials/imgs/D111.png"",""materials/imgs/D4.png""]","false","validation","","",""
"","","","","","html-keyboard-response","232","240038","0.0-15.0-2.4-0.9","jbu4vnrhhs","","jbu4vnrhhs","""2024-11-12T18:20:25.627Z""","null","+","null","","","","","","",""
"","","","","","image-keyboard-response","233","240879","0.0-15.0-2.4-1.9","jbu4vnrhhs","","jbu4vnrhhs","""2024-11-12T18:20:25.627Z""","841","materials/imgs/D64.png","arrowleft","","[""materials/imgs/D6.png"",""materials/imgs/D81.png""]","false","validation","","",""
"","","","","","html-button-response","234","243108","0.0-16.0","jbu4vnrhhs","","jbu4vnrhhs","""2024-11-12T18:20:25.627Z""","2227","You have completed 50% of the trials. Please click 'Continue' when you are ready proceed.","0","","","","","","",""
"","","","","","html-keyboard-response","235","243608","0.0-17.0-0.0-0.0","jbu4vnrhhs","","jbu4vnrhhs","""2024-11-12T18:20:25.627Z""","null","+","null","","","","","","",""
"","","","","","image-keyboard-response","236","244970","0.0-17.0-0.0-1.0","jbu4vnrhhs","","jbu4vnrhhs","""2024-11-12T18:20:25.627Z""","1361","materials/imgs/D96.png","arrowleft","","[""materials/imgs/D102.png"",""materials/imgs/D35.png""]","false","random","","",""
"","","","","","html-keyboard-response","237","245472","0.0-17.0-0.0-0.1","jbu4vnrhhs","","jbu4vnrhhs","""2024-11-12T18:20:25.627Z""","null","+","null","","","","","","",""
"","","","","","image-keyboard-response","238","246121","0.0-17.0-0.0-1.1","jbu4vnrhhs","","jbu4vnrhhs","""2024-11-12T18:20:25.627Z""","648","materials/imgs/D3.png","arrowleft","","[""materials/imgs/D20.png"",""materials/imgs/D102.png""]","false","random","","",""
"","","","","","html-keyboard-response","239","246623","0.0-17.0-0.0-0.2","jbu4vnrhhs","","jbu4vnrhhs","""2024-11-12T18:20:25.627Z""","null","+","null","","","","","","",""
"","","","","","image-keyboard-response","240","247363","0.0-17.0-0.0-1.2","jbu4vnrhhs","","jbu4vnrhhs","""2024-11-12T18:20:25.627Z""","739","materials/imgs/D77.png","arrowright","","[""materials/imgs/D25.png"",""materials/imgs/D68.png""]","false","random","","",""
"","","","","","html-keyboard-response","241","247865","0.0-17.0-0.0-0.3","jbu4vnrhhs","","jbu4vnrhhs","""2024-11-12T18:20:25.627Z""","null","+","null","","","","","","",""
"","","","","","image-keyboard-response","242","248786","0.0-17.0-0.0-1.3","jbu4vnrhhs","","jbu4vnrhhs","""2024-11-12T18:20:25.627Z""","920","materials/imgs/D95.png","arrowright","","[""materials/imgs/D75.png"",""materials/imgs/D87.png""]","false","random","","",""
"","","","","","html-keyboard-response","243","249288","0.0-17.0-0.0-0.4","jbu4vnrhhs","","jbu4vnrhhs","""2024-11-12T18:20:25.627Z""","null","+","null","","","","","","",""
"","","","","","image-keyboard-response","244","249983","0.0-17.0-0.0-1.4","jbu4vnrhhs","","jbu4vnrhhs","""2024-11-12T18:20:25.627Z""","694","materials/imgs/D101.png","arrowleft","","[""materials/imgs/D111.png"",""materials/imgs/D104.png""]","false","random","","",""
"","","","","","html-keyboard-response","245","250485","0.0-17.0-0.0-0.5","jbu4vnrhhs","","jbu4vnrhhs","""2024-11-12T18:20:25.627Z""","null","+","null","","","","","","",""
"","","","","","image-keyboard-response","246","251310","0.0-17.0-0.0-1.5","jbu4vnrhhs","","jbu4vnrhhs","""2024-11-12T18:20:25.627Z""","824","materials/imgs/D74.png","arrowleft","","[""materials/imgs/D66.png"",""materials/imgs/D95.png""]","false","random","","",""
"","","","","","html-keyboard-response","247","251812","0.0-17.0-0.0-0.6","jbu4vnrhhs","","jbu4vnrhhs","""2024-11-12T18:20:25.627Z""","null","+","null","","","","","","",""
"","","","","","image-keyboard-response","248","253007","0.0-17.0-0.0-1.6","jbu4vnrhhs","","jbu4vnrhhs","""2024-11-12T18:20:25.627Z""","1194","materials/imgs/D26.png","arrowleft","","[""materials/imgs/D16.png"",""materials/imgs/D80.png""]","false","random","","",""
"","","","","","html-keyboard-response","249","253508","0.0-17.0-1.0-0.0","jbu4vnrhhs","","jbu4vnrhhs","""2024-11-12T18:20:25.627Z""","null","+","null","","","","","","",""
"","","","","","image-keyboard-response","250","254017","0.0-17.0-1.0-1.0","jbu4vnrhhs","","jbu4vnrhhs","""2024-11-12T18:20:25.627Z""","509","materials/imgs/D26.png","arrowleft","","[""materials/imgs/D26.png"",""materials/imgs/D46.png""]","","check","materials/imgs/D26.png","0","true"
"","","","","","html-keyboard-response","251","254519","0.0-17.0-2.0-0.0","jbu4vnrhhs","","jbu4vnrhhs","""2024-11-12T18:20:25.627Z""","null","+","null","","","","","","",""
"","","","","","image-keyboard-response","252","255150","0.0-17.0-2.0-1.0","jbu4vnrhhs","","jbu4vnrhhs","""2024-11-12T18:20:25.627Z""","630","materials/imgs/D9.png","arrowright","","[""materials/imgs/D103.png"",""materials/imgs/D4.png""]","false","validation","","",""
"","","","","","html-keyboard-response","253","255652","0.0-17.0-2.0-0.1","jbu4vnrhhs","","jbu4vnrhhs","""2024-11-12T18:20:25.627Z""","null","+","null","","","","","","",""
"","","","","","image-keyboard-response","254","256425","0.0-17.0-2.0-1.1","jbu4vnrhhs","","jbu4vnrhhs","""2024-11-12T18:20:25.627Z""","769","materials/imgs/D37.png","arrowright","","[""materials/imgs/D84.png"",""materials/imgs/D111.png""]","false","validation","","",""
"","","","","","html-keyboard-response","255","256928","0.0-17.0-0.1-0.7","jbu4vnrhhs","","jbu4vnrhhs","""2024-11-12T18:20:25.627Z""","null","+","null","","","","","","",""
"","","","","","image-keyboard-response","256","257674","0.0-17.0-0.1-1.7","jbu4vnrhhs","","jbu4vnrhhs","""2024-11-12T18:20:25.627Z""","744","materials/imgs/D49.png","arrowright","","[""materials/imgs/D74.png"",""materials/imgs/D35.png""]","false","random","","",""
"","","","","","html-keyboard-response","257","258176","0.0-17.0-0.1-0.8","jbu4vnrhhs","","jbu4vnrhhs","""2024-11-12T18:20:25.627Z""","null","+","null","","","","","","",""
"","","","","","image-keyboard-response","258","258845","0.0-17.0-0.1-1.8","jbu4vnrhhs","","jbu4vnrhhs","""2024-11-12T18:20:25.627Z""","667","materials/imgs/D84.png","arrowleft","","[""materials/imgs/D66.png"",""materials/imgs/D21.png""]","false","random","","",""
"","","","","","html-keyboard-response","259","259347","0.0-17.0-0.1-0.9","jbu4vnrhhs","","jbu4vnrhhs","""2024-11-12T18:20:25.627Z""","null","+","null","","","","","","",""
"","","","","","image-keyboard-response","260","260102","0.0-17.0-0.1-1.9","jbu4vnrhhs","","jbu4vnrhhs","""2024-11-12T18:20:25.627Z""","754","materials/imgs/D68.png","arrowleft","","[""materials/imgs/D79.png"",""materials/imgs/D106.png""]","false","random","","",""
"","","","","","html-keyboard-response","261","260603","0.0-17.0-0.1-0.10","jbu4vnrhhs","","jbu4vnrhhs","""2024-11-12T18:20:25.627Z""","null","+","null","","","","","","",""
"","","","","","image-keyboard-response","262","261288","0.0-17.0-0.1-1.10","jbu4vnrhhs","","jbu4vnrhhs","""2024-11-12T18:20:25.627Z""","683","materials/imgs/D32.png","arrowleft","","[""materials/imgs/D85.png"",""materials/imgs/D95.png""]","false","random","","",""
"","","","","","html-keyboard-response","263","261790","0.0-17.0-0.1-0.11","jbu4vnrhhs","","jbu4vnrhhs","""2024-11-12T18:20:25.627Z""","null","+","null","","","","","","",""
"","","","","","image-keyboard-response","264","262566","0.0-17.0-0.1-1.11","jbu4vnrhhs","","jbu4vnrhhs","""2024-11-12T18:20:25.627Z""","775","materials/imgs/D83.png","arrowright","","[""materials/imgs/D74.png"",""materials/imgs/D8.png""]","false","random","","",""
"","","","","","html-keyboard-response","265","263067","0.0-17.0-0.1-0.12","jbu4vnrhhs","","jbu4vnrhhs","""2024-11-12T18:20:25.627Z""","null","+","null","","","","","","",""
"","","","","","image-keyboard-response","266","263704","0.0-17.0-0.1-1.12","jbu4vnrhhs","","jbu4vnrhhs","""2024-11-12T18:20:25.627Z""","636","materials/imgs/D34.png","arrowright","","[""materials/imgs/D78.png"",""materials/imgs/D3.png""]","false","random","","",""
"","","","","","html-keyboard-response","267","264206","0.0-17.0-0.1-0.13","jbu4vnrhhs","","jbu4vnrhhs","""2024-11-12T18:20:25.627Z""","null","+","null","","","","","","",""
"","","","","","image-keyboard-response","268","264896","0.0-17.0-0.1-1.13","jbu4vnrhhs","","jbu4vnrhhs","""2024-11-12T18:20:25.627Z""","690","materials/imgs/D3.png","arrowright","","[""materials/imgs/D106.png"",""materials/imgs/D16.png""]","false","random","","",""
"","","","","","html-keyboard-response","269","265398","0.0-17.0-1.1-0.1","jbu4vnrhhs","","jbu4vnrhhs","""2024-11-12T18:20:25.627Z""","null","+","null","","","","","","",""
"","","","","","image-keyboard-response","270","266047","0.0-17.0-1.1-1.1","jbu4vnrhhs","","jbu4vnrhhs","""2024-11-12T18:20:25.627Z""","647","materials/imgs/D106.png","arrowleft","","[""materials/imgs/D106.png"",""materials/imgs/D101.png""]","","check","materials/imgs/D106.png","0","true"
"","","","","","html-keyboard-response","271","266549","0.0-17.0-2.1-0.2","jbu4vnrhhs","","jbu4vnrhhs","""2024-11-12T18:20:25.627Z""","null","+","null","","","","","","",""
"","","","","","image-keyboard-response","272","267290","0.0-17.0-2.1-1.2","jbu4vnrhhs","","jbu4vnrhhs","""2024-11-12T18:20:25.627Z""","740","materials/imgs/D84.png","arrowleft","","[""materials/imgs/D106.png"",""materials/imgs/D37.png""]","false","validation","","",""
"","","","","","html-keyboard-response","273","267792","0.0-17.0-2.1-0.3","jbu4vnrhhs","","jbu4vnrhhs","""2024-11-12T18:20:25.627Z""","null","+","null","","","","","","",""
"","","","","","image-keyboard-response","274","268299","0.0-17.0-2.1-1.3","jbu4vnrhhs","","jbu4vnrhhs","""2024-11-12T18:20:25.627Z""","506","materials/imgs/D85.png","arrowleft","","[""materials/imgs/D6.png"",""materials/imgs/D111.png""]","false","validation","","",""
"","","","","","html-keyboard-response","275","268800","0.0-17.0-0.2-0.14","jbu4vnrhhs","","jbu4vnrhhs","""2024-11-12T18:20:25.627Z""","null","+","null","","","","","","",""
"","","","","","image-keyboard-response","276","269691","0.0-17.0-0.2-1.14","jbu4vnrhhs","","jbu4vnrhhs","""2024-11-12T18:20:25.627Z""","890","materials/imgs/D57.png","arrowright","","[""materials/imgs/D1.png"",""materials/imgs/D36.png""]","false","random","","",""
"","","","","","html-keyboard-response","277","270193","0.0-17.0-0.2-0.15","jbu4vnrhhs","","jbu4vnrhhs","""2024-11-12T18:20:25.627Z""","null","+","null","","","","","","",""
"","","","","","image-keyboard-response","278","271127","0.0-17.0-0.2-1.15","jbu4vnrhhs","","jbu4vnrhhs","""2024-11-12T18:20:25.627Z""","932","materials/imgs/D26.png","arrowright","","[""materials/imgs/D80.png"",""materials/imgs/D96.png""]","false","random","","",""
"","","","","","html-keyboard-response","279","271629","0.0-17.0-0.2-0.16","jbu4vnrhhs","","jbu4vnrhhs","""2024-11-12T18:20:25.627Z""","null","+","null","","","","","","",""
"","","","","","image-keyboard-response","280","272138","0.0-17.0-0.2-1.16","jbu4vnrhhs","","jbu4vnrhhs","""2024-11-12T18:20:25.627Z""","508","materials/imgs/D26.png","arrowright","","[""materials/imgs/D21.png"",""materials/imgs/D65.png""]","false","random","","",""
"","","","","","html-keyboard-response","281","272639","0.0-17.0-0.2-0.17","jbu4vnrhhs","","jbu4vnrhhs","""2024-11-12T18:20:25.627Z""","null","+","null","","","","","","",""
"","","","","","image-keyboard-response","282","273800","0.0-17.0-0.2-1.17","jbu4vnrhhs","","jbu4vnrhhs","""2024-11-12T18:20:25.627Z""","1159","materials/imgs/D105.png","arrowleft","","[""materials/imgs/D11.png"",""materials/imgs/D29.png""]","false","random","","",""
"","","","","","html-keyboard-response","283","274302","0.0-17.0-0.2-0.18","jbu4vnrhhs","","jbu4vnrhhs","""2024-11-12T18:20:25.627Z""","null","+","null","","","","","","",""
"","","","","","image-keyboard-response","284","274867","0.0-17.0-0.2-1.18","jbu4vnrhhs","","jbu4vnrhhs","""2024-11-12T18:20:25.627Z""","564","materials/imgs/D4.png","arrowright","","[""materials/imgs/D46.png"",""materials/imgs/D11.png""]","false","random","","",""
"","","","","","html-keyboard-response","285","275369","0.0-17.0-0.2-0.19","jbu4vnrhhs","","jbu4vnrhhs","""2024-11-12T18:20:25.627Z""","null","+","null","","","","","","",""
"","","","","","image-keyboard-response","286","276275","0.0-17.0-0.2-1.19","jbu4vnrhhs","","jbu4vnrhhs","""2024-11-12T18:20:25.627Z""","905","materials/imgs/D8.png","arrowright","","[""materials/imgs/D46.png"",""materials/imgs/D66.png""]","false","random","","",""
"","","","","","html-keyboard-response","287","276776","0.0-17.0-0.2-0.20","jbu4vnrhhs","","jbu4vnrhhs","""2024-11-12T18:20:25.627Z""","null","+","null","","","","","","",""
"","","","","","image-keyboard-response","288","277504","0.0-17.0-0.2-1.20","jbu4vnrhhs","","jbu4vnrhhs","""2024-11-12T18:20:25.627Z""","727","materials/imgs/D53.png","arrowright","","[""materials/imgs/D51.png"",""materials/imgs/D16.png""]","false","random","","",""
"","","","","","html-keyboard-response","289","278004","0.0-17.0-1.2-0.2","jbu4vnrhhs","","jbu4vnrhhs","""2024-11-12T18:20:25.627Z""","null","+","null","","","","","","",""
"","","","","","image-keyboard-response","290","278688","0.0-17.0-1.2-1.2","jbu4vnrhhs","","jbu4vnrhhs","""2024-11-12T18:20:25.627Z""","683","materials/imgs/D76.png","arrowleft","","[""materials/imgs/D76.png"",""materials/imgs/D78.png""]","","check","materials/imgs/D76.png","0","true"
"","","","","","html-keyboard-response","291","279190","0.0-17.0-2.2-0.4","jbu4vnrhhs","","jbu4vnrhhs","""2024-11-12T18:20:25.627Z""","null","+","null","","","","","","",""
"","","","","","image-keyboard-response","292","280001","0.0-17.0-2.2-1.4","jbu4vnrhhs","","jbu4vnrhhs","""2024-11-12T18:20:25.627Z""","809","materials/imgs/D25.png","arrowleft","","[""materials/imgs/D103.png"",""materials/imgs/D64.png""]","false","validation","","",""
"","","","","","html-keyboard-response","293","280502","0.0-17.0-2.2-0.5","jbu4vnrhhs","","jbu4vnrhhs","""2024-11-12T18:20:25.627Z""","null","+","null","","","","","","",""
"","","","","","image-keyboard-response","294","281615","0.0-17.0-2.2-1.5","jbu4vnrhhs","","jbu4vnrhhs","""2024-11-12T18:20:25.627Z""","1112","materials/imgs/D79.png","arrowleft","","[""materials/imgs/D51.png"",""materials/imgs/D64.png""]","false","validation","","",""
"","","","","","html-keyboard-response","295","282117","0.0-17.0-0.3-0.21","jbu4vnrhhs","","jbu4vnrhhs","""2024-11-12T18:20:25.627Z""","null","+","null","","","","","","",""
"","","","","","image-keyboard-response","296","283209","0.0-17.0-0.3-1.21","jbu4vnrhhs","","jbu4vnrhhs","""2024-11-12T18:20:25.627Z""","1092","materials/imgs/D8.png","arrowleft","","[""materials/imgs/D3.png"",""materials/imgs/D76.png""]","false","random","","",""
"","","","","","html-keyboard-response","297","283711","0.0-17.0-0.3-0.22","jbu4vnrhhs","","jbu4vnrhhs","""2024-11-12T18:20:25.627Z""","null","+","null","","","","","","",""
"","","","","","image-keyboard-response","298","284738","0.0-17.0-0.3-1.22","jbu4vnrhhs","","jbu4vnrhhs","""2024-11-12T18:20:25.627Z""","1025","materials/imgs/D85.png","arrowleft","","[""materials/imgs/D55.png"",""materials/imgs/D24.png""]","false","random","","",""
"","","","","","html-keyboard-response","299","285240","0.0-17.0-0.3-0.23","jbu4vnrhhs","","jbu4vnrhhs","""2024-11-12T18:20:25.627Z""","null","+","null","","","","","","",""
"","","","","","image-keyboard-response","300","286377","0.0-17.0-0.3-1.23","jbu4vnrhhs","","jbu4vnrhhs","""2024-11-12T18:20:25.627Z""","1136","materials/imgs/D76.png","arrowright","","[""materials/imgs/D66.png"",""materials/imgs/D104.png""]","false","random","","",""
"","","","","","html-keyboard-response","301","286879","0.0-17.0-0.3-0.24","jbu4vnrhhs","","jbu4vnrhhs","""2024-11-12T18:20:25.627Z""","null","+","null","","","","","","",""
"","","","","","image-keyboard-response","302","287845","0.0-17.0-0.3-1.24","jbu4vnrhhs","","jbu4vnrhhs","""2024-11-12T18:20:25.627Z""","964","materials/imgs/D21.png","arrowright","","[""materials/imgs/D81.png"",""materials/imgs/D47.png""]","false","random","","",""
"","","","","","html-keyboard-response","303","288347","0.0-17.0-0.3-0.25","jbu4vnrhhs","","jbu4vnrhhs","""2024-11-12T18:20:25.627Z""","null","+","null","","","","","","",""
"","","","","","image-keyboard-response","304","289500","0.0-17.0-0.3-1.25","jbu4vnrhhs","","jbu4vnrhhs","""2024-11-12T18:20:25.627Z""","1152","materials/imgs/D24.png","arrowright","","[""materials/imgs/D95.png"",""materials/imgs/D56.png""]","false","random","","",""
"","","","","","html-keyboard-response","305","290002","0.0-17.0-0.3-0.26","jbu4vnrhhs","","jbu4vnrhhs","""2024-11-12T18:20:25.627Z""","null","+","null","","","","","","",""
"","","","","","image-keyboard-response","306","291110","0.0-17.0-0.3-1.26","jbu4vnrhhs","","jbu4vnrhhs","""2024-11-12T18:20:25.627Z""","1106","materials/imgs/D37.png","arrowright","","[""materials/imgs/D32.png"",""materials/imgs/D106.png""]","false","random","","",""
"","","","","","html-keyboard-response","307","291612","0.0-17.0-0.3-0.27","jbu4vnrhhs","","jbu4vnrhhs","""2024-11-12T18:20:25.627Z""","null","+","null","","","","","","",""
"","","","","","image-keyboard-response","308","292471","0.0-17.0-0.3-1.27","jbu4vnrhhs","","jbu4vnrhhs","""2024-11-12T18:20:25.627Z""","858","materials/imgs/D17.png","arrowright","","[""materials/imgs/D101.png"",""materials/imgs/D48.png""]","false","random","","",""
"","","","","","html-keyboard-response","309","292973","0.0-17.0-1.3-0.3","jbu4vnrhhs","","jbu4vnrhhs","""2024-11-12T18:20:25.627Z""","null","+","null","","","","","","",""
"","","","","","image-keyboard-response","310","293735","0.0-17.0-1.3-1.3","jbu4vnrhhs","","jbu4vnrhhs","""2024-11-12T18:20:25.627Z""","761","materials/imgs/D18.png","arrowright","","[""materials/imgs/D8.png"",""materials/imgs/D18.png""]","","check","materials/imgs/D18.png","1","true"
"","","","","","html-keyboard-response","311","294237","0.0-17.0-2.3-0.6","jbu4vnrhhs","","jbu4vnrhhs","""2024-11-12T18:20:25.627Z""","null","+","null","","","","","","",""
"","","","","","image-keyboard-response","312","295090","0.0-17.0-2.3-1.6","jbu4vnrhhs","","jbu4vnrhhs","""2024-11-12T18:20:25.627Z""","852","materials/imgs/D75.png","arrowright","","[""materials/imgs/D96.png"",""materials/imgs/D4.png""]","false","validation","","",""
"","","","","","html-keyboard-response","313","295592","0.0-17.0-2.3-0.7","jbu4vnrhhs","","jbu4vnrhhs","""2024-11-12T18:20:25.627Z""","null","+","null","","","","","","",""
"","","","","","image-keyboard-response","314","296846","0.0-17.0-2.3-1.7","jbu4vnrhhs","","jbu4vnrhhs","""2024-11-12T18:20:25.627Z""","1253","materials/imgs/D36.png","arrowleft","","[""materials/imgs/D47.png"",""materials/imgs/D49.png""]","false","validation","","",""
"","","","","","html-keyboard-response","315","297348","0.0-17.0-0.4-0.28","jbu4vnrhhs","","jbu4vnrhhs","""2024-11-12T18:20:25.627Z""","null","+","null","","","","","","",""
"","","","","","image-keyboard-response","316","298035","0.0-17.0-0.4-1.28","jbu4vnrhhs","","jbu4vnrhhs","""2024-11-12T18:20:25.627Z""","686","materials/imgs/D14.png","arrowleft","","[""materials/imgs/D104.png"",""materials/imgs/D26.png""]","false","random","","",""
"","","","","","html-keyboard-response","317","298537","0.0-17.0-0.4-0.29","jbu4vnrhhs","","jbu4vnrhhs","""2024-11-12T18:20:25.627Z""","null","+","null","","","","","","",""
"","","","","","image-keyboard-response","318","300317","0.0-17.0-0.4-1.29","jbu4vnrhhs","","jbu4vnrhhs","""2024-11-12T18:20:25.627Z""","1779","materials/imgs/D104.png","arrowright","","[""materials/imgs/D68.png"",""materials/imgs/D20.png""]","false","random","","",""
"","","","","","html-keyboard-response","319","300818","0.0-17.0-0.4-0.30","jbu4vnrhhs","","jbu4vnrhhs","""2024-11-12T18:20:25.627Z""","null","+","null","","","","","","",""
"","","","","","image-keyboard-response","320","301353","0.0-17.0-0.4-1.30","jbu4vnrhhs","","jbu4vnrhhs","""2024-11-12T18:20:25.627Z""","533","materials/imgs/D53.png","arrowleft","","[""materials/imgs/D55.png"",""materials/imgs/D4.png""]","false","random","","",""
"","","","","","html-keyboard-response","321","301855","0.0-17.0-0.4-0.31","jbu4vnrhhs","","jbu4vnrhhs","""2024-11-12T18:20:25.627Z""","null","+","null","","","","","","",""
"","","","","","image-keyboard-response","322","302936","0.0-17.0-0.4-1.31","jbu4vnrhhs","","jbu4vnrhhs","""2024-11-12T18:20:25.627Z""","1080","materials/imgs/D78.png","arrowright","","[""materials/imgs/D29.png"",""materials/imgs/D65.png""]","false","random","","",""
"","","","","","html-keyboard-response","323","303437","0.0-17.0-0.4-0.32","jbu4vnrhhs","","jbu4vnrhhs","""2024-11-12T18:20:25.627Z""","null","+","null","","","","","","",""
"","","","","","image-keyboard-response","324","303988","0.0-17.0-0.4-1.32","jbu4vnrhhs","","jbu4vnrhhs","""2024-11-12T18:20:25.627Z""","551","materials/imgs/D95.png","arrowleft","","[""materials/imgs/D94.png"",""materials/imgs/D34.png""]","false","random","","",""
"","","","","","html-keyboard-response","325","304490","0.0-17.0-0.4-0.33","jbu4vnrhhs","","jbu4vnrhhs","""2024-11-12T18:20:25.627Z""","null","+","null","","","","","","",""
"","","","","","image-keyboard-response","326","305860","0.0-17.0-0.4-1.33","jbu4vnrhhs","","jbu4vnrhhs","""2024-11-12T18:20:25.627Z""","1369","materials/imgs/D96.png","arrowleft","","[""materials/imgs/D79.png"",""materials/imgs/D103.png""]","false","random","","",""
"","","","","","html-keyboard-response","327","306361","0.0-17.0-0.4-0.34","jbu4vnrhhs","","jbu4vnrhhs","""2024-11-12T18:20:25.627Z""","null","+","null","","","","","","",""
"","","","","","image-keyboard-response","328","307174","0.0-17.0-0.4-1.34","jbu4vnrhhs","","jbu4vnrhhs","""2024-11-12T18:20:25.627Z""","812","materials/imgs/D29.png","arrowright","","[""materials/imgs/D85.png"",""materials/imgs/D18.png""]","false","random","","",""
"","","","","","html-keyboard-response","329","307676","0.0-17.0-1.4-0.4","jbu4vnrhhs","","jbu4vnrhhs","""2024-11-12T18:20:25.627Z""","null","+","null","","","","","","",""
"","","","","","image-keyboard-response","330","308175","0.0-17.0-1.4-1.4","jbu4vnrhhs","","jbu4vnrhhs","""2024-11-12T18:20:25.627Z""","498","materials/imgs/D26.png","arrowleft","","[""materials/imgs/D26.png"",""materials/imgs/D46.png""]","","check","materials/imgs/D26.png","0","true"
"","","","","","html-keyboard-response","331","308676","0.0-17.0-2.4-0.8","jbu4vnrhhs","","jbu4vnrhhs","""2024-11-12T18:20:25.627Z""","null","+","null","","","","","","",""
"","","","","","image-keyboard-response","332","309270","0.0-17.0-2.4-1.8","jbu4vnrhhs","","jbu4vnrhhs","""2024-11-12T18:20:25.627Z""","593","materials/imgs/D85.png","arrowleft","","[""materials/imgs/D6.png"",""materials/imgs/D111.png""]","false","validation","","",""
"","","","","","html-keyboard-response","333","309771","0.0-17.0-2.4-0.9","jbu4vnrhhs","","jbu4vnrhhs","""2024-11-12T18:20:25.627Z""","null","+","null","","","","","","",""
"","","","","","image-keyboard-response","334","310454","0.0-17.0-2.4-1.9","jbu4vnrhhs","","jbu4vnrhhs","""2024-11-12T18:20:25.627Z""","682","materials/imgs/D22.png","arrowleft","","[""materials/imgs/D4.png"",""materials/imgs/D25.png""]","false","validation","","",""
"","","","","","html-button-response","335","313659","0.0-18.0","jbu4vnrhhs","","jbu4vnrhhs","""2024-11-12T18:20:25.627Z""","3203","You have completed 75% of the trials. Please click 'Continue' when you are ready proceed.","0","","","","","","",""
"","","","","","html-keyboard-response","336","314160","0.0-19.0-0.0-0.0","jbu4vnrhhs","","jbu4vnrhhs","""2024-11-12T18:20:25.627Z""","null","+","null","","","","","","",""
"","","","","","image-keyboard-response","337","314714","0.0-19.0-0.0-1.0","jbu4vnrhhs","","jbu4vnrhhs","""2024-11-12T18:20:25.627Z""","554","materials/imgs/D101.png","arrowleft","","[""materials/imgs/D22.png"",""materials/imgs/D4.png""]","false","random","","",""
"","","","","","html-keyboard-response","338","315216","0.0-19.0-0.0-0.1","jbu4vnrhhs","","jbu4vnrhhs","""2024-11-12T18:20:25.627Z""","null","+","null","","","","","","",""
"","","","","","image-keyboard-response","339","315650","0.0-19.0-0.0-1.1","jbu4vnrhhs","","jbu4vnrhhs","""2024-11-12T18:20:25.627Z""","432","materials/imgs/D103.png","arrowleft","","[""materials/imgs/D101.png"",""materials/imgs/D81.png""]","true","random","","",""
"","","","","","html-keyboard-response","340","318236","0.0-19.0-0.0-2.1-0.1","jbu4vnrhhs","","jbu4vnrhhs","""2024-11-12T18:20:25.627Z""","2585","<p><strong>You're going too fast.</strong><p>Please slow down and assess each triplet.<p>Press 'y' to continue.</p></p>","y","","","","","","",""
"","","","","","html-keyboard-response","341","318737","0.0-19.0-0.0-0.2","jbu4vnrhhs","","jbu4vnrhhs","""2024-11-12T18:20:25.627Z""","null","+","null","","","","","","",""
"","","","","","image-keyboard-response","342","319565","0.0-19.0-0.0-1.2","jbu4vnrhhs","","jbu4vnrhhs","""2024-11-12T18:20:25.627Z""","827","materials/imgs/D85.png","arrowleft","","[""materials/imgs/D77.png"",""materials/imgs/D52.png""]","false","random","","",""
"","","","","","html-keyboard-response","343","320067","0.0-19.0-0.0-0.3","jbu4vnrhhs","","jbu4vnrhhs","""2024-11-12T18:20:25.627Z""","null","+","null","","","","","","",""
"","","","","","image-keyboard-response","344","320791","0.0-19.0-0.0-1.3","jbu4vnrhhs","","jbu4vnrhhs","""2024-11-12T18:20:25.627Z""","722","materials/imgs/D56.png","arrowleft","","[""materials/imgs/D35.png"",""materials/imgs/D51.png""]","false","random","","",""
"","","","","","html-keyboard-response","345","321293","0.0-19.0-0.0-0.4","jbu4vnrhhs","","jbu4vnrhhs","""2024-11-12T18:20:25.627Z""","null","+","null","","","","","","",""
"","","","","","image-keyboard-response","346","322215","0.0-19.0-0.0-1.4","jbu4vnrhhs","","jbu4vnrhhs","""2024-11-12T18:20:25.627Z""","920","materials/imgs/D82.png","arrowleft","","[""materials/imgs/D11.png"",""materials/imgs/D26.png""]","false","random","","",""
"","","","","","html-keyboard-response","347","322717","0.0-19.0-0.0-0.5","jbu4vnrhhs","","jbu4vnrhhs","""2024-11-12T18:20:25.627Z""","null","+","null","","","","","","",""
"","","","","","image-keyboard-response","348","323447","0.0-19.0-0.0-1.5","jbu4vnrhhs","","jbu4vnrhhs","""2024-11-12T18:20:25.627Z""","730","materials/imgs/D6.png","arrowleft","","[""materials/imgs/D19.png"",""materials/imgs/D46.png""]","false","random","","",""
"","","","","","html-keyboard-response","349","323948","0.0-19.0-0.0-0.6","jbu4vnrhhs","","jbu4vnrhhs","""2024-11-12T18:20:25.627Z""","null","+","null","","","","","","",""
"","","","","","image-keyboard-response","350","324645","0.0-19.0-0.0-1.6","jbu4vnrhhs","","jbu4vnrhhs","""2024-11-12T18:20:25.627Z""","695","materials/imgs/D9.png","arrowleft","","[""materials/imgs/D68.png"",""materials/imgs/D65.png""]","false","random","","",""
"","","","","","html-keyboard-response","351","325147","0.0-19.0-1.0-0.0","jbu4vnrhhs","","jbu4vnrhhs","""2024-11-12T18:20:25.627Z""","null","+","null","","","","","","",""
"","","","","","image-keyboard-response","352","325738","0.0-19.0-1.0-1.0","jbu4vnrhhs","","jbu4vnrhhs","""2024-11-12T18:20:25.627Z""","590","materials/imgs/D46.png","arrowleft","","[""materials/imgs/D46.png"",""materials/imgs/D26.png""]","","check","materials/imgs/D46.png","0","true"
"","","","","","html-keyboard-response","353","326240","0.0-19.0-2.0-0.0","jbu4vnrhhs","","jbu4vnrhhs","""2024-11-12T18:20:25.627Z""","null","+","null","","","","","","",""
"","","","","","image-keyboard-response","354","327767","0.0-19.0-2.0-1.0","jbu4vnrhhs","","jbu4vnrhhs","""2024-11-12T18:20:25.627Z""","1526","materials/imgs/D96.png","arrowleft","","[""materials/imgs/D46.png"",""materials/imgs/D18.png""]","false","validation","","",""
"","","","","","html-keyboard-response","355","328268","0.0-19.0-2.0-0.1","jbu4vnrhhs","","jbu4vnrhhs","""2024-11-12T18:20:25.627Z""","null","+","null","","","","","","",""
"","","","","","image-keyboard-response","356","329112","0.0-19.0-2.0-1.1","jbu4vnrhhs","","jbu4vnrhhs","""2024-11-12T18:20:25.627Z""","840","materials/imgs/D57.png","arrowright","","[""materials/imgs/D111.png"",""materials/imgs/D4.png""]","false","validation","","",""
"","","","","","html-keyboard-response","357","329614","0.0-19.0-0.1-0.7","jbu4vnrhhs","","jbu4vnrhhs","""2024-11-12T18:20:25.627Z""","null","+","null","","","","","","",""
"","","","","","image-keyboard-response","358","330389","0.0-19.0-0.1-1.7","jbu4vnrhhs","","jbu4vnrhhs","""2024-11-12T18:20:25.627Z""","773","materials/imgs/D76.png","arrowright","","[""materials/imgs/D1.png"",""materials/imgs/D105.png""]","false","random","","",""
"","","","","","html-keyboard-response","359","330891","0.0-19.0-0.1-0.8","jbu4vnrhhs","","jbu4vnrhhs","""2024-11-12T18:20:25.627Z""","null","+","null","","","","","","",""
"","","","","","image-keyboard-response","360","331523","0.0-19.0-0.1-1.8","jbu4vnrhhs","","jbu4vnrhhs","""2024-11-12T18:20:25.627Z""","630","materials/imgs/D94.png","arrowright","","[""materials/imgs/D78.png"",""materials/imgs/D26.png""]","false","random","","",""
"","","","","","html-keyboard-response","361","332025","0.0-19.0-0.1-0.9","jbu4vnrhhs","","jbu4vnrhhs","""2024-11-12T18:20:25.627Z""","null","+","null","","","","","","",""
"","","","","","image-keyboard-response","362","333347","0.0-19.0-0.1-1.9","jbu4vnrhhs","","jbu4vnrhhs","""2024-11-12T18:20:25.627Z""","1320","materials/imgs/D51.png","arrowright","","[""materials/imgs/D81.png"",""materials/imgs/D79.png""]","false","random","","",""
"","","","","","html-keyboard-response","363","333849","0.0-19.0-0.1-0.10","jbu4vnrhhs","","jbu4vnrhhs","""2024-11-12T18:20:25.627Z""","null","+","null","","","","","","",""
"","","","","","image-keyboard-response","364","335182","0.0-19.0-0.1-1.10","jbu4vnrhhs","","jbu4vnrhhs","""2024-11-12T18:20:25.627Z""","1332","materials/imgs/D74.png","arrowleft","","[""materials/imgs/D81.png"",""materials/imgs/D106.png""]","false","random","","",""
"","","","","","html-keyboard-response","365","335684","0.0-19.0-0.1-0.11","jbu4vnrhhs","","jbu4vnrhhs","""2024-11-12T18:20:25.627Z""","null","+","null","","","","","","",""
"","","","","","image-keyboard-response","366","336340","0.0-19.0-0.1-1.11","jbu4vnrhhs","","jbu4vnrhhs","""2024-11-12T18:20:25.627Z""","655","materials/imgs/D104.png","arrowright","","[""materials/imgs/D75.png"",""materials/imgs/D14.png""]","false","random","","",""
"","","","","","html-keyboard-response","367","336842","0.0-19.0-0.1-0.12","jbu4vnrhhs","","jbu4vnrhhs","""2024-11-12T18:20:25.627Z""","null","+","null","","","","","","",""
"","","","","","image-keyboard-response","368","338143","0.0-19.0-0.1-1.12","jbu4vnrhhs","","jbu4vnrhhs","""2024-11-12T18:20:25.627Z""","1301","materials/imgs/D104.png","arrowleft","","[""materials/imgs/D56.png"",""materials/imgs/D96.png""]","false","random","","",""
"","","","","","html-keyboard-response","369","338644","0.0-19.0-0.1-0.13","jbu4vnrhhs","","jbu4vnrhhs","""2024-11-12T18:20:25.627Z""","null","+","null","","","","","","",""
"","","","","","image-keyboard-response","370","339470","0.0-19.0-0.1-1.13","jbu4vnrhhs","","jbu4vnrhhs","""2024-11-12T18:20:25.627Z""","825","materials/imgs/D53.png","arrowleft","","[""materials/imgs/D9.png"",""materials/imgs/D111.png""]","false","random","","",""
"","","","","","html-keyboard-response","371","339972","0.0-19.0-1.1-0.1","jbu4vnrhhs","","jbu4vnrhhs","""2024-11-12T18:20:25.627Z""","null","+","null","","","","","","",""
"","","","","","image-keyboard-response","372","340520","0.0-19.0-1.1-1.1","jbu4vnrhhs","","jbu4vnrhhs","""2024-11-12T18:20:25.627Z""","547","materials/imgs/D18.png","arrowright","","[""materials/imgs/D8.png"",""materials/imgs/D18.png""]","","check","materials/imgs/D18.png","1","true"
"","","","","","html-keyboard-response","373","341022","0.0-19.0-2.1-0.2","jbu4vnrhhs","","jbu4vnrhhs","""2024-11-12T18:20:25.627Z""","null","+","null","","","","","","",""
"","","","","","image-keyboard-response","374","342677","0.0-19.0-2.1-1.2","jbu4vnrhhs","","jbu4vnrhhs","""2024-11-12T18:20:25.627Z""","1653","materials/imgs/D24.png","arrowleft","","[""materials/imgs/D36.png"",""materials/imgs/D8.png""]","false","validation","","",""
"","","","","","html-keyboard-response","375","343179","0.0-19.0-2.1-0.3","jbu4vnrhhs","","jbu4vnrhhs","""2024-11-12T18:20:25.627Z""","null","+","null","","","","","","",""
"","","","","","image-keyboard-response","376","343773","0.0-19.0-2.1-1.3","jbu4vnrhhs","","jbu4vnrhhs","""2024-11-12T18:20:25.627Z""","593","materials/imgs/D18.png","arrowleft","","[""materials/imgs/D32.png"",""materials/imgs/D57.png""]","false","validation","","",""
"","","","","","html-keyboard-response","377","344275","0.0-19.0-0.2-0.14","jbu4vnrhhs","","jbu4vnrhhs","""2024-11-12T18:20:25.627Z""","null","+","null","","","","","","",""
"","","","","","image-keyboard-response","378","345331","0.0-19.0-0.2-1.14","jbu4vnrhhs","","jbu4vnrhhs","""2024-11-12T18:20:25.627Z""","1054","materials/imgs/D18.png","arrowleft","","[""materials/imgs/D85.png"",""materials/imgs/D64.png""]","false","random","","",""
"","","","","","html-keyboard-response","379","345833","0.0-19.0-0.2-0.15","jbu4vnrhhs","","jbu4vnrhhs","""2024-11-12T18:20:25.627Z""","null","+","null","","","","","","",""
"","","","","","image-keyboard-response","380","346914","0.0-19.0-0.2-1.15","jbu4vnrhhs","","jbu4vnrhhs","""2024-11-12T18:20:25.627Z""","1079","materials/imgs/D37.png","arrowright","","[""materials/imgs/D103.png"",""materials/imgs/D105.png""]","false","random","","",""
"","","","","","html-keyboard-response","381","347416","0.0-19.0-0.2-0.16","jbu4vnrhhs","","jbu4vnrhhs","""2024-11-12T18:20:25.627Z""","null","+","null","","","","","","",""
"","","","","","image-keyboard-response","382","348555","0.0-19.0-0.2-1.16","jbu4vnrhhs","","jbu4vnrhhs","""2024-11-12T18:20:25.627Z""","1138","materials/imgs/D96.png","arrowright","","[""materials/imgs/D3.png"",""materials/imgs/D29.png""]","false","random","","",""
"","","","","","html-keyboard-response","383","349056","0.0-19.0-0.2-0.17","jbu4vnrhhs","","jbu4vnrhhs","""2024-11-12T18:20:25.627Z""","null","+","null","","","","","","",""
"","","","","","image-keyboard-response","384","349859","0.0-19.0-0.2-1.17","jbu4vnrhhs","","jbu4vnrhhs","""2024-11-12T18:20:25.627Z""","800","materials/imgs/D111.png","arrowleft","","[""materials/imgs/D36.png"",""materials/imgs/D26.png""]","false","random","","",""
"","","","","","html-keyboard-response","385","350360","0.0-19.0-0.2-0.18","jbu4vnrhhs","","jbu4vnrhhs","""2024-11-12T18:20:25.627Z""","null","+","null","","","","","","",""
"","","","","","image-keyboard-response","386","351029","0.0-19.0-0.2-1.18","jbu4vnrhhs","","jbu4vnrhhs","""2024-11-12T18:20:25.627Z""","668","materials/imgs/D68.png","arrowright","","[""materials/imgs/D57.png"",""materials/imgs/D82.png""]","false","random","","",""
"","","","","","html-keyboard-response","387","351531","0.0-19.0-0.2-0.19","jbu4vnrhhs","","jbu4vnrhhs","""2024-11-12T18:20:25.627Z""","null","+","null","","","","","","",""
"","","","","","image-keyboard-response","388","352255","0.0-19.0-0.2-1.19","jbu4vnrhhs","","jbu4vnrhhs","""2024-11-12T18:20:25.627Z""","722","materials/imgs/D77.png","arrowleft","","[""materials/imgs/D16.png"",""materials/imgs/D85.png""]","false","random","","",""
"","","","","","html-keyboard-response","389","352757","0.0-19.0-0.2-0.20","jbu4vnrhhs","","jbu4vnrhhs","""2024-11-12T18:20:25.627Z""","null","+","null","","","","","","",""
"","","","","","image-keyboard-response","390","353489","0.0-19.0-0.2-1.20","jbu4vnrhhs","","jbu4vnrhhs","""2024-11-12T18:20:25.627Z""","731","materials/imgs/D17.png","arrowleft","","[""materials/imgs/D11.png"",""materials/imgs/D75.png""]","false","random","","",""
"","","","","","html-keyboard-response","391","353991","0.0-19.0-1.2-0.2","jbu4vnrhhs","","jbu4vnrhhs","""2024-11-12T18:20:25.627Z""","null","+","null","","","","","","",""
"","","","","","image-keyboard-response","392","354614","0.0-19.0-1.2-1.2","jbu4vnrhhs","","jbu4vnrhhs","""2024-11-12T18:20:25.627Z""","622","materials/imgs/D106.png","arrowleft","","[""materials/imgs/D106.png"",""materials/imgs/D101.png""]","","check","materials/imgs/D106.png","0","true"
"","","","","","html-keyboard-response","393","355116","0.0-19.0-2.2-0.4","jbu4vnrhhs","","jbu4vnrhhs","""2024-11-12T18:20:25.627Z""","null","+","null","","","","","","",""
"","","","","","image-keyboard-response","394","355770","0.0-19.0-2.2-1.4","jbu4vnrhhs","","jbu4vnrhhs","""2024-11-12T18:20:25.627Z""","653","materials/imgs/D75.png","arrowleft","","[""materials/imgs/D96.png"",""materials/imgs/D4.png""]","false","validation","","",""
"","","","","","html-keyboard-response","395","356272","0.0-19.0-2.2-0.5","jbu4vnrhhs","","jbu4vnrhhs","""2024-11-12T18:20:25.627Z""","null","+","null","","","","","","",""
"","","","","","image-keyboard-response","396","357272","0.0-19.0-2.2-1.5","jbu4vnrhhs","","jbu4vnrhhs","""2024-11-12T18:20:25.627Z""","999","materials/imgs/D77.png","arrowright","","[""materials/imgs/D102.png"",""materials/imgs/D65.png""]","false","validation","","",""
"","","","","","html-keyboard-response","397","357774","0.0-19.0-0.3-0.21","jbu4vnrhhs","","jbu4vnrhhs","""2024-11-12T18:20:25.627Z""","null","+","null","","","","","","",""
"","","","","","image-keyboard-response","398","358802","0.0-19.0-0.3-1.21","jbu4vnrhhs","","jbu4vnrhhs","""2024-11-12T18:20:25.627Z""","1027","materials/imgs/D105.png","arrowleft","","[""materials/imgs/D81.png"",""materials/imgs/D49.png""]","false","random","","",""
"","","","","","html-keyboard-response","399","359304","0.0-19.0-0.3-0.22","jbu4vnrhhs","","jbu4vnrhhs","""2024-11-12T18:20:25.627Z""","null","+","null","","","","","","",""
"","","","","","image-keyboard-response","400","360082","0.0-19.0-0.3-1.22","jbu4vnrhhs","","jbu4vnrhhs","""2024-11-12T18:20:25.627Z""","777","materials/imgs/D103.png","arrowleft","","[""materials/imgs/D17.png"",""materials/imgs/D95.png""]","false","random","","",""
"","","","","","html-keyboard-response","401","360583","0.0-19.0-0.3-0.23","jbu4vnrhhs","","jbu4vnrhhs","""2024-11-12T18:20:25.627Z""","null","+","null","","","","","","",""
"","","","","","image-keyboard-response","402","361947","0.0-19.0-0.3-1.23","jbu4vnrhhs","","jbu4vnrhhs","""2024-11-12T18:20:25.627Z""","1363","materials/imgs/D46.png","arrowleft","","[""materials/imgs/D26.png"",""materials/imgs/D49.png""]","false","random","","",""
"","","","","","html-keyboard-response","403","362448","0.0-19.0-0.3-0.24","jbu4vnrhhs","","jbu4vnrhhs","""2024-11-12T18:20:25.627Z""","null","+","null","","","","","","",""
"","","","","","image-keyboard-response","404","363198","0.0-19.0-0.3-1.24","jbu4vnrhhs","","jbu4vnrhhs","""2024-11-12T18:20:25.627Z""","748","materials/imgs/D87.png","arrowleft","","[""materials/imgs/D81.png"",""materials/imgs/D103.png""]","false","random","","",""
"","","","","","html-keyboard-response","405","363699","0.0-19.0-0.3-0.25","jbu4vnrhhs","","jbu4vnrhhs","""2024-11-12T18:20:25.627Z""","null","+","null","","","","","","",""
"","","","","","image-keyboard-response","406","365594","0.0-19.0-0.3-1.25","jbu4vnrhhs","","jbu4vnrhhs","""2024-11-12T18:20:25.627Z""","1893","materials/imgs/D26.png","arrowright","","[""materials/imgs/D22.png"",""materials/imgs/D101.png""]","false","random","","",""
"","","","","","html-keyboard-response","407","366096","0.0-19.0-0.3-0.26","jbu4vnrhhs","","jbu4vnrhhs","""2024-11-12T18:20:25.627Z""","null","+","null","","","","","","",""
"","","","","","image-keyboard-response","408","367541","0.0-19.0-0.3-1.26","jbu4vnrhhs","","jbu4vnrhhs","""2024-11-12T18:20:25.627Z""","1444","materials/imgs/D79.png","arrowright","","[""materials/imgs/D104.png"",""materials/imgs/D84.png""]","false","random","","",""
"","","","","","html-keyboard-response","409","368042","0.0-19.0-0.3-0.27","jbu4vnrhhs","","jbu4vnrhhs","""2024-11-12T18:20:25.627Z""","null","+","null","","","","","","",""
"","","","","","image-keyboard-response","410","370099","0.0-19.0-0.3-1.27","jbu4vnrhhs","","jbu4vnrhhs","""2024-11-12T18:20:25.627Z""","2055","materials/imgs/D80.png","arrowleft","","[""materials/imgs/D51.png"",""materials/imgs/D102.png""]","false","random","","",""
"","","","","","html-keyboard-response","411","370600","0.0-19.0-1.3-0.3","jbu4vnrhhs","","jbu4vnrhhs","""2024-11-12T18:20:25.627Z""","null","+","null","","","","","","",""
"","","","","","image-keyboard-response","412","371285","0.0-19.0-1.3-1.3","jbu4vnrhhs","","jbu4vnrhhs","""2024-11-12T18:20:25.627Z""","684","materials/imgs/D76.png","arrowleft","","[""materials/imgs/D76.png"",""materials/imgs/D78.png""]","","check","materials/imgs/D76.png","0","true"
"","","","","","html-keyboard-response","413","371787","0.0-19.0-2.3-0.6","jbu4vnrhhs","","jbu4vnrhhs","""2024-11-12T18:20:25.627Z""","null","+","null","","","","","","",""
"","","","","","image-keyboard-response","414","373578","0.0-19.0-2.3-1.6","jbu4vnrhhs","","jbu4vnrhhs","""2024-11-12T18:20:25.627Z""","1790","materials/imgs/D47.png","arrowright","","[""materials/imgs/D1.png"",""materials/imgs/D52.png""]","false","validation","","",""
"","","","","","html-keyboard-response","415","374080","0.0-19.0-2.3-0.7","jbu4vnrhhs","","jbu4vnrhhs","""2024-11-12T18:20:25.627Z""","null","+","null","","","","","","",""
"","","","","","image-keyboard-response","416","376100","0.0-19.0-2.3-1.7","jbu4vnrhhs","","jbu4vnrhhs","""2024-11-12T18:20:25.627Z""","2019","materials/imgs/D111.png","arrowleft","","[""materials/imgs/D82.png"",""materials/imgs/D95.png""]","false","validation","","",""
"","","","","","html-keyboard-response","417","376602","0.0-19.0-0.4-0.28","jbu4vnrhhs","","jbu4vnrhhs","""2024-11-12T18:20:25.627Z""","null","+","null","","","","","","",""
"","","","","","image-keyboard-response","418","378074","0.0-19.0-0.4-1.28","jbu4vnrhhs","","jbu4vnrhhs","""2024-11-12T18:20:25.627Z""","1471","materials/imgs/D29.png","arrowleft","","[""materials/imgs/D3.png"",""materials/imgs/D95.png""]","false","random","","",""
"","","","","","html-keyboard-response","419","378576","0.0-19.0-0.4-0.29","jbu4vnrhhs","","jbu4vnrhhs","""2024-11-12T18:20:25.627Z""","null","+","null","","","","","","",""
"","","","","","image-keyboard-response","420","379335","0.0-19.0-0.4-1.29","jbu4vnrhhs","","jbu4vnrhhs","""2024-11-12T18:20:25.627Z""","758","materials/imgs/D17.png","arrowright","","[""materials/imgs/D9.png"",""materials/imgs/D104.png""]","false","random","","",""
"","","","","","html-keyboard-response","421","379837","0.0-19.0-0.4-0.30","jbu4vnrhhs","","jbu4vnrhhs","""2024-11-12T18:20:25.627Z""","null","+","null","","","","","","",""
"","","","","","image-keyboard-response","422","380934","0.0-19.0-0.4-1.30","jbu4vnrhhs","","jbu4vnrhhs","""2024-11-12T18:20:25.627Z""","1096","materials/imgs/D25.png","arrowright","","[""materials/imgs/D29.png"",""materials/imgs/D64.png""]","false","random","","",""
"","","","","","html-keyboard-response","423","381436","0.0-19.0-0.4-0.31","jbu4vnrhhs","","jbu4vnrhhs","""2024-11-12T18:20:25.627Z""","null","+","null","","","","","","",""
"","","","","","image-keyboard-response","424","382972","0.0-19.0-0.4-1.31","jbu4vnrhhs","","jbu4vnrhhs","""2024-11-12T18:20:25.627Z""","1535","materials/imgs/D6.png","arrowright","","[""materials/imgs/D64.png"",""materials/imgs/D84.png""]","false","random","","",""
"","","","","","html-keyboard-response","425","383473","0.0-19.0-0.4-0.32","jbu4vnrhhs","","jbu4vnrhhs","""2024-11-12T18:20:25.627Z""","null","+","null","","","","","","",""
"","","","","","image-keyboard-response","426","385217","0.0-19.0-0.4-1.32","jbu4vnrhhs","","jbu4vnrhhs","""2024-11-12T18:20:25.627Z""","1743","materials/imgs/D56.png","arrowright","","[""materials/imgs/D87.png"",""materials/imgs/D53.png""]","false","random","","",""
"","","","","","html-keyboard-response","427","385719","0.0-19.0-0.4-0.33","jbu4vnrhhs","","jbu4vnrhhs","""2024-11-12T18:20:25.627Z""","null","+","null","","","","","","",""
"","","","","","image-keyboard-response","428","386620","0.0-19.0-0.4-1.33","jbu4vnrhhs","","jbu4vnrhhs","""2024-11-12T18:20:25.627Z""","900","materials/imgs/D87.png","arrowright","","[""materials/imgs/D68.png"",""materials/imgs/D35.png""]","false","random","","",""
"","","","","","html-keyboard-response","429","387122","0.0-19.0-0.4-0.34","jbu4vnrhhs","","jbu4vnrhhs","""2024-11-12T18:20:25.627Z""","null","+","null","","","","","","",""
"","","","","","image-keyboard-response","430","387881","0.0-19.0-0.4-1.34","jbu4vnrhhs","","jbu4vnrhhs","""2024-11-12T18:20:25.627Z""","758","materials/imgs/D92.png","arrowright","","[""materials/imgs/D102.png"",""materials/imgs/D84.png""]","false","random","","",""
"","","","","","html-keyboard-response","431","388382","0.0-19.0-1.4-0.4","jbu4vnrhhs","","jbu4vnrhhs","""2024-11-12T18:20:25.627Z""","null","+","null","","","","","","",""
"","","","","","image-keyboard-response","432","389129","0.0-19.0-1.4-1.4","jbu4vnrhhs","","jbu4vnrhhs","""2024-11-12T18:20:25.627Z""","746","materials/imgs/D101.png","arrowright","","[""materials/imgs/D106.png"",""materials/imgs/D101.png""]","","check","materials/imgs/D101.png","1","true"
"","","","","","html-keyboard-response","433","389630","0.0-19.0-2.4-0.8","jbu4vnrhhs","","jbu4vnrhhs","""2024-11-12T18:20:25.627Z""","null","+","null","","","","","","",""
"","","","","","image-keyboard-response","434","390450","0.0-19.0-2.4-1.8","jbu4vnrhhs","","jbu4vnrhhs","""2024-11-12T18:20:25.627Z""","819","materials/imgs/D35.png","arrowleft","","[""materials/imgs/D83.png"",""materials/imgs/D24.png""]","false","validation","","",""
"","","","","","html-keyboard-response","435","390951","0.0-19.0-2.4-0.9","jbu4vnrhhs","","jbu4vnrhhs","""2024-11-12T18:20:25.627Z""","null","+","null","","","","","","",""
"","","","","","image-keyboard-response","436","391974","0.0-19.0-2.4-1.9","jbu4vnrhhs","","jbu4vnrhhs","""2024-11-12T18:20:25.627Z""","1022","materials/imgs/D66.png","arrowleft","","[""materials/imgs/D85.png"",""materials/imgs/D25.png""]","false","validation","","",""
