"success","timeout","failed_images","failed_audio","failed_video","trial_type","trial_index","time_elapsed","internal_node_id","subject_id","sona_id","subjectID","dateInfo","rt","stimulus","response","question_order","choices","speedy","sampleAlg","selected_image","selected_index","correct"
"true","false","[]","[]","[]","preload","0","299","0.0-0.0","jgjwzln12u","","jgjwzln12u","""2024-11-13T00:17:55.986Z""","","","","","","","","","",""
"true","","","","","fullscreen","1","2789","0.0-1.0","jgjwzln12u","","jgjwzln12u","""2024-11-13T00:17:55.986Z""","","","","","","","","","",""
"","","","","","html-keyboard-response","2","2802","0.0-2.0","jgjwzln12u","","jgjwzln12u","""2024-11-13T00:17:55.986Z""","null","","null","","","","","","",""
"","","","","","html-button-response","3","14747","0.0-3.0","jgjwzln12u","","jgjwzln12u","""2024-11-13T00:17:55.986Z""","11943","<div style='text-align:center; font-size:20px; line-height:25px; width: 1200px;'>
                Welcome to our experiment! <br>
                <br>At the bottom of this screen, you will see a button that says 'Begin Experiment.
                <br>Please only click that button when you are ready to complete the 25 minute experiment in one sitting. <br>
                <br> Once you click that button, it will not be possible to restart the experiment. <br><br>","0","","","","","","",""
"true","","","","","fullscreen","4","19373","0.0-4.0","jgjwzln12u","","jgjwzln12u","""2024-11-13T00:17:55.986Z""","","","","","","","","","",""
"","","","","","survey-multi-select","5","49331","0.0-5.0","jgjwzln12u","","jgjwzln12u","""2024-11-13T00:17:55.986Z""","29954","","{""Consent"":[""<strong>I consent</strong>""]}","[0]","","","","","",""
"","","","","","html-button-response","6","52105","0.0-6.0","jgjwzln12u","","jgjwzln12u","""2024-11-13T00:17:55.986Z""","2772","Welcome! <p> This experiment involves two parts: demographic information, followed by the experimental task.<p> It will take about 25 minutes to complete both parts.","0","","","","","","",""
"","","","","","survey-text","7","57734","0.0-7.0","jgjwzln12u","","jgjwzln12u","""2024-11-13T00:17:55.986Z""","5625","","{""Age"":""18"",""Gender"":""female "",""Race/ethnicity"":""white""}","","","","","","",""
"","","","","","html-button-response","8","70228","0.0-8.0","jgjwzln12u","","jgjwzln12u","""2024-11-13T00:17:55.986Z""","12492","<div style='text-align: center;'>
      <p>In each trial of this task, you will see three texture images: one target item on top, and two choices beneath the target item.</p>
      <p><strong>Please select the item that is most like the target item.</strong></p>
      <p>To select the option on the <strong>LEFT</strong>, press the <strong>LEFT ARROW</strong> key. 
      To select the option on the <strong>RIGHT</strong>, press the <strong>RIGHT ARROW</strong> key.</p>
                  <!-- Target Image at the Top -->
      <div style='margin: 20px;'>
        <img src='materials/imgs/instruction_images/InstructionImg1D78.png' alt='Target Image' style='width:200px; height:auto;' />
        <p><em>Target Image</em></p>
      </div>

      <!-- Two Choice Images Below -->
      <div style='display: flex; justify-content: center;'>
        <div style='margin-right: 50px;'>
          <img src='materials/imgs/instruction_images/InstructionImg2D34.png' alt='Choice Image 1' style='width:150px; height:auto;' />
          <p><em><strong>LEFT ARROW</strong></em></p>
        </div>
        <div style='margin-left: 50px;'>
          <img src='materials/imgs/instruction_images/InstructionImg3D80.png' alt='Choice Image 2' style='width:150px; height:auto;' />
          <p><em><strong>RIGHT ARROW</strong></em></p>
        </div>
      </div>
    </div>

      <p>When you are ready to proceed, please click 'Continue' to begin practice.</p>","0","","","","","","",""
"","","","","","html-keyboard-response","9","72731","0.0-9.0","jgjwzln12u","","jgjwzln12u","""2024-11-13T00:17:55.986Z""","null","+","null","","","","","","",""
"","","","","","html-keyboard-response","10","73234","0.0-10.0-0.0-0.0","jgjwzln12u","","jgjwzln12u","""2024-11-13T00:17:55.986Z""","null","+","null","","","","","","",""
"","","","","","image-keyboard-response","11","77787","0.0-10.0-0.0-1.0","jgjwzln12u","","jgjwzln12u","""2024-11-13T00:17:55.986Z""","4538","materials/imgs/D66.png","arrowright","","[""materials/imgs/D20.png"",""materials/imgs/D87.png""]","false","random","","",""
"","","","","","html-keyboard-response","12","78289","0.0-10.0-0.0-0.1","jgjwzln12u","","jgjwzln12u","""2024-11-13T00:17:55.986Z""","null","+","null","","","","","","",""
"","","","","","image-keyboard-response","13","79276","0.0-10.0-0.0-1.1","jgjwzln12u","","jgjwzln12u","""2024-11-13T00:17:55.986Z""","985","materials/imgs/D77.png","arrowright","","[""materials/imgs/D32.png"",""materials/imgs/D14.png""]","false","random","","",""
"","","","","","html-keyboard-response","14","79778","0.0-10.0-0.0-0.2","jgjwzln12u","","jgjwzln12u","""2024-11-13T00:17:55.986Z""","null","+","null","","","","","","",""
"","","","","","image-keyboard-response","15","81415","0.0-10.0-0.0-1.2","jgjwzln12u","","jgjwzln12u","""2024-11-13T00:17:55.986Z""","1635","materials/imgs/D20.png","arrowright","","[""materials/imgs/D95.png"",""materials/imgs/D104.png""]","false","random","","",""
"","","","","","html-keyboard-response","16","81916","0.0-10.0-0.0-0.3","jgjwzln12u","","jgjwzln12u","""2024-11-13T00:17:55.986Z""","null","+","null","","","","","","",""
"","","","","","image-keyboard-response","17","84187","0.0-10.0-0.0-1.3","jgjwzln12u","","jgjwzln12u","""2024-11-13T00:17:55.986Z""","2269","materials/imgs/D25.png","arrowright","","[""materials/imgs/D65.png"",""materials/imgs/D19.png""]","false","random","","",""
"","","","","","html-keyboard-response","18","84688","0.0-10.0-0.0-0.4","jgjwzln12u","","jgjwzln12u","""2024-11-13T00:17:55.986Z""","null","+","null","","","","","","",""
"","","","","","image-keyboard-response","19","86031","0.0-10.0-0.0-1.4","jgjwzln12u","","jgjwzln12u","""2024-11-13T00:17:55.986Z""","1342","materials/imgs/D77.png","arrowright","","[""materials/imgs/D102.png"",""materials/imgs/D22.png""]","false","random","","",""
"","","","","","html-keyboard-response","20","86533","0.0-10.0-0.0-0.5","jgjwzln12u","","jgjwzln12u","""2024-11-13T00:17:55.986Z""","null","+","null","","","","","","",""
"","","","","","image-keyboard-response","21","88447","0.0-10.0-0.0-1.5","jgjwzln12u","","jgjwzln12u","""2024-11-13T00:17:55.986Z""","1914","materials/imgs/D47.png","arrowleft","","[""materials/imgs/D52.png"",""materials/imgs/D20.png""]","false","random","","",""
"","","","","","html-keyboard-response","22","88949","0.0-10.0-0.0-0.6","jgjwzln12u","","jgjwzln12u","""2024-11-13T00:17:55.986Z""","null","+","null","","","","","","",""
"","","","","","image-keyboard-response","23","90139","0.0-10.0-0.0-1.6","jgjwzln12u","","jgjwzln12u","""2024-11-13T00:17:55.986Z""","1188","materials/imgs/D4.png","arrowright","","[""materials/imgs/D74.png"",""materials/imgs/D52.png""]","false","random","","",""
"","","","","","html-keyboard-response","24","90640","0.0-10.0-0.0-0.7","jgjwzln12u","","jgjwzln12u","""2024-11-13T00:17:55.986Z""","null","+","null","","","","","","",""
"","","","","","image-keyboard-response","25","91557","0.0-10.0-0.0-1.7","jgjwzln12u","","jgjwzln12u","""2024-11-13T00:17:55.986Z""","914","materials/imgs/D51.png","arrowright","","[""materials/imgs/D103.png"",""materials/imgs/D106.png""]","false","random","","",""
"","","","","","html-keyboard-response","26","92058","0.0-10.0-0.0-0.8","jgjwzln12u","","jgjwzln12u","""2024-11-13T00:17:55.986Z""","null","+","null","","","","","","",""
"","","","","","image-keyboard-response","27","92714","0.0-10.0-0.0-1.8","jgjwzln12u","","jgjwzln12u","""2024-11-13T00:17:55.986Z""","652","materials/imgs/D77.png","arrowleft","","[""materials/imgs/D21.png"",""materials/imgs/D46.png""]","false","random","","",""
"","","","","","html-keyboard-response","28","93215","0.0-10.0-0.0-0.9","jgjwzln12u","","jgjwzln12u","""2024-11-13T00:17:55.986Z""","null","+","null","","","","","","",""
"","","","","","image-keyboard-response","29","95124","0.0-10.0-0.0-1.9","jgjwzln12u","","jgjwzln12u","""2024-11-13T00:17:55.986Z""","1906","materials/imgs/D82.png","arrowleft","","[""materials/imgs/D83.png"",""materials/imgs/D95.png""]","false","random","","",""
"","","","","","html-button-response","30","103581","0.0-11.0","jgjwzln12u","","jgjwzln12u","""2024-11-13T00:17:55.986Z""","8456","<p>Great job!</p>
      <p>You are now ready to begin the experiment.</p>
      <p>There will be around 200 trials. You will have opportunities to take breaks at three stages of the trials.</p>
      <p>When you are ready to begin please click 'Continue'.</p>","0","","","","","","",""
"","","","","","html-keyboard-response","31","106085","0.0-12.0","jgjwzln12u","","jgjwzln12u","""2024-11-13T00:17:55.986Z""","null","+","null","","","","","","",""
"","","","","","html-keyboard-response","32","106586","0.0-13.0-0.0-0.0","jgjwzln12u","","jgjwzln12u","""2024-11-13T00:17:55.986Z""","null","+","null","","","","","","",""
"","","","","","image-keyboard-response","33","107731","0.0-13.0-0.0-1.0","jgjwzln12u","","jgjwzln12u","""2024-11-13T00:17:55.986Z""","1142","materials/imgs/D79.png","arrowright","","[""materials/imgs/D111.png"",""materials/imgs/D11.png""]","false","random","","",""
"","","","","","html-keyboard-response","34","108233","0.0-13.0-0.0-0.1","jgjwzln12u","","jgjwzln12u","""2024-11-13T00:17:55.986Z""","null","+","null","","","","","","",""
"","","","","","image-keyboard-response","35","109428","0.0-13.0-0.0-1.1","jgjwzln12u","","jgjwzln12u","""2024-11-13T00:17:55.986Z""","1194","materials/imgs/D6.png","arrowright","","[""materials/imgs/D103.png"",""materials/imgs/D78.png""]","false","random","","",""
"","","","","","html-keyboard-response","36","109929","0.0-13.0-0.0-0.2","jgjwzln12u","","jgjwzln12u","""2024-11-13T00:17:55.986Z""","null","+","null","","","","","","",""
"","","","","","image-keyboard-response","37","111125","0.0-13.0-0.0-1.2","jgjwzln12u","","jgjwzln12u","""2024-11-13T00:17:55.986Z""","1194","materials/imgs/D48.png","arrowright","","[""materials/imgs/D9.png"",""materials/imgs/D82.png""]","false","random","","",""
"","","","","","html-keyboard-response","38","111627","0.0-13.0-0.0-0.3","jgjwzln12u","","jgjwzln12u","""2024-11-13T00:17:55.986Z""","null","+","null","","","","","","",""
"","","","","","image-keyboard-response","39","112892","0.0-13.0-0.0-1.3","jgjwzln12u","","jgjwzln12u","""2024-11-13T00:17:55.986Z""","1263","materials/imgs/D34.png","arrowleft","","[""materials/imgs/D81.png"",""materials/imgs/D80.png""]","false","random","","",""
"","","","","","html-keyboard-response","40","113393","0.0-13.0-0.0-0.4","jgjwzln12u","","jgjwzln12u","""2024-11-13T00:17:55.986Z""","null","+","null","","","","","","",""
"","","","","","image-keyboard-response","41","114202","0.0-13.0-0.0-1.4","jgjwzln12u","","jgjwzln12u","""2024-11-13T00:17:55.986Z""","807","materials/imgs/D17.png","arrowright","","[""materials/imgs/D111.png"",""materials/imgs/D104.png""]","false","random","","",""
"","","","","","html-keyboard-response","42","114703","0.0-13.0-0.0-0.5","jgjwzln12u","","jgjwzln12u","""2024-11-13T00:17:55.986Z""","null","+","null","","","","","","",""
"","","","","","image-keyboard-response","43","117437","0.0-13.0-0.0-1.5","jgjwzln12u","","jgjwzln12u","""2024-11-13T00:17:55.986Z""","2732","materials/imgs/D21.png","arrowleft","","[""materials/imgs/D19.png"",""materials/imgs/D65.png""]","false","random","","",""
"","","","","","html-keyboard-response","44","117939","0.0-13.0-0.0-0.6","jgjwzln12u","","jgjwzln12u","""2024-11-13T00:17:55.986Z""","null","+","null","","","","","","",""
"","","","","","image-keyboard-response","45","118796","0.0-13.0-0.0-1.6","jgjwzln12u","","jgjwzln12u","""2024-11-13T00:17:55.986Z""","856","materials/imgs/D11.png","arrowright","","[""materials/imgs/D95.png"",""materials/imgs/D111.png""]","false","random","","",""
"","","","","","html-keyboard-response","46","119297","0.0-13.0-1.0-0.0","jgjwzln12u","","jgjwzln12u","""2024-11-13T00:17:55.986Z""","null","+","null","","","","","","",""
"","","","","","image-keyboard-response","47","119841","0.0-13.0-1.0-1.0","jgjwzln12u","","jgjwzln12u","""2024-11-13T00:17:55.986Z""","541","materials/imgs/D8.png","arrowright","","[""materials/imgs/D18.png"",""materials/imgs/D8.png""]","","check","materials/imgs/D8.png","1","true"
"","","","","","html-keyboard-response","48","120342","0.0-13.0-2.0-0.0","jgjwzln12u","","jgjwzln12u","""2024-11-13T00:17:55.986Z""","null","+","null","","","","","","",""
"","","","","","image-keyboard-response","49","121518","0.0-13.0-2.0-1.0","jgjwzln12u","","jgjwzln12u","""2024-11-13T00:17:55.986Z""","1174","materials/imgs/D64.png","arrowleft","","[""materials/imgs/D6.png"",""materials/imgs/D81.png""]","false","validation","","",""
"","","","","","html-keyboard-response","50","122020","0.0-13.0-2.0-0.1","jgjwzln12u","","jgjwzln12u","""2024-11-13T00:17:55.986Z""","null","+","null","","","","","","",""
"","","","","","image-keyboard-response","51","123325","0.0-13.0-2.0-1.1","jgjwzln12u","","jgjwzln12u","""2024-11-13T00:17:55.986Z""","1304","materials/imgs/D111.png","arrowleft","","[""materials/imgs/D82.png"",""materials/imgs/D95.png""]","false","validation","","",""
"","","","","","html-keyboard-response","52","123827","0.0-13.0-0.1-0.7","jgjwzln12u","","jgjwzln12u","""2024-11-13T00:17:55.986Z""","null","+","null","","","","","","",""
"","","","","","image-keyboard-response","53","125042","0.0-13.0-0.1-1.7","jgjwzln12u","","jgjwzln12u","""2024-11-13T00:17:55.986Z""","1212","materials/imgs/D76.png","arrowleft","","[""materials/imgs/D68.png"",""materials/imgs/D22.png""]","false","random","","",""
"","","","","","html-keyboard-response","54","125542","0.0-13.0-0.1-0.8","jgjwzln12u","","jgjwzln12u","""2024-11-13T00:17:55.986Z""","null","+","null","","","","","","",""
"","","","","","image-keyboard-response","55","129791","0.0-13.0-0.1-1.8","jgjwzln12u","","jgjwzln12u","""2024-11-13T00:17:55.986Z""","4246","materials/imgs/D19.png","arrowright","","[""materials/imgs/D26.png"",""materials/imgs/D22.png""]","false","random","","",""
"","","","","","html-keyboard-response","56","130292","0.0-13.0-0.1-0.9","jgjwzln12u","","jgjwzln12u","""2024-11-13T00:17:55.986Z""","null","+","null","","","","","","",""
"","","","","","image-keyboard-response","57","131028","0.0-13.0-0.1-1.9","jgjwzln12u","","jgjwzln12u","""2024-11-13T00:17:55.986Z""","734","materials/imgs/D111.png","arrowleft","","[""materials/imgs/D22.png"",""materials/imgs/D85.png""]","false","random","","",""
"","","","","","html-keyboard-response","58","131530","0.0-13.0-0.1-0.10","jgjwzln12u","","jgjwzln12u","""2024-11-13T00:17:55.986Z""","null","+","null","","","","","","",""
"","","","","","image-keyboard-response","59","135272","0.0-13.0-0.1-1.10","jgjwzln12u","","jgjwzln12u","""2024-11-13T00:17:55.986Z""","3740","materials/imgs/D55.png","arrowleft","","[""materials/imgs/D96.png"",""materials/imgs/D102.png""]","false","random","","",""
"","","","","","html-keyboard-response","60","135774","0.0-13.0-0.1-0.11","jgjwzln12u","","jgjwzln12u","""2024-11-13T00:17:55.986Z""","null","+","null","","","","","","",""
"","","","","","image-keyboard-response","61","137789","0.0-13.0-0.1-1.11","jgjwzln12u","","jgjwzln12u","""2024-11-13T00:17:55.986Z""","2013","materials/imgs/D37.png","arrowright","","[""materials/imgs/D53.png"",""materials/imgs/D11.png""]","false","random","","",""
"","","","","","html-keyboard-response","62","138289","0.0-13.0-0.1-0.12","jgjwzln12u","","jgjwzln12u","""2024-11-13T00:17:55.986Z""","null","+","null","","","","","","",""
"","","","","","image-keyboard-response","63","138940","0.0-13.0-0.1-1.12","jgjwzln12u","","jgjwzln12u","""2024-11-13T00:17:55.986Z""","649","materials/imgs/D18.png","arrowleft","","[""materials/imgs/D76.png"",""materials/imgs/D104.png""]","false","random","","",""
"","","","","","html-keyboard-response","64","139441","0.0-13.0-0.1-0.13","jgjwzln12u","","jgjwzln12u","""2024-11-13T00:17:55.986Z""","null","+","null","","","","","","",""
"","","","","","image-keyboard-response","65","140472","0.0-13.0-0.1-1.13","jgjwzln12u","","jgjwzln12u","""2024-11-13T00:17:55.986Z""","1029","materials/imgs/D46.png","arrowright","","[""materials/imgs/D32.png"",""materials/imgs/D36.png""]","false","random","","",""
"","","","","","html-keyboard-response","66","140974","0.0-13.0-1.1-0.1","jgjwzln12u","","jgjwzln12u","""2024-11-13T00:17:55.986Z""","null","+","null","","","","","","",""
"","","","","","image-keyboard-response","67","141521","0.0-13.0-1.1-1.1","jgjwzln12u","","jgjwzln12u","""2024-11-13T00:17:55.986Z""","545","materials/imgs/D76.png","arrowleft","","[""materials/imgs/D76.png"",""materials/imgs/D78.png""]","","check","materials/imgs/D76.png","0","true"
"","","","","","html-keyboard-response","68","142022","0.0-13.0-2.1-0.2","jgjwzln12u","","jgjwzln12u","""2024-11-13T00:17:55.986Z""","null","+","null","","","","","","",""
"","","","","","image-keyboard-response","69","142902","0.0-13.0-2.1-1.2","jgjwzln12u","","jgjwzln12u","""2024-11-13T00:17:55.986Z""","878","materials/imgs/D8.png","arrowleft","","[""materials/imgs/D101.png"",""materials/imgs/D52.png""]","false","validation","","",""
"","","","","","html-keyboard-response","70","143403","0.0-13.0-2.1-0.3","jgjwzln12u","","jgjwzln12u","""2024-11-13T00:17:55.986Z""","null","+","null","","","","","","",""
"","","","","","image-keyboard-response","71","143880","0.0-13.0-2.1-1.3","jgjwzln12u","","jgjwzln12u","""2024-11-13T00:17:55.986Z""","476","materials/imgs/D105.png","arrowleft","","[""materials/imgs/D106.png"",""materials/imgs/D52.png""]","true","validation","","",""
"","","","","","html-keyboard-response","72","147912","0.0-13.0-2.1-2.3-0.3","jgjwzln12u","","jgjwzln12u","""2024-11-13T00:17:55.986Z""","4030","<p><strong>You're going too fast.</strong><p>Please slow down and assess each triplet.<p>Press 'y' to continue.</p></p>","y","","","","","","",""
"","","","","","html-keyboard-response","73","148413","0.0-13.0-0.2-0.14","jgjwzln12u","","jgjwzln12u","""2024-11-13T00:17:55.986Z""","null","+","null","","","","","","",""
"","","","","","image-keyboard-response","74","149083","0.0-13.0-0.2-1.14","jgjwzln12u","","jgjwzln12u","""2024-11-13T00:17:55.986Z""","667","materials/imgs/D17.png","arrowright","","[""materials/imgs/D26.png"",""materials/imgs/D53.png""]","false","random","","",""
"","","","","","html-keyboard-response","75","149584","0.0-13.0-0.2-0.15","jgjwzln12u","","jgjwzln12u","""2024-11-13T00:17:55.986Z""","null","+","null","","","","","","",""
"","","","","","image-keyboard-response","76","152873","0.0-13.0-0.2-1.15","jgjwzln12u","","jgjwzln12u","""2024-11-13T00:17:55.986Z""","3287","materials/imgs/D103.png","arrowleft","","[""materials/imgs/D20.png"",""materials/imgs/D25.png""]","false","random","","",""
"","","","","","html-keyboard-response","77","153375","0.0-13.0-0.2-0.16","jgjwzln12u","","jgjwzln12u","""2024-11-13T00:17:55.986Z""","null","+","null","","","","","","",""
"","","","","","image-keyboard-response","78","154350","0.0-13.0-0.2-1.16","jgjwzln12u","","jgjwzln12u","""2024-11-13T00:17:55.986Z""","973","materials/imgs/D48.png","arrowright","","[""materials/imgs/D82.png"",""materials/imgs/D103.png""]","false","random","","",""
"","","","","","html-keyboard-response","79","154852","0.0-13.0-0.2-0.17","jgjwzln12u","","jgjwzln12u","""2024-11-13T00:17:55.986Z""","null","+","null","","","","","","",""
"","","","","","image-keyboard-response","80","155794","0.0-13.0-0.2-1.17","jgjwzln12u","","jgjwzln12u","""2024-11-13T00:17:55.986Z""","940","materials/imgs/D96.png","arrowright","","[""materials/imgs/D101.png"",""materials/imgs/D95.png""]","false","random","","",""
"","","","","","html-keyboard-response","81","156295","0.0-13.0-0.2-0.18","jgjwzln12u","","jgjwzln12u","""2024-11-13T00:17:55.986Z""","null","+","null","","","","","","",""
"","","","","","image-keyboard-response","82","157380","0.0-13.0-0.2-1.18","jgjwzln12u","","jgjwzln12u","""2024-11-13T00:17:55.986Z""","1083","materials/imgs/D76.png","arrowright","","[""materials/imgs/D55.png"",""materials/imgs/D11.png""]","false","random","","",""
"","","","","","html-keyboard-response","83","157883","0.0-13.0-0.2-0.19","jgjwzln12u","","jgjwzln12u","""2024-11-13T00:17:55.986Z""","null","+","null","","","","","","",""
"","","","","","image-keyboard-response","84","158900","0.0-13.0-0.2-1.19","jgjwzln12u","","jgjwzln12u","""2024-11-13T00:17:55.986Z""","1015","materials/imgs/D55.png","arrowright","","[""materials/imgs/D20.png"",""materials/imgs/D57.png""]","false","random","","",""
"","","","","","html-keyboard-response","85","159402","0.0-13.0-0.2-0.20","jgjwzln12u","","jgjwzln12u","""2024-11-13T00:17:55.986Z""","null","+","null","","","","","","",""
"","","","","","image-keyboard-response","86","161709","0.0-13.0-0.2-1.20","jgjwzln12u","","jgjwzln12u","""2024-11-13T00:17:55.986Z""","2305","materials/imgs/D16.png","arrowleft","","[""materials/imgs/D76.png"",""materials/imgs/D102.png""]","false","random","","",""
"","","","","","html-keyboard-response","87","162211","0.0-13.0-1.2-0.2","jgjwzln12u","","jgjwzln12u","""2024-11-13T00:17:55.986Z""","null","+","null","","","","","","",""
"","","","","","image-keyboard-response","88","162751","0.0-13.0-1.2-1.2","jgjwzln12u","","jgjwzln12u","""2024-11-13T00:17:55.986Z""","539","materials/imgs/D26.png","arrowleft","","[""materials/imgs/D26.png"",""materials/imgs/D46.png""]","","check","materials/imgs/D26.png","0","true"
"","","","","","html-keyboard-response","89","163253","0.0-13.0-2.2-0.4","jgjwzln12u","","jgjwzln12u","""2024-11-13T00:17:55.986Z""","null","+","null","","","","","","",""
"","","","","","image-keyboard-response","90","164585","0.0-13.0-2.2-1.4","jgjwzln12u","","jgjwzln12u","""2024-11-13T00:17:55.986Z""","1330","materials/imgs/D101.png","arrowright","","[""materials/imgs/D76.png"",""materials/imgs/D47.png""]","false","validation","","",""
"","","","","","html-keyboard-response","91","165087","0.0-13.0-2.2-0.5","jgjwzln12u","","jgjwzln12u","""2024-11-13T00:17:55.986Z""","null","+","null","","","","","","",""
"","","","","","image-keyboard-response","92","166206","0.0-13.0-2.2-1.5","jgjwzln12u","","jgjwzln12u","""2024-11-13T00:17:55.986Z""","1117","materials/imgs/D3.png","arrowleft","","[""materials/imgs/D79.png"",""materials/imgs/D48.png""]","false","validation","","",""
"","","","","","html-keyboard-response","93","166708","0.0-13.0-0.3-0.21","jgjwzln12u","","jgjwzln12u","""2024-11-13T00:17:55.986Z""","null","+","null","","","","","","",""
"","","","","","image-keyboard-response","94","169451","0.0-13.0-0.3-1.21","jgjwzln12u","","jgjwzln12u","""2024-11-13T00:17:55.986Z""","2741","materials/imgs/D106.png","arrowright","","[""materials/imgs/D64.png"",""materials/imgs/D36.png""]","false","random","","",""
"","","","","","html-keyboard-response","95","169952","0.0-13.0-0.3-0.22","jgjwzln12u","","jgjwzln12u","""2024-11-13T00:17:55.986Z""","null","+","null","","","","","","",""
"","","","","","image-keyboard-response","96","173753","0.0-13.0-0.3-1.22","jgjwzln12u","","jgjwzln12u","""2024-11-13T00:17:55.986Z""","3798","materials/imgs/D46.png","arrowright","","[""materials/imgs/D25.png"",""materials/imgs/D96.png""]","false","random","","",""
"","","","","","html-keyboard-response","97","174254","0.0-13.0-0.3-0.23","jgjwzln12u","","jgjwzln12u","""2024-11-13T00:17:55.986Z""","null","+","null","","","","","","",""
"","","","","","image-keyboard-response","98","175994","0.0-13.0-0.3-1.23","jgjwzln12u","","jgjwzln12u","""2024-11-13T00:17:55.986Z""","1737","materials/imgs/D95.png","arrowleft","","[""materials/imgs/D3.png"",""materials/imgs/D6.png""]","false","random","","",""
"","","","","","html-keyboard-response","99","176495","0.0-13.0-0.3-0.24","jgjwzln12u","","jgjwzln12u","""2024-11-13T00:17:55.986Z""","null","+","null","","","","","","",""
"","","","","","image-keyboard-response","100","178391","0.0-13.0-0.3-1.24","jgjwzln12u","","jgjwzln12u","""2024-11-13T00:17:55.986Z""","1894","materials/imgs/D9.png","arrowright","","[""materials/imgs/D75.png"",""materials/imgs/D96.png""]","false","random","","",""
"","","","","","html-keyboard-response","101","178893","0.0-13.0-0.3-0.25","jgjwzln12u","","jgjwzln12u","""2024-11-13T00:17:55.986Z""","null","+","null","","","","","","",""
"","","","","","image-keyboard-response","102","181578","0.0-13.0-0.3-1.25","jgjwzln12u","","jgjwzln12u","""2024-11-13T00:17:55.986Z""","2683","materials/imgs/D26.png","arrowright","","[""materials/imgs/D48.png"",""materials/imgs/D68.png""]","false","random","","",""
"","","","","","html-keyboard-response","103","182079","0.0-13.0-0.3-0.26","jgjwzln12u","","jgjwzln12u","""2024-11-13T00:17:55.986Z""","null","+","null","","","","","","",""
"","","","","","image-keyboard-response","104","182749","0.0-13.0-0.3-1.26","jgjwzln12u","","jgjwzln12u","""2024-11-13T00:17:55.986Z""","667","materials/imgs/D29.png","arrowleft","","[""materials/imgs/D22.png"",""materials/imgs/D19.png""]","false","random","","",""
"","","","","","html-keyboard-response","105","183251","0.0-13.0-0.3-0.27","jgjwzln12u","","jgjwzln12u","""2024-11-13T00:17:55.986Z""","null","+","null","","","","","","",""
"","","","","","image-keyboard-response","106","184507","0.0-13.0-0.3-1.27","jgjwzln12u","","jgjwzln12u","""2024-11-13T00:17:55.986Z""","1254","materials/imgs/D17.png","arrowright","","[""materials/imgs/D51.png"",""materials/imgs/D68.png""]","false","random","","",""
"","","","","","html-keyboard-response","107","185007","0.0-13.0-1.3-0.3","jgjwzln12u","","jgjwzln12u","""2024-11-13T00:17:55.986Z""","null","+","null","","","","","","",""
"","","","","","image-keyboard-response","108","185570","0.0-13.0-1.3-1.3","jgjwzln12u","","jgjwzln12u","""2024-11-13T00:17:55.986Z""","560","materials/imgs/D46.png","arrowleft","","[""materials/imgs/D46.png"",""materials/imgs/D26.png""]","","check","materials/imgs/D46.png","0","true"
"","","","","","html-keyboard-response","109","186071","0.0-13.0-2.3-0.6","jgjwzln12u","","jgjwzln12u","""2024-11-13T00:17:55.986Z""","null","+","null","","","","","","",""
"","","","","","image-keyboard-response","110","187636","0.0-13.0-2.3-1.6","jgjwzln12u","","jgjwzln12u","""2024-11-13T00:17:55.986Z""","1564","materials/imgs/D76.png","arrowleft","","[""materials/imgs/D83.png"",""materials/imgs/D6.png""]","false","validation","","",""
"","","","","","html-keyboard-response","111","188137","0.0-13.0-2.3-0.7","jgjwzln12u","","jgjwzln12u","""2024-11-13T00:17:55.986Z""","null","+","null","","","","","","",""
"","","","","","image-keyboard-response","112","189751","0.0-13.0-2.3-1.7","jgjwzln12u","","jgjwzln12u","""2024-11-13T00:17:55.986Z""","1613","materials/imgs/D75.png","arrowright","","[""materials/imgs/D96.png"",""materials/imgs/D4.png""]","false","validation","","",""
"","","","","","html-keyboard-response","113","190253","0.0-13.0-0.4-0.28","jgjwzln12u","","jgjwzln12u","""2024-11-13T00:17:55.986Z""","null","+","null","","","","","","",""
"","","","","","image-keyboard-response","114","191060","0.0-13.0-0.4-1.28","jgjwzln12u","","jgjwzln12u","""2024-11-13T00:17:55.986Z""","805","materials/imgs/D80.png","arrowright","","[""materials/imgs/D18.png"",""materials/imgs/D78.png""]","false","random","","",""
"","","","","","html-keyboard-response","115","191561","0.0-13.0-0.4-0.29","jgjwzln12u","","jgjwzln12u","""2024-11-13T00:17:55.986Z""","null","+","null","","","","","","",""
"","","","","","image-keyboard-response","116","192759","0.0-13.0-0.4-1.29","jgjwzln12u","","jgjwzln12u","""2024-11-13T00:17:55.986Z""","1196","materials/imgs/D8.png","arrowright","","[""materials/imgs/D19.png"",""materials/imgs/D3.png""]","false","random","","",""
"","","","","","html-keyboard-response","117","193260","0.0-13.0-0.4-0.30","jgjwzln12u","","jgjwzln12u","""2024-11-13T00:17:55.986Z""","null","+","null","","","","","","",""
"","","","","","image-keyboard-response","118","194046","0.0-13.0-0.4-1.30","jgjwzln12u","","jgjwzln12u","""2024-11-13T00:17:55.986Z""","784","materials/imgs/D6.png","arrowright","","[""materials/imgs/D20.png"",""materials/imgs/D24.png""]","false","random","","",""
"","","","","","html-keyboard-response","119","194547","0.0-13.0-0.4-0.31","jgjwzln12u","","jgjwzln12u","""2024-11-13T00:17:55.986Z""","null","+","null","","","","","","",""
"","","","","","image-keyboard-response","120","195700","0.0-13.0-0.4-1.31","jgjwzln12u","","jgjwzln12u","""2024-11-13T00:17:55.986Z""","1151","materials/imgs/D55.png","arrowleft","","[""materials/imgs/D103.png"",""materials/imgs/D49.png""]","false","random","","",""
"","","","","","html-keyboard-response","121","196201","0.0-13.0-0.4-0.32","jgjwzln12u","","jgjwzln12u","""2024-11-13T00:17:55.986Z""","null","+","null","","","","","","",""
"","","","","","image-keyboard-response","122","197879","0.0-13.0-0.4-1.32","jgjwzln12u","","jgjwzln12u","""2024-11-13T00:17:55.986Z""","1675","materials/imgs/D66.png","arrowright","","[""materials/imgs/D55.png"",""materials/imgs/D36.png""]","false","random","","",""
"","","","","","html-keyboard-response","123","198379","0.0-13.0-0.4-0.33","jgjwzln12u","","jgjwzln12u","""2024-11-13T00:17:55.986Z""","null","+","null","","","","","","",""
"","","","","","image-keyboard-response","124","200179","0.0-13.0-0.4-1.33","jgjwzln12u","","jgjwzln12u","""2024-11-13T00:17:55.986Z""","1799","materials/imgs/D4.png","arrowright","","[""materials/imgs/D51.png"",""materials/imgs/D56.png""]","false","random","","",""
"","","","","","html-keyboard-response","125","200681","0.0-13.0-0.4-0.34","jgjwzln12u","","jgjwzln12u","""2024-11-13T00:17:55.986Z""","null","+","null","","","","","","",""
"","","","","","image-keyboard-response","126","201671","0.0-13.0-0.4-1.34","jgjwzln12u","","jgjwzln12u","""2024-11-13T00:17:55.986Z""","988","materials/imgs/D65.png","arrowleft","","[""materials/imgs/D92.png"",""materials/imgs/D75.png""]","false","random","","",""
"","","","","","html-keyboard-response","127","202172","0.0-13.0-1.4-0.4","jgjwzln12u","","jgjwzln12u","""2024-11-13T00:17:55.986Z""","null","+","null","","","","","","",""
"","","","","","image-keyboard-response","128","202825","0.0-13.0-1.4-1.4","jgjwzln12u","","jgjwzln12u","""2024-11-13T00:17:55.986Z""","652","materials/imgs/D8.png","arrowright","","[""materials/imgs/D18.png"",""materials/imgs/D8.png""]","","check","materials/imgs/D8.png","1","true"
"","","","","","html-keyboard-response","129","203327","0.0-13.0-2.4-0.8","jgjwzln12u","","jgjwzln12u","""2024-11-13T00:17:55.986Z""","null","+","null","","","","","","",""
"","","","","","image-keyboard-response","130","204641","0.0-13.0-2.4-1.8","jgjwzln12u","","jgjwzln12u","""2024-11-13T00:17:55.986Z""","1313","materials/imgs/D56.png","arrowright","","[""materials/imgs/D25.png"",""materials/imgs/D105.png""]","false","validation","","",""
"","","","","","html-keyboard-response","131","205143","0.0-13.0-2.4-0.9","jgjwzln12u","","jgjwzln12u","""2024-11-13T00:17:55.986Z""","null","+","null","","","","","","",""
"","","","","","image-keyboard-response","132","206380","0.0-13.0-2.4-1.9","jgjwzln12u","","jgjwzln12u","""2024-11-13T00:17:55.986Z""","1236","materials/imgs/D96.png","arrowright","","[""materials/imgs/D46.png"",""materials/imgs/D18.png""]","false","validation","","",""
"","","","","","html-button-response","133","210030","0.0-14.0","jgjwzln12u","","jgjwzln12u","""2024-11-13T00:17:55.986Z""","3649","You have completed 25% of the trials. Please click 'Continue' when you are ready proceed.","0","","","","","","",""
"","","","","","html-keyboard-response","134","210531","0.0-15.0-0.0-0.0","jgjwzln12u","","jgjwzln12u","""2024-11-13T00:17:55.986Z""","null","+","null","","","","","","",""
"","","","","","image-keyboard-response","135","211661","0.0-15.0-0.0-1.0","jgjwzln12u","","jgjwzln12u","""2024-11-13T00:17:55.986Z""","1128","materials/imgs/D94.png","arrowleft","","[""materials/imgs/D56.png"",""materials/imgs/D106.png""]","false","random","","",""
"","","","","","html-keyboard-response","136","212163","0.0-15.0-0.0-0.1","jgjwzln12u","","jgjwzln12u","""2024-11-13T00:17:55.986Z""","null","+","null","","","","","","",""
"","","","","","image-keyboard-response","137","213808","0.0-15.0-0.0-1.1","jgjwzln12u","","jgjwzln12u","""2024-11-13T00:17:55.986Z""","1644","materials/imgs/D20.png","arrowright","","[""materials/imgs/D9.png"",""materials/imgs/D82.png""]","false","random","","",""
"","","","","","html-keyboard-response","138","214309","0.0-15.0-0.0-0.2","jgjwzln12u","","jgjwzln12u","""2024-11-13T00:17:55.986Z""","null","+","null","","","","","","",""
"","","","","","image-keyboard-response","139","215242","0.0-15.0-0.0-1.2","jgjwzln12u","","jgjwzln12u","""2024-11-13T00:17:55.986Z""","931","materials/imgs/D52.png","arrowright","","[""materials/imgs/D85.png"",""materials/imgs/D14.png""]","false","random","","",""
"","","","","","html-keyboard-response","140","215744","0.0-15.0-0.0-0.3","jgjwzln12u","","jgjwzln12u","""2024-11-13T00:17:55.986Z""","null","+","null","","","","","","",""
"","","","","","image-keyboard-response","141","218057","0.0-15.0-0.0-1.3","jgjwzln12u","","jgjwzln12u","""2024-11-13T00:17:55.986Z""","2311","materials/imgs/D111.png","arrowleft","","[""materials/imgs/D106.png"",""materials/imgs/D51.png""]","false","random","","",""
"","","","","","html-keyboard-response","142","218559","0.0-15.0-0.0-0.4","jgjwzln12u","","jgjwzln12u","""2024-11-13T00:17:55.986Z""","null","+","null","","","","","","",""
"","","","","","image-keyboard-response","143","221054","0.0-15.0-0.0-1.4","jgjwzln12u","","jgjwzln12u","""2024-11-13T00:17:55.986Z""","2494","materials/imgs/D19.png","arrowright","","[""materials/imgs/D76.png"",""materials/imgs/D53.png""]","false","random","","",""
"","","","","","html-keyboard-response","144","221555","0.0-15.0-0.0-0.5","jgjwzln12u","","jgjwzln12u","""2024-11-13T00:17:55.986Z""","null","+","null","","","","","","",""
"","","","","","image-keyboard-response","145","222609","0.0-15.0-0.0-1.5","jgjwzln12u","","jgjwzln12u","""2024-11-13T00:17:55.986Z""","1051","materials/imgs/D101.png","arrowleft","","[""materials/imgs/D24.png"",""materials/imgs/D105.png""]","false","random","","",""
"","","","","","html-keyboard-response","146","223110","0.0-15.0-0.0-0.6","jgjwzln12u","","jgjwzln12u","""2024-11-13T00:17:55.986Z""","null","+","null","","","","","","",""
"","","","","","image-keyboard-response","147","226250","0.0-15.0-0.0-1.6","jgjwzln12u","","jgjwzln12u","""2024-11-13T00:17:55.986Z""","3138","materials/imgs/D81.png","arrowright","","[""materials/imgs/D34.png"",""materials/imgs/D56.png""]","false","random","","",""
"","","","","","html-keyboard-response","148","226751","0.0-15.0-1.0-0.0","jgjwzln12u","","jgjwzln12u","""2024-11-13T00:17:55.986Z""","null","+","null","","","","","","",""
"","","","","","image-keyboard-response","149","227324","0.0-15.0-1.0-1.0","jgjwzln12u","","jgjwzln12u","""2024-11-13T00:17:55.986Z""","570","materials/imgs/D101.png","arrowright","","[""materials/imgs/D106.png"",""materials/imgs/D101.png""]","","check","materials/imgs/D101.png","1","true"
"","","","","","html-keyboard-response","150","227825","0.0-15.0-2.0-0.0","jgjwzln12u","","jgjwzln12u","""2024-11-13T00:17:55.986Z""","null","+","null","","","","","","",""
"","","","","","image-keyboard-response","151","229408","0.0-15.0-2.0-1.0","jgjwzln12u","","jgjwzln12u","""2024-11-13T00:17:55.986Z""","1581","materials/imgs/D26.png","arrowright","","[""materials/imgs/D36.png"",""materials/imgs/D92.png""]","false","validation","","",""
"","","","","","html-keyboard-response","152","229910","0.0-15.0-2.0-0.1","jgjwzln12u","","jgjwzln12u","""2024-11-13T00:17:55.986Z""","null","+","null","","","","","","",""
"","","","","","image-keyboard-response","153","231112","0.0-15.0-2.0-1.1","jgjwzln12u","","jgjwzln12u","""2024-11-13T00:17:55.986Z""","1200","materials/imgs/D68.png","arrowleft","","[""materials/imgs/D96.png"",""materials/imgs/D48.png""]","false","validation","","",""
"","","","","","html-keyboard-response","154","231613","0.0-15.0-0.1-0.7","jgjwzln12u","","jgjwzln12u","""2024-11-13T00:17:55.986Z""","null","+","null","","","","","","",""
"","","","","","image-keyboard-response","155","232535","0.0-15.0-0.1-1.7","jgjwzln12u","","jgjwzln12u","""2024-11-13T00:17:55.986Z""","920","materials/imgs/D17.png","arrowright","","[""materials/imgs/D92.png"",""materials/imgs/D76.png""]","false","random","","",""
"","","","","","html-keyboard-response","156","233036","0.0-15.0-0.1-0.8","jgjwzln12u","","jgjwzln12u","""2024-11-13T00:17:55.986Z""","null","+","null","","","","","","",""
"","","","","","image-keyboard-response","157","234532","0.0-15.0-0.1-1.8","jgjwzln12u","","jgjwzln12u","""2024-11-13T00:17:55.986Z""","1495","materials/imgs/D66.png","arrowright","","[""materials/imgs/D25.png"",""materials/imgs/D16.png""]","false","random","","",""
"","","","","","html-keyboard-response","158","235034","0.0-15.0-0.1-0.9","jgjwzln12u","","jgjwzln12u","""2024-11-13T00:17:55.986Z""","null","+","null","","","","","","",""
"","","","","","image-keyboard-response","159","236163","0.0-15.0-0.1-1.9","jgjwzln12u","","jgjwzln12u","""2024-11-13T00:17:55.986Z""","1127","materials/imgs/D94.png","arrowright","","[""materials/imgs/D57.png"",""materials/imgs/D34.png""]","false","random","","",""
"","","","","","html-keyboard-response","160","236665","0.0-15.0-0.1-0.10","jgjwzln12u","","jgjwzln12u","""2024-11-13T00:17:55.986Z""","null","+","null","","","","","","",""
"","","","","","image-keyboard-response","161","237990","0.0-15.0-0.1-1.10","jgjwzln12u","","jgjwzln12u","""2024-11-13T00:17:55.986Z""","1323","materials/imgs/D80.png","arrowright","","[""materials/imgs/D66.png"",""materials/imgs/D64.png""]","false","random","","",""
"","","","","","html-keyboard-response","162","238491","0.0-15.0-0.1-0.11","jgjwzln12u","","jgjwzln12u","""2024-11-13T00:17:55.986Z""","null","+","null","","","","","","",""
"","","","","","image-keyboard-response","163","240152","0.0-15.0-0.1-1.11","jgjwzln12u","","jgjwzln12u","""2024-11-13T00:17:55.986Z""","1659","materials/imgs/D65.png","arrowleft","","[""materials/imgs/D96.png"",""materials/imgs/D3.png""]","false","random","","",""
"","","","","","html-keyboard-response","164","240653","0.0-15.0-0.1-0.12","jgjwzln12u","","jgjwzln12u","""2024-11-13T00:17:55.986Z""","null","+","null","","","","","","",""
"","","","","","image-keyboard-response","165","242194","0.0-15.0-0.1-1.12","jgjwzln12u","","jgjwzln12u","""2024-11-13T00:17:55.986Z""","1539","materials/imgs/D53.png","arrowleft","","[""materials/imgs/D18.png"",""materials/imgs/D48.png""]","false","random","","",""
"","","","","","html-keyboard-response","166","242695","0.0-15.0-0.1-0.13","jgjwzln12u","","jgjwzln12u","""2024-11-13T00:17:55.986Z""","null","+","null","","","","","","",""
"","","","","","image-keyboard-response","167","251251","0.0-15.0-0.1-1.13","jgjwzln12u","","jgjwzln12u","""2024-11-13T00:17:55.986Z""","8554","materials/imgs/D68.png","arrowright","","[""materials/imgs/D52.png"",""materials/imgs/D95.png""]","false","random","","",""
"","","","","","html-keyboard-response","168","251752","0.0-15.0-1.1-0.1","jgjwzln12u","","jgjwzln12u","""2024-11-13T00:17:55.986Z""","null","+","null","","","","","","",""
"","","","","","image-keyboard-response","169","252307","0.0-15.0-1.1-1.1","jgjwzln12u","","jgjwzln12u","""2024-11-13T00:17:55.986Z""","553","materials/imgs/D26.png","arrowleft","","[""materials/imgs/D26.png"",""materials/imgs/D46.png""]","","check","materials/imgs/D26.png","0","true"
"","","","","","html-keyboard-response","170","252808","0.0-15.0-2.1-0.2","jgjwzln12u","","jgjwzln12u","""2024-11-13T00:17:55.986Z""","null","+","null","","","","","","",""
"","","","","","image-keyboard-response","171","255183","0.0-15.0-2.1-1.2","jgjwzln12u","","jgjwzln12u","""2024-11-13T00:17:55.986Z""","2373","materials/imgs/D48.png","arrowleft","","[""materials/imgs/D4.png"",""materials/imgs/D37.png""]","false","validation","","",""
"","","","","","html-keyboard-response","172","255684","0.0-15.0-2.1-0.3","jgjwzln12u","","jgjwzln12u","""2024-11-13T00:17:55.986Z""","null","+","null","","","","","","",""
"","","","","","image-keyboard-response","173","256256","0.0-15.0-2.1-1.3","jgjwzln12u","","jgjwzln12u","""2024-11-13T00:17:55.986Z""","571","materials/imgs/D9.png","arrowright","","[""materials/imgs/D103.png"",""materials/imgs/D4.png""]","false","validation","","",""
"","","","","","html-keyboard-response","174","256758","0.0-15.0-0.2-0.14","jgjwzln12u","","jgjwzln12u","""2024-11-13T00:17:55.986Z""","null","+","null","","","","","","",""
"","","","","","image-keyboard-response","175","257404","0.0-15.0-0.2-1.14","jgjwzln12u","","jgjwzln12u","""2024-11-13T00:17:55.986Z""","644","materials/imgs/D87.png","arrowleft","","[""materials/imgs/D81.png"",""materials/imgs/D48.png""]","false","random","","",""
"","","","","","html-keyboard-response","176","257905","0.0-15.0-0.2-0.15","jgjwzln12u","","jgjwzln12u","""2024-11-13T00:17:55.986Z""","null","+","null","","","","","","",""
"","","","","","image-keyboard-response","177","258998","0.0-15.0-0.2-1.15","jgjwzln12u","","jgjwzln12u","""2024-11-13T00:17:55.986Z""","1091","materials/imgs/D96.png","arrowleft","","[""materials/imgs/D47.png"",""materials/imgs/D8.png""]","false","random","","",""
"","","","","","html-keyboard-response","178","259499","0.0-15.0-0.2-0.16","jgjwzln12u","","jgjwzln12u","""2024-11-13T00:17:55.986Z""","null","+","null","","","","","","",""
"","","","","","image-keyboard-response","179","260463","0.0-15.0-0.2-1.16","jgjwzln12u","","jgjwzln12u","""2024-11-13T00:17:55.986Z""","963","materials/imgs/D14.png","arrowright","","[""materials/imgs/D48.png"",""materials/imgs/D51.png""]","false","random","","",""
"","","","","","html-keyboard-response","180","260965","0.0-15.0-0.2-0.17","jgjwzln12u","","jgjwzln12u","""2024-11-13T00:17:55.986Z""","null","+","null","","","","","","",""
"","","","","","image-keyboard-response","181","261929","0.0-15.0-0.2-1.17","jgjwzln12u","","jgjwzln12u","""2024-11-13T00:17:55.986Z""","963","materials/imgs/D102.png","arrowright","","[""materials/imgs/D85.png"",""materials/imgs/D34.png""]","false","random","","",""
"","","","","","html-keyboard-response","182","262430","0.0-15.0-0.2-0.18","jgjwzln12u","","jgjwzln12u","""2024-11-13T00:17:55.986Z""","null","+","null","","","","","","",""
"","","","","","image-keyboard-response","183","263326","0.0-15.0-0.2-1.18","jgjwzln12u","","jgjwzln12u","""2024-11-13T00:17:55.986Z""","894","materials/imgs/D77.png","arrowleft","","[""materials/imgs/D83.png"",""materials/imgs/D25.png""]","false","random","","",""
"","","","","","html-keyboard-response","184","263827","0.0-15.0-0.2-0.19","jgjwzln12u","","jgjwzln12u","""2024-11-13T00:17:55.986Z""","null","+","null","","","","","","",""
"","","","","","image-keyboard-response","185","265074","0.0-15.0-0.2-1.19","jgjwzln12u","","jgjwzln12u","""2024-11-13T00:17:55.986Z""","1246","materials/imgs/D48.png","arrowright","","[""materials/imgs/D17.png"",""materials/imgs/D29.png""]","false","random","","",""
"","","","","","html-keyboard-response","186","265576","0.0-15.0-0.2-0.20","jgjwzln12u","","jgjwzln12u","""2024-11-13T00:17:55.986Z""","null","+","null","","","","","","",""
"","","","","","image-keyboard-response","187","267591","0.0-15.0-0.2-1.20","jgjwzln12u","","jgjwzln12u","""2024-11-13T00:17:55.986Z""","2013","materials/imgs/D34.png","arrowright","","[""materials/imgs/D66.png"",""materials/imgs/D111.png""]","false","random","","",""
"","","","","","html-keyboard-response","188","268092","0.0-15.0-1.2-0.2","jgjwzln12u","","jgjwzln12u","""2024-11-13T00:17:55.986Z""","null","+","null","","","","","","",""
"","","","","","image-keyboard-response","189","268728","0.0-15.0-1.2-1.2","jgjwzln12u","","jgjwzln12u","""2024-11-13T00:17:55.986Z""","634","materials/imgs/D8.png","arrowright","","[""materials/imgs/D18.png"",""materials/imgs/D8.png""]","","check","materials/imgs/D8.png","1","true"
"","","","","","html-keyboard-response","190","269229","0.0-15.0-2.2-0.4","jgjwzln12u","","jgjwzln12u","""2024-11-13T00:17:55.986Z""","null","+","null","","","","","","",""
"","","","","","image-keyboard-response","191","269748","0.0-15.0-2.2-1.4","jgjwzln12u","","jgjwzln12u","""2024-11-13T00:17:55.986Z""","517","materials/imgs/D57.png","arrowright","","[""materials/imgs/D111.png"",""materials/imgs/D4.png""]","false","validation","","",""
"","","","","","html-keyboard-response","192","270249","0.0-15.0-2.2-0.5","jgjwzln12u","","jgjwzln12u","""2024-11-13T00:17:55.986Z""","null","+","null","","","","","","",""
"","","","","","image-keyboard-response","193","271825","0.0-15.0-2.2-1.5","jgjwzln12u","","jgjwzln12u","""2024-11-13T00:17:55.986Z""","1575","materials/imgs/D47.png","arrowleft","","[""materials/imgs/D1.png"",""materials/imgs/D52.png""]","false","validation","","",""
"","","","","","html-keyboard-response","194","272327","0.0-15.0-0.3-0.21","jgjwzln12u","","jgjwzln12u","""2024-11-13T00:17:55.986Z""","null","+","null","","","","","","",""
"","","","","","image-keyboard-response","195","273317","0.0-15.0-0.3-1.21","jgjwzln12u","","jgjwzln12u","""2024-11-13T00:17:55.986Z""","988","materials/imgs/D75.png","arrowright","","[""materials/imgs/D16.png"",""materials/imgs/D104.png""]","false","random","","",""
"","","","","","html-keyboard-response","196","273819","0.0-15.0-0.3-0.22","jgjwzln12u","","jgjwzln12u","""2024-11-13T00:17:55.986Z""","null","+","null","","","","","","",""
"","","","","","image-keyboard-response","197","275130","0.0-15.0-0.3-1.22","jgjwzln12u","","jgjwzln12u","""2024-11-13T00:17:55.986Z""","1309","materials/imgs/D1.png","arrowright","","[""materials/imgs/D79.png"",""materials/imgs/D105.png""]","false","random","","",""
"","","","","","html-keyboard-response","198","275632","0.0-15.0-0.3-0.23","jgjwzln12u","","jgjwzln12u","""2024-11-13T00:17:55.986Z""","null","+","null","","","","","","",""
"","","","","","image-keyboard-response","199","276470","0.0-15.0-0.3-1.23","jgjwzln12u","","jgjwzln12u","""2024-11-13T00:17:55.986Z""","837","materials/imgs/D66.png","arrowleft","","[""materials/imgs/D37.png"",""materials/imgs/D53.png""]","false","random","","",""
"","","","","","html-keyboard-response","200","276972","0.0-15.0-0.3-0.24","jgjwzln12u","","jgjwzln12u","""2024-11-13T00:17:55.986Z""","null","+","null","","","","","","",""
"","","","","","image-keyboard-response","201","278521","0.0-15.0-0.3-1.24","jgjwzln12u","","jgjwzln12u","""2024-11-13T00:17:55.986Z""","1547","materials/imgs/D57.png","arrowright","","[""materials/imgs/D47.png"",""materials/imgs/D85.png""]","false","random","","",""
"","","","","","html-keyboard-response","202","279022","0.0-15.0-0.3-0.25","jgjwzln12u","","jgjwzln12u","""2024-11-13T00:17:55.986Z""","null","+","null","","","","","","",""
"","","","","","image-keyboard-response","203","279854","0.0-15.0-0.3-1.25","jgjwzln12u","","jgjwzln12u","""2024-11-13T00:17:55.986Z""","830","materials/imgs/D32.png","arrowleft","","[""materials/imgs/D21.png"",""materials/imgs/D74.png""]","false","random","","",""
"","","","","","html-keyboard-response","204","280355","0.0-15.0-0.3-0.26","jgjwzln12u","","jgjwzln12u","""2024-11-13T00:17:55.986Z""","null","+","null","","","","","","",""
"","","","","","image-keyboard-response","205","282062","0.0-15.0-0.3-1.26","jgjwzln12u","","jgjwzln12u","""2024-11-13T00:17:55.986Z""","1705","materials/imgs/D74.png","arrowright","","[""materials/imgs/D55.png"",""materials/imgs/D34.png""]","false","random","","",""
"","","","","","html-keyboard-response","206","282563","0.0-15.0-0.3-0.27","jgjwzln12u","","jgjwzln12u","""2024-11-13T00:17:55.986Z""","null","+","null","","","","","","",""
"","","","","","image-keyboard-response","207","283203","0.0-15.0-0.3-1.27","jgjwzln12u","","jgjwzln12u","""2024-11-13T00:17:55.986Z""","638","materials/imgs/D52.png","arrowleft","","[""materials/imgs/D84.png"",""materials/imgs/D9.png""]","false","random","","",""
"","","","","","html-keyboard-response","208","283704","0.0-15.0-1.3-0.3","jgjwzln12u","","jgjwzln12u","""2024-11-13T00:17:55.986Z""","null","+","null","","","","","","",""
"","","","","","image-keyboard-response","209","284201","0.0-15.0-1.3-1.3","jgjwzln12u","","jgjwzln12u","""2024-11-13T00:17:55.986Z""","495","materials/imgs/D18.png","arrowright","","[""materials/imgs/D8.png"",""materials/imgs/D18.png""]","","check","materials/imgs/D18.png","1","true"
"","","","","","html-keyboard-response","210","284703","0.0-15.0-2.3-0.6","jgjwzln12u","","jgjwzln12u","""2024-11-13T00:17:55.986Z""","null","+","null","","","","","","",""
"","","","","","image-keyboard-response","211","285240","0.0-15.0-2.3-1.6","jgjwzln12u","","jgjwzln12u","""2024-11-13T00:17:55.986Z""","536","materials/imgs/D81.png","arrowright","","[""materials/imgs/D105.png"",""materials/imgs/D24.png""]","false","validation","","",""
"","","","","","html-keyboard-response","212","285742","0.0-15.0-2.3-0.7","jgjwzln12u","","jgjwzln12u","""2024-11-13T00:17:55.986Z""","null","+","null","","","","","","",""
"","","","","","image-keyboard-response","213","286509","0.0-15.0-2.3-1.7","jgjwzln12u","","jgjwzln12u","""2024-11-13T00:17:55.986Z""","766","materials/imgs/D92.png","arrowright","","[""materials/imgs/D56.png"",""materials/imgs/D77.png""]","false","validation","","",""
"","","","","","html-keyboard-response","214","287011","0.0-15.0-0.4-0.28","jgjwzln12u","","jgjwzln12u","""2024-11-13T00:17:55.986Z""","null","+","null","","","","","","",""
"","","","","","image-keyboard-response","215","288138","0.0-15.0-0.4-1.28","jgjwzln12u","","jgjwzln12u","""2024-11-13T00:17:55.986Z""","1126","materials/imgs/D26.png","arrowright","","[""materials/imgs/D24.png"",""materials/imgs/D51.png""]","false","random","","",""
"","","","","","html-keyboard-response","216","288640","0.0-15.0-0.4-0.29","jgjwzln12u","","jgjwzln12u","""2024-11-13T00:17:55.986Z""","null","+","null","","","","","","",""
"","","","","","image-keyboard-response","217","289213","0.0-15.0-0.4-1.29","jgjwzln12u","","jgjwzln12u","""2024-11-13T00:17:55.986Z""","571","materials/imgs/D77.png","arrowright","","[""materials/imgs/D37.png"",""materials/imgs/D53.png""]","false","random","","",""
"","","","","","html-keyboard-response","218","289714","0.0-15.0-0.4-0.30","jgjwzln12u","","jgjwzln12u","""2024-11-13T00:17:55.986Z""","null","+","null","","","","","","",""
"","","","","","image-keyboard-response","219","290798","0.0-15.0-0.4-1.30","jgjwzln12u","","jgjwzln12u","""2024-11-13T00:17:55.986Z""","1082","materials/imgs/D32.png","arrowright","","[""materials/imgs/D75.png"",""materials/imgs/D74.png""]","false","random","","",""
"","","","","","html-keyboard-response","220","291299","0.0-15.0-0.4-0.31","jgjwzln12u","","jgjwzln12u","""2024-11-13T00:17:55.986Z""","null","+","null","","","","","","",""
"","","","","","image-keyboard-response","221","291977","0.0-15.0-0.4-1.31","jgjwzln12u","","jgjwzln12u","""2024-11-13T00:17:55.986Z""","676","materials/imgs/D65.png","arrowleft","","[""materials/imgs/D18.png"",""materials/imgs/D55.png""]","false","random","","",""
"","","","","","html-keyboard-response","222","292479","0.0-15.0-0.4-0.32","jgjwzln12u","","jgjwzln12u","""2024-11-13T00:17:55.986Z""","null","+","null","","","","","","",""
"","","","","","image-keyboard-response","223","293373","0.0-15.0-0.4-1.32","jgjwzln12u","","jgjwzln12u","""2024-11-13T00:17:55.986Z""","893","materials/imgs/D37.png","arrowleft","","[""materials/imgs/D75.png"",""materials/imgs/D36.png""]","false","random","","",""
"","","","","","html-keyboard-response","224","293874","0.0-15.0-0.4-0.33","jgjwzln12u","","jgjwzln12u","""2024-11-13T00:17:55.986Z""","null","+","null","","","","","","",""
"","","","","","image-keyboard-response","225","295514","0.0-15.0-0.4-1.33","jgjwzln12u","","jgjwzln12u","""2024-11-13T00:17:55.986Z""","1638","materials/imgs/D75.png","arrowleft","","[""materials/imgs/D51.png"",""materials/imgs/D101.png""]","false","random","","",""
"","","","","","html-keyboard-response","226","296016","0.0-15.0-0.4-0.34","jgjwzln12u","","jgjwzln12u","""2024-11-13T00:17:55.986Z""","null","+","null","","","","","","",""
"","","","","","image-keyboard-response","227","297103","0.0-15.0-0.4-1.34","jgjwzln12u","","jgjwzln12u","""2024-11-13T00:17:55.986Z""","1086","materials/imgs/D106.png","arrowright","","[""materials/imgs/D8.png"",""materials/imgs/D11.png""]","false","random","","",""
"","","","","","html-keyboard-response","228","297604","0.0-15.0-1.4-0.4","jgjwzln12u","","jgjwzln12u","""2024-11-13T00:17:55.986Z""","null","+","null","","","","","","",""
"","","","","","image-keyboard-response","229","298123","0.0-15.0-1.4-1.4","jgjwzln12u","","jgjwzln12u","""2024-11-13T00:17:55.986Z""","518","materials/imgs/D26.png","arrowleft","","[""materials/imgs/D26.png"",""materials/imgs/D46.png""]","","check","materials/imgs/D26.png","0","true"
"","","","","","html-keyboard-response","230","298625","0.0-15.0-2.4-0.8","jgjwzln12u","","jgjwzln12u","""2024-11-13T00:17:55.986Z""","null","+","null","","","","","","",""
"","","","","","image-keyboard-response","231","299751","0.0-15.0-2.4-1.8","jgjwzln12u","","jgjwzln12u","""2024-11-13T00:17:55.986Z""","1124","materials/imgs/D101.png","arrowright","","[""materials/imgs/D76.png"",""materials/imgs/D47.png""]","false","validation","","",""
"","","","","","html-keyboard-response","232","300252","0.0-15.0-2.4-0.9","jgjwzln12u","","jgjwzln12u","""2024-11-13T00:17:55.986Z""","null","+","null","","","","","","",""
"","","","","","image-keyboard-response","233","302172","0.0-15.0-2.4-1.9","jgjwzln12u","","jgjwzln12u","""2024-11-13T00:17:55.986Z""","1917","materials/imgs/D36.png","arrowright","","[""materials/imgs/D47.png"",""materials/imgs/D49.png""]","false","validation","","",""
"","","","","","html-button-response","234","304846","0.0-16.0","jgjwzln12u","","jgjwzln12u","""2024-11-13T00:17:55.986Z""","2673","You have completed 50% of the trials. Please click 'Continue' when you are ready proceed.","0","","","","","","",""
"","","","","","html-keyboard-response","235","305346","0.0-17.0-0.0-0.0","jgjwzln12u","","jgjwzln12u","""2024-11-13T00:17:55.986Z""","null","+","null","","","","","","",""
"","","","","","image-keyboard-response","236","306217","0.0-17.0-0.0-1.0","jgjwzln12u","","jgjwzln12u","""2024-11-13T00:17:55.986Z""","868","materials/imgs/D34.png","arrowleft","","[""materials/imgs/D64.png"",""materials/imgs/D25.png""]","false","random","","",""
"","","","","","html-keyboard-response","237","306718","0.0-17.0-0.0-0.1","jgjwzln12u","","jgjwzln12u","""2024-11-13T00:17:55.986Z""","null","+","null","","","","","","",""
"","","","","","image-keyboard-response","238","308062","0.0-17.0-0.0-1.1","jgjwzln12u","","jgjwzln12u","""2024-11-13T00:17:55.986Z""","1343","materials/imgs/D9.png","arrowleft","","[""materials/imgs/D22.png"",""materials/imgs/D20.png""]","false","random","","",""
"","","","","","html-keyboard-response","239","308563","0.0-17.0-0.0-0.2","jgjwzln12u","","jgjwzln12u","""2024-11-13T00:17:55.986Z""","null","+","null","","","","","","",""
"","","","","","image-keyboard-response","240","310029","0.0-17.0-0.0-1.2","jgjwzln12u","","jgjwzln12u","""2024-11-13T00:17:55.986Z""","1464","materials/imgs/D48.png","arrowright","","[""materials/imgs/D106.png"",""materials/imgs/D76.png""]","false","random","","",""
"","","","","","html-keyboard-response","241","310530","0.0-17.0-0.0-0.3","jgjwzln12u","","jgjwzln12u","""2024-11-13T00:17:55.986Z""","null","+","null","","","","","","",""
"","","","","","image-keyboard-response","242","311874","0.0-17.0-0.0-1.3","jgjwzln12u","","jgjwzln12u","""2024-11-13T00:17:55.986Z""","1342","materials/imgs/D37.png","arrowright","","[""materials/imgs/D82.png"",""materials/imgs/D47.png""]","false","random","","",""
"","","","","","html-keyboard-response","243","312375","0.0-17.0-0.0-0.4","jgjwzln12u","","jgjwzln12u","""2024-11-13T00:17:55.986Z""","null","+","null","","","","","","",""
"","","","","","image-keyboard-response","244","313261","0.0-17.0-0.0-1.4","jgjwzln12u","","jgjwzln12u","""2024-11-13T00:17:55.986Z""","884","materials/imgs/D66.png","arrowright","","[""materials/imgs/D29.png"",""materials/imgs/D92.png""]","false","random","","",""
"","","","","","html-keyboard-response","245","313762","0.0-17.0-0.0-0.5","jgjwzln12u","","jgjwzln12u","""2024-11-13T00:17:55.986Z""","null","+","null","","","","","","",""
"","","","","","image-keyboard-response","246","314615","0.0-17.0-0.0-1.5","jgjwzln12u","","jgjwzln12u","""2024-11-13T00:17:55.986Z""","850","materials/imgs/D101.png","arrowright","","[""materials/imgs/D84.png"",""materials/imgs/D102.png""]","false","random","","",""
"","","","","","html-keyboard-response","247","315116","0.0-17.0-0.0-0.6","jgjwzln12u","","jgjwzln12u","""2024-11-13T00:17:55.986Z""","null","+","null","","","","","","",""
"","","","","","image-keyboard-response","248","316615","0.0-17.0-0.0-1.6","jgjwzln12u","","jgjwzln12u","""2024-11-13T00:17:55.986Z""","1497","materials/imgs/D22.png","arrowleft","","[""materials/imgs/D103.png"",""materials/imgs/D77.png""]","false","random","","",""
"","","","","","html-keyboard-response","249","317117","0.0-17.0-1.0-0.0","jgjwzln12u","","jgjwzln12u","""2024-11-13T00:17:55.986Z""","null","+","null","","","","","","",""
"","","","","","image-keyboard-response","250","317852","0.0-17.0-1.0-1.0","jgjwzln12u","","jgjwzln12u","""2024-11-13T00:17:55.986Z""","734","materials/imgs/D76.png","arrowleft","","[""materials/imgs/D76.png"",""materials/imgs/D78.png""]","","check","materials/imgs/D76.png","0","true"
"","","","","","html-keyboard-response","251","318354","0.0-17.0-2.0-0.0","jgjwzln12u","","jgjwzln12u","""2024-11-13T00:17:55.986Z""","null","+","null","","","","","","",""
"","","","","","image-keyboard-response","252","320538","0.0-17.0-2.0-1.0","jgjwzln12u","","jgjwzln12u","""2024-11-13T00:17:55.986Z""","2182","materials/imgs/D16.png","arrowleft","","[""materials/imgs/D52.png"",""materials/imgs/D25.png""]","false","validation","","",""
"","","","","","html-keyboard-response","253","321040","0.0-17.0-2.0-0.1","jgjwzln12u","","jgjwzln12u","""2024-11-13T00:17:55.986Z""","null","+","null","","","","","","",""
"","","","","","image-keyboard-response","254","322197","0.0-17.0-2.0-1.1","jgjwzln12u","","jgjwzln12u","""2024-11-13T00:17:55.986Z""","1156","materials/imgs/D81.png","arrowright","","[""materials/imgs/D105.png"",""materials/imgs/D24.png""]","false","validation","","",""
"","","","","","html-keyboard-response","255","322698","0.0-17.0-0.1-0.7","jgjwzln12u","","jgjwzln12u","""2024-11-13T00:17:55.986Z""","null","+","null","","","","","","",""
"","","","","","image-keyboard-response","256","323603","0.0-17.0-0.1-1.7","jgjwzln12u","","jgjwzln12u","""2024-11-13T00:17:55.986Z""","903","materials/imgs/D68.png","arrowright","","[""materials/imgs/D16.png"",""materials/imgs/D9.png""]","false","random","","",""
"","","","","","html-keyboard-response","257","324105","0.0-17.0-0.1-0.8","jgjwzln12u","","jgjwzln12u","""2024-11-13T00:17:55.986Z""","null","+","null","","","","","","",""
"","","","","","image-keyboard-response","258","325688","0.0-17.0-0.1-1.8","jgjwzln12u","","jgjwzln12u","""2024-11-13T00:17:55.986Z""","1581","materials/imgs/D34.png","arrowleft","","[""materials/imgs/D80.png"",""materials/imgs/D37.png""]","false","random","","",""
"","","","","","html-keyboard-response","259","326189","0.0-17.0-0.1-0.9","jgjwzln12u","","jgjwzln12u","""2024-11-13T00:17:55.986Z""","null","+","null","","","","","","",""
"","","","","","image-keyboard-response","260","327869","0.0-17.0-0.1-1.9","jgjwzln12u","","jgjwzln12u","""2024-11-13T00:17:55.986Z""","1678","materials/imgs/D47.png","arrowleft","","[""materials/imgs/D46.png"",""materials/imgs/D57.png""]","false","random","","",""
"","","","","","html-keyboard-response","261","328370","0.0-17.0-0.1-0.10","jgjwzln12u","","jgjwzln12u","""2024-11-13T00:17:55.986Z""","null","+","null","","","","","","",""
"","","","","","image-keyboard-response","262","329573","0.0-17.0-0.1-1.10","jgjwzln12u","","jgjwzln12u","""2024-11-13T00:17:55.986Z""","1201","materials/imgs/D51.png","arrowright","","[""materials/imgs/D9.png"",""materials/imgs/D101.png""]","false","random","","",""
"","","","","","html-keyboard-response","263","330075","0.0-17.0-0.1-0.11","jgjwzln12u","","jgjwzln12u","""2024-11-13T00:17:55.986Z""","null","+","null","","","","","","",""
"","","","","","image-keyboard-response","264","331463","0.0-17.0-0.1-1.11","jgjwzln12u","","jgjwzln12u","""2024-11-13T00:17:55.986Z""","1386","materials/imgs/D48.png","arrowleft","","[""materials/imgs/D14.png"",""materials/imgs/D21.png""]","false","random","","",""
"","","","","","html-keyboard-response","265","331965","0.0-17.0-0.1-0.12","jgjwzln12u","","jgjwzln12u","""2024-11-13T00:17:55.986Z""","null","+","null","","","","","","",""
"","","","","","image-keyboard-response","266","332548","0.0-17.0-0.1-1.12","jgjwzln12u","","jgjwzln12u","""2024-11-13T00:17:55.986Z""","582","materials/imgs/D36.png","arrowleft","","[""materials/imgs/D57.png"",""materials/imgs/D101.png""]","false","random","","",""
"","","","","","html-keyboard-response","267","333050","0.0-17.0-0.1-0.13","jgjwzln12u","","jgjwzln12u","""2024-11-13T00:17:55.986Z""","null","+","null","","","","","","",""
"","","","","","image-keyboard-response","268","334121","0.0-17.0-0.1-1.13","jgjwzln12u","","jgjwzln12u","""2024-11-13T00:17:55.986Z""","1069","materials/imgs/D104.png","arrowleft","","[""materials/imgs/D87.png"",""materials/imgs/D47.png""]","false","random","","",""
"","","","","","html-keyboard-response","269","334623","0.0-17.0-1.1-0.1","jgjwzln12u","","jgjwzln12u","""2024-11-13T00:17:55.986Z""","null","+","null","","","","","","",""
"","","","","","image-keyboard-response","270","335143","0.0-17.0-1.1-1.1","jgjwzln12u","","jgjwzln12u","""2024-11-13T00:17:55.986Z""","519","materials/imgs/D106.png","arrowleft","","[""materials/imgs/D106.png"",""materials/imgs/D101.png""]","","check","materials/imgs/D106.png","0","true"
"","","","","","html-keyboard-response","271","335644","0.0-17.0-2.1-0.2","jgjwzln12u","","jgjwzln12u","""2024-11-13T00:17:55.986Z""","null","+","null","","","","","","",""
"","","","","","image-keyboard-response","272","336475","0.0-17.0-2.1-1.2","jgjwzln12u","","jgjwzln12u","""2024-11-13T00:17:55.986Z""","829","materials/imgs/D65.png","arrowleft","","[""materials/imgs/D4.png"",""materials/imgs/D16.png""]","false","validation","","",""
"","","","","","html-keyboard-response","273","336977","0.0-17.0-2.1-0.3","jgjwzln12u","","jgjwzln12u","""2024-11-13T00:17:55.986Z""","null","+","null","","","","","","",""
"","","","","","image-keyboard-response","274","338767","0.0-17.0-2.1-1.3","jgjwzln12u","","jgjwzln12u","""2024-11-13T00:17:55.986Z""","1789","materials/imgs/D6.png","arrowright","","[""materials/imgs/D26.png"",""materials/imgs/D76.png""]","false","validation","","",""
"","","","","","html-keyboard-response","275","339268","0.0-17.0-0.2-0.14","jgjwzln12u","","jgjwzln12u","""2024-11-13T00:17:55.986Z""","null","+","null","","","","","","",""
"","","","","","image-keyboard-response","276","345353","0.0-17.0-0.2-1.14","jgjwzln12u","","jgjwzln12u","""2024-11-13T00:17:55.986Z""","6083","materials/imgs/D111.png","arrowright","","[""materials/imgs/D20.png"",""materials/imgs/D80.png""]","false","random","","",""
"","","","","","html-keyboard-response","277","345854","0.0-17.0-0.2-0.15","jgjwzln12u","","jgjwzln12u","""2024-11-13T00:17:55.986Z""","null","+","null","","","","","","",""
"","","","","","image-keyboard-response","278","346442","0.0-17.0-0.2-1.15","jgjwzln12u","","jgjwzln12u","""2024-11-13T00:17:55.986Z""","586","materials/imgs/D79.png","arrowleft","","[""materials/imgs/D14.png"",""materials/imgs/D66.png""]","false","random","","",""
"","","","","","html-keyboard-response","279","346943","0.0-17.0-0.2-0.16","jgjwzln12u","","jgjwzln12u","""2024-11-13T00:17:55.986Z""","null","+","null","","","","","","",""
"","","","","","image-keyboard-response","280","348660","0.0-17.0-0.2-1.16","jgjwzln12u","","jgjwzln12u","""2024-11-13T00:17:55.986Z""","1715","materials/imgs/D20.png","arrowright","","[""materials/imgs/D94.png"",""materials/imgs/D24.png""]","false","random","","",""
"","","","","","html-keyboard-response","281","349162","0.0-17.0-0.2-0.17","jgjwzln12u","","jgjwzln12u","""2024-11-13T00:17:55.986Z""","null","+","null","","","","","","",""
"","","","","","image-keyboard-response","282","352206","0.0-17.0-0.2-1.17","jgjwzln12u","","jgjwzln12u","""2024-11-13T00:17:55.986Z""","3042","materials/imgs/D37.png","arrowright","","[""materials/imgs/D75.png"",""materials/imgs/D81.png""]","false","random","","",""
"","","","","","html-keyboard-response","283","352708","0.0-17.0-0.2-0.18","jgjwzln12u","","jgjwzln12u","""2024-11-13T00:17:55.986Z""","null","+","null","","","","","","",""
"","","","","","image-keyboard-response","284","355869","0.0-17.0-0.2-1.18","jgjwzln12u","","jgjwzln12u","""2024-11-13T00:17:55.986Z""","3159","materials/imgs/D34.png","arrowleft","","[""materials/imgs/D78.png"",""materials/imgs/D49.png""]","false","random","","",""
"","","","","","html-keyboard-response","285","356371","0.0-17.0-0.2-0.19","jgjwzln12u","","jgjwzln12u","""2024-11-13T00:17:55.986Z""","null","+","null","","","","","","",""
"","","","","","image-keyboard-response","286","357014","0.0-17.0-0.2-1.19","jgjwzln12u","","jgjwzln12u","""2024-11-13T00:17:55.986Z""","641","materials/imgs/D29.png","arrowright","","[""materials/imgs/D111.png"",""materials/imgs/D32.png""]","false","random","","",""
"","","","","","html-keyboard-response","287","357515","0.0-17.0-0.2-0.20","jgjwzln12u","","jgjwzln12u","""2024-11-13T00:17:55.986Z""","null","+","null","","","","","","",""
"","","","","","image-keyboard-response","288","357983","0.0-17.0-0.2-1.20","jgjwzln12u","","jgjwzln12u","""2024-11-13T00:17:55.986Z""","465","materials/imgs/D9.png","arrowright","","[""materials/imgs/D36.png"",""materials/imgs/D29.png""]","true","random","","",""
"","","","","","html-keyboard-response","289","359881","0.0-17.0-0.2-2.20-0.20","jgjwzln12u","","jgjwzln12u","""2024-11-13T00:17:55.986Z""","1898","<p><strong>You're going too fast.</strong><p>Please slow down and assess each triplet.<p>Press 'y' to continue.</p></p>","y","","","","","","",""
"","","","","","html-keyboard-response","290","360382","0.0-17.0-1.2-0.2","jgjwzln12u","","jgjwzln12u","""2024-11-13T00:17:55.986Z""","null","+","null","","","","","","",""
"","","","","","image-keyboard-response","291","360953","0.0-17.0-1.2-1.2","jgjwzln12u","","jgjwzln12u","""2024-11-13T00:17:55.986Z""","569","materials/imgs/D8.png","arrowright","","[""materials/imgs/D18.png"",""materials/imgs/D8.png""]","","check","materials/imgs/D8.png","1","true"
"","","","","","html-keyboard-response","292","361454","0.0-17.0-2.2-0.4","jgjwzln12u","","jgjwzln12u","""2024-11-13T00:17:55.986Z""","null","+","null","","","","","","",""
"","","","","","image-keyboard-response","293","362928","0.0-17.0-2.2-1.4","jgjwzln12u","","jgjwzln12u","""2024-11-13T00:17:55.986Z""","1472","materials/imgs/D26.png","arrowright","","[""materials/imgs/D36.png"",""materials/imgs/D92.png""]","false","validation","","",""
"","","","","","html-keyboard-response","294","363430","0.0-17.0-2.2-0.5","jgjwzln12u","","jgjwzln12u","""2024-11-13T00:17:55.986Z""","null","+","null","","","","","","",""
"","","","","","image-keyboard-response","295","364369","0.0-17.0-2.2-1.5","jgjwzln12u","","jgjwzln12u","""2024-11-13T00:17:55.986Z""","938","materials/imgs/D20.png","arrowleft","","[""materials/imgs/D84.png"",""materials/imgs/D85.png""]","false","validation","","",""
"","","","","","html-keyboard-response","296","364870","0.0-17.0-0.3-0.21","jgjwzln12u","","jgjwzln12u","""2024-11-13T00:17:55.986Z""","null","+","null","","","","","","",""
"","","","","","image-keyboard-response","297","366605","0.0-17.0-0.3-1.21","jgjwzln12u","","jgjwzln12u","""2024-11-13T00:17:55.986Z""","1733","materials/imgs/D4.png","arrowleft","","[""materials/imgs/D76.png"",""materials/imgs/D101.png""]","false","random","","",""
"","","","","","html-keyboard-response","298","367106","0.0-17.0-0.3-0.22","jgjwzln12u","","jgjwzln12u","""2024-11-13T00:17:55.986Z""","null","+","null","","","","","","",""
"","","","","","image-keyboard-response","299","367987","0.0-17.0-0.3-1.22","jgjwzln12u","","jgjwzln12u","""2024-11-13T00:17:55.986Z""","879","materials/imgs/D74.png","arrowleft","","[""materials/imgs/D56.png"",""materials/imgs/D47.png""]","false","random","","",""
"","","","","","html-keyboard-response","300","368489","0.0-17.0-0.3-0.23","jgjwzln12u","","jgjwzln12u","""2024-11-13T00:17:55.986Z""","null","+","null","","","","","","",""
"","","","","","image-keyboard-response","301","370187","0.0-17.0-0.3-1.23","jgjwzln12u","","jgjwzln12u","""2024-11-13T00:17:55.986Z""","1696","materials/imgs/D74.png","arrowleft","","[""materials/imgs/D104.png"",""materials/imgs/D16.png""]","false","random","","",""
"","","","","","html-keyboard-response","302","370688","0.0-17.0-0.3-0.24","jgjwzln12u","","jgjwzln12u","""2024-11-13T00:17:55.986Z""","null","+","null","","","","","","",""
"","","","","","image-keyboard-response","303","371921","0.0-17.0-0.3-1.24","jgjwzln12u","","jgjwzln12u","""2024-11-13T00:17:55.986Z""","1231","materials/imgs/D22.png","arrowleft","","[""materials/imgs/D87.png"",""materials/imgs/D80.png""]","false","random","","",""
"","","","","","html-keyboard-response","304","372422","0.0-17.0-0.3-0.25","jgjwzln12u","","jgjwzln12u","""2024-11-13T00:17:55.986Z""","null","+","null","","","","","","",""
"","","","","","image-keyboard-response","305","374578","0.0-17.0-0.3-1.25","jgjwzln12u","","jgjwzln12u","""2024-11-13T00:17:55.986Z""","2154","materials/imgs/D25.png","arrowleft","","[""materials/imgs/D3.png"",""materials/imgs/D77.png""]","false","random","","",""
"","","","","","html-keyboard-response","306","375080","0.0-17.0-0.3-0.26","jgjwzln12u","","jgjwzln12u","""2024-11-13T00:17:55.986Z""","null","+","null","","","","","","",""
"","","","","","image-keyboard-response","307","377003","0.0-17.0-0.3-1.26","jgjwzln12u","","jgjwzln12u","""2024-11-13T00:17:55.986Z""","1922","materials/imgs/D56.png","arrowleft","","[""materials/imgs/D17.png"",""materials/imgs/D87.png""]","false","random","","",""
"","","","","","html-keyboard-response","308","377505","0.0-17.0-0.3-0.27","jgjwzln12u","","jgjwzln12u","""2024-11-13T00:17:55.986Z""","null","+","null","","","","","","",""
"","","","","","image-keyboard-response","309","379357","0.0-17.0-0.3-1.27","jgjwzln12u","","jgjwzln12u","""2024-11-13T00:17:55.986Z""","1850","materials/imgs/D26.png","arrowleft","","[""materials/imgs/D57.png"",""materials/imgs/D68.png""]","false","random","","",""
"","","","","","html-keyboard-response","310","379858","0.0-17.0-1.3-0.3","jgjwzln12u","","jgjwzln12u","""2024-11-13T00:17:55.986Z""","null","+","null","","","","","","",""
"","","","","","image-keyboard-response","311","380522","0.0-17.0-1.3-1.3","jgjwzln12u","","jgjwzln12u","""2024-11-13T00:17:55.986Z""","662","materials/imgs/D76.png","arrowleft","","[""materials/imgs/D76.png"",""materials/imgs/D78.png""]","","check","materials/imgs/D76.png","0","true"
"","","","","","html-keyboard-response","312","381023","0.0-17.0-2.3-0.6","jgjwzln12u","","jgjwzln12u","""2024-11-13T00:17:55.986Z""","null","+","null","","","","","","",""
"","","","","","image-keyboard-response","313","383255","0.0-17.0-2.3-1.6","jgjwzln12u","","jgjwzln12u","""2024-11-13T00:17:55.986Z""","2230","materials/imgs/D83.png","arrowleft","","[""materials/imgs/D24.png"",""materials/imgs/D8.png""]","false","validation","","",""
"","","","","","html-keyboard-response","314","383756","0.0-17.0-2.3-0.7","jgjwzln12u","","jgjwzln12u","""2024-11-13T00:17:55.986Z""","null","+","null","","","","","","",""
"","","","","","image-keyboard-response","315","385582","0.0-17.0-2.3-1.7","jgjwzln12u","","jgjwzln12u","""2024-11-13T00:17:55.986Z""","1824","materials/imgs/D3.png","arrowleft","","[""materials/imgs/D79.png"",""materials/imgs/D48.png""]","false","validation","","",""
"","","","","","html-keyboard-response","316","386083","0.0-17.0-0.4-0.28","jgjwzln12u","","jgjwzln12u","""2024-11-13T00:17:55.986Z""","null","+","null","","","","","","",""
"","","","","","image-keyboard-response","317","387575","0.0-17.0-0.4-1.28","jgjwzln12u","","jgjwzln12u","""2024-11-13T00:17:55.986Z""","1489","materials/imgs/D29.png","arrowright","","[""materials/imgs/D6.png"",""materials/imgs/D104.png""]","false","random","","",""
"","","","","","html-keyboard-response","318","388075","0.0-17.0-0.4-0.29","jgjwzln12u","","jgjwzln12u","""2024-11-13T00:17:55.986Z""","null","+","null","","","","","","",""
"","","","","","image-keyboard-response","319","389549","0.0-17.0-0.4-1.29","jgjwzln12u","","jgjwzln12u","""2024-11-13T00:17:55.986Z""","1472","materials/imgs/D64.png","arrowleft","","[""materials/imgs/D4.png"",""materials/imgs/D77.png""]","false","random","","",""
"","","","","","html-keyboard-response","320","390051","0.0-17.0-0.4-0.30","jgjwzln12u","","jgjwzln12u","""2024-11-13T00:17:55.986Z""","null","+","null","","","","","","",""
"","","","","","image-keyboard-response","321","391365","0.0-17.0-0.4-1.30","jgjwzln12u","","jgjwzln12u","""2024-11-13T00:17:55.986Z""","1313","materials/imgs/D4.png","arrowright","","[""materials/imgs/D48.png"",""materials/imgs/D66.png""]","false","random","","",""
"","","","","","html-keyboard-response","322","391866","0.0-17.0-0.4-0.31","jgjwzln12u","","jgjwzln12u","""2024-11-13T00:17:55.986Z""","null","+","null","","","","","","",""
"","","","","","image-keyboard-response","323","392902","0.0-17.0-0.4-1.31","jgjwzln12u","","jgjwzln12u","""2024-11-13T00:17:55.986Z""","1034","materials/imgs/D24.png","arrowright","","[""materials/imgs/D64.png"",""materials/imgs/D3.png""]","false","random","","",""
"","","","","","html-keyboard-response","324","393403","0.0-17.0-0.4-0.32","jgjwzln12u","","jgjwzln12u","""2024-11-13T00:17:55.986Z""","null","+","null","","","","","","",""
"","","","","","image-keyboard-response","325","394739","0.0-17.0-0.4-1.32","jgjwzln12u","","jgjwzln12u","""2024-11-13T00:17:55.986Z""","1334","materials/imgs/D96.png","arrowleft","","[""materials/imgs/D65.png"",""materials/imgs/D66.png""]","false","random","","",""
"","","","","","html-keyboard-response","326","395240","0.0-17.0-0.4-0.33","jgjwzln12u","","jgjwzln12u","""2024-11-13T00:17:55.986Z""","null","+","null","","","","","","",""
"","","","","","image-keyboard-response","327","397839","0.0-17.0-0.4-1.33","jgjwzln12u","","jgjwzln12u","""2024-11-13T00:17:55.986Z""","2597","materials/imgs/D14.png","arrowleft","","[""materials/imgs/D65.png"",""materials/imgs/D18.png""]","false","random","","",""
"","","","","","html-keyboard-response","328","398340","0.0-17.0-0.4-0.34","jgjwzln12u","","jgjwzln12u","""2024-11-13T00:17:55.986Z""","null","+","null","","","","","","",""
"","","","","","image-keyboard-response","329","401060","0.0-17.0-0.4-1.34","jgjwzln12u","","jgjwzln12u","""2024-11-13T00:17:55.986Z""","2718","materials/imgs/D3.png","arrowleft","","[""materials/imgs/D102.png"",""materials/imgs/D56.png""]","false","random","","",""
"","","","","","html-keyboard-response","330","401562","0.0-17.0-1.4-0.4","jgjwzln12u","","jgjwzln12u","""2024-11-13T00:17:55.986Z""","null","+","null","","","","","","",""
"","","","","","image-keyboard-response","331","402206","0.0-17.0-1.4-1.4","jgjwzln12u","","jgjwzln12u","""2024-11-13T00:17:55.986Z""","643","materials/imgs/D78.png","arrowright","","[""materials/imgs/D76.png"",""materials/imgs/D78.png""]","","check","materials/imgs/D78.png","1","true"
"","","","","","html-keyboard-response","332","402708","0.0-17.0-2.4-0.8","jgjwzln12u","","jgjwzln12u","""2024-11-13T00:17:55.986Z""","null","+","null","","","","","","",""
"","","","","","image-keyboard-response","333","404018","0.0-17.0-2.4-1.8","jgjwzln12u","","jgjwzln12u","""2024-11-13T00:17:55.986Z""","1308","materials/imgs/D35.png","arrowright","","[""materials/imgs/D83.png"",""materials/imgs/D24.png""]","false","validation","","",""
"","","","","","html-keyboard-response","334","404519","0.0-17.0-2.4-0.9","jgjwzln12u","","jgjwzln12u","""2024-11-13T00:17:55.986Z""","null","+","null","","","","","","",""
"","","","","","image-keyboard-response","335","406299","0.0-17.0-2.4-1.9","jgjwzln12u","","jgjwzln12u","""2024-11-13T00:17:55.986Z""","1779","materials/imgs/D102.png","arrowright","","[""materials/imgs/D32.png"",""materials/imgs/D111.png""]","false","validation","","",""
"","","","","","html-button-response","336","408438","0.0-18.0","jgjwzln12u","","jgjwzln12u","""2024-11-13T00:17:55.986Z""","2138","You have completed 75% of the trials. Please click 'Continue' when you are ready proceed.","0","","","","","","",""
"","","","","","html-keyboard-response","337","408939","0.0-19.0-0.0-0.0","jgjwzln12u","","jgjwzln12u","""2024-11-13T00:17:55.986Z""","null","+","null","","","","","","",""
"","","","","","image-keyboard-response","338","411110","0.0-19.0-0.0-1.0","jgjwzln12u","","jgjwzln12u","""2024-11-13T00:17:55.986Z""","2170","materials/imgs/D32.png","arrowright","","[""materials/imgs/D47.png"",""materials/imgs/D56.png""]","false","random","","",""
"","","","","","html-keyboard-response","339","411612","0.0-19.0-0.0-0.1","jgjwzln12u","","jgjwzln12u","""2024-11-13T00:17:55.986Z""","null","+","null","","","","","","",""
"","","","","","image-keyboard-response","340","412847","0.0-19.0-0.0-1.1","jgjwzln12u","","jgjwzln12u","""2024-11-13T00:17:55.986Z""","1233","materials/imgs/D22.png","arrowleft","","[""materials/imgs/D51.png"",""materials/imgs/D48.png""]","false","random","","",""
"","","","","","html-keyboard-response","341","413348","0.0-19.0-0.0-0.2","jgjwzln12u","","jgjwzln12u","""2024-11-13T00:17:55.986Z""","null","+","null","","","","","","",""
"","","","","","image-keyboard-response","342","414249","0.0-19.0-0.0-1.2","jgjwzln12u","","jgjwzln12u","""2024-11-13T00:17:55.986Z""","899","materials/imgs/D64.png","arrowright","","[""materials/imgs/D68.png"",""materials/imgs/D20.png""]","false","random","","",""
"","","","","","html-keyboard-response","343","414750","0.0-19.0-0.0-0.3","jgjwzln12u","","jgjwzln12u","""2024-11-13T00:17:55.986Z""","null","+","null","","","","","","",""
"","","","","","image-keyboard-response","344","415357","0.0-19.0-0.0-1.3","jgjwzln12u","","jgjwzln12u","""2024-11-13T00:17:55.986Z""","605","materials/imgs/D21.png","arrowleft","","[""materials/imgs/D53.png"",""materials/imgs/D32.png""]","false","random","","",""
"","","","","","html-keyboard-response","345","415858","0.0-19.0-0.0-0.4","jgjwzln12u","","jgjwzln12u","""2024-11-13T00:17:55.986Z""","null","+","null","","","","","","",""
"","","","","","image-keyboard-response","346","416531","0.0-19.0-0.0-1.4","jgjwzln12u","","jgjwzln12u","""2024-11-13T00:17:55.986Z""","670","materials/imgs/D101.png","arrowleft","","[""materials/imgs/D35.png"",""materials/imgs/D87.png""]","false","random","","",""
"","","","","","html-keyboard-response","347","417032","0.0-19.0-0.0-0.5","jgjwzln12u","","jgjwzln12u","""2024-11-13T00:17:55.986Z""","null","+","null","","","","","","",""
"","","","","","image-keyboard-response","348","417910","0.0-19.0-0.0-1.5","jgjwzln12u","","jgjwzln12u","""2024-11-13T00:17:55.986Z""","876","materials/imgs/D77.png","arrowright","","[""materials/imgs/D66.png"",""materials/imgs/D57.png""]","false","random","","",""
"","","","","","html-keyboard-response","349","418411","0.0-19.0-0.0-0.6","jgjwzln12u","","jgjwzln12u","""2024-11-13T00:17:55.986Z""","null","+","null","","","","","","",""
"","","","","","image-keyboard-response","350","419418","0.0-19.0-0.0-1.6","jgjwzln12u","","jgjwzln12u","""2024-11-13T00:17:55.986Z""","1005","materials/imgs/D94.png","arrowleft","","[""materials/imgs/D8.png"",""materials/imgs/D78.png""]","false","random","","",""
"","","","","","html-keyboard-response","351","419919","0.0-19.0-1.0-0.0","jgjwzln12u","","jgjwzln12u","""2024-11-13T00:17:55.986Z""","null","+","null","","","","","","",""
"","","","","","image-keyboard-response","352","420503","0.0-19.0-1.0-1.0","jgjwzln12u","","jgjwzln12u","""2024-11-13T00:17:55.986Z""","582","materials/imgs/D26.png","arrowleft","","[""materials/imgs/D26.png"",""materials/imgs/D46.png""]","","check","materials/imgs/D26.png","0","true"
"","","","","","html-keyboard-response","353","421004","0.0-19.0-2.0-0.0","jgjwzln12u","","jgjwzln12u","""2024-11-13T00:17:55.986Z""","null","+","null","","","","","","",""
"","","","","","image-keyboard-response","354","421624","0.0-19.0-2.0-1.0","jgjwzln12u","","jgjwzln12u","""2024-11-13T00:17:55.986Z""","618","materials/imgs/D53.png","arrowleft","","[""materials/imgs/D77.png"",""materials/imgs/D75.png""]","false","validation","","",""
"","","","","","html-keyboard-response","355","422124","0.0-19.0-2.0-0.1","jgjwzln12u","","jgjwzln12u","""2024-11-13T00:17:55.986Z""","null","+","null","","","","","","",""
"","","","","","image-keyboard-response","356","423342","0.0-19.0-2.0-1.1","jgjwzln12u","","jgjwzln12u","""2024-11-13T00:17:55.986Z""","1216","materials/imgs/D46.png","arrowleft","","[""materials/imgs/D92.png"",""materials/imgs/D77.png""]","false","validation","","",""
"","","","","","html-keyboard-response","357","423844","0.0-19.0-0.1-0.7","jgjwzln12u","","jgjwzln12u","""2024-11-13T00:17:55.986Z""","null","+","null","","","","","","",""
"","","","","","image-keyboard-response","358","424977","0.0-19.0-0.1-1.7","jgjwzln12u","","jgjwzln12u","""2024-11-13T00:17:55.986Z""","1132","materials/imgs/D48.png","arrowleft","","[""materials/imgs/D102.png"",""materials/imgs/D11.png""]","false","random","","",""
"","","","","","html-keyboard-response","359","425479","0.0-19.0-0.1-0.8","jgjwzln12u","","jgjwzln12u","""2024-11-13T00:17:55.986Z""","null","+","null","","","","","","",""
"","","","","","image-keyboard-response","360","426985","0.0-19.0-0.1-1.8","jgjwzln12u","","jgjwzln12u","""2024-11-13T00:17:55.986Z""","1504","materials/imgs/D47.png","arrowleft","","[""materials/imgs/D80.png"",""materials/imgs/D55.png""]","false","random","","",""
"","","","","","html-keyboard-response","361","427486","0.0-19.0-0.1-0.9","jgjwzln12u","","jgjwzln12u","""2024-11-13T00:17:55.986Z""","null","+","null","","","","","","",""
"","","","","","image-keyboard-response","362","428285","0.0-19.0-0.1-1.9","jgjwzln12u","","jgjwzln12u","""2024-11-13T00:17:55.986Z""","789","materials/imgs/D77.png","arrowright","","[""materials/imgs/D11.png"",""materials/imgs/D29.png""]","false","random","","",""
"","","","","","html-keyboard-response","363","428786","0.0-19.0-0.1-0.10","jgjwzln12u","","jgjwzln12u","""2024-11-13T00:17:55.986Z""","null","+","null","","","","","","",""
"","","","","","image-keyboard-response","364","429619","0.0-19.0-0.1-1.10","jgjwzln12u","","jgjwzln12u","""2024-11-13T00:17:55.986Z""","830","materials/imgs/D21.png","arrowleft","","[""materials/imgs/D82.png"",""materials/imgs/D24.png""]","false","random","","",""
"","","","","","html-keyboard-response","365","430121","0.0-19.0-0.1-0.11","jgjwzln12u","","jgjwzln12u","""2024-11-13T00:17:55.986Z""","null","+","null","","","","","","",""
"","","","","","image-keyboard-response","366","430724","0.0-19.0-0.1-1.11","jgjwzln12u","","jgjwzln12u","""2024-11-13T00:17:55.986Z""","601","materials/imgs/D35.png","arrowleft","","[""materials/imgs/D20.png"",""materials/imgs/D68.png""]","false","random","","",""
"","","","","","html-keyboard-response","367","431225","0.0-19.0-0.1-0.12","jgjwzln12u","","jgjwzln12u","""2024-11-13T00:17:55.986Z""","null","+","null","","","","","","",""
"","","","","","image-keyboard-response","368","433751","0.0-19.0-0.1-1.12","jgjwzln12u","","jgjwzln12u","""2024-11-13T00:17:55.986Z""","2524","materials/imgs/D19.png","arrowleft","","[""materials/imgs/D17.png"",""materials/imgs/D85.png""]","false","random","","",""
"","","","","","html-keyboard-response","369","434252","0.0-19.0-0.1-0.13","jgjwzln12u","","jgjwzln12u","""2024-11-13T00:17:55.986Z""","null","+","null","","","","","","",""
"","","","","","image-keyboard-response","370","435975","0.0-19.0-0.1-1.13","jgjwzln12u","","jgjwzln12u","""2024-11-13T00:17:55.986Z""","1721","materials/imgs/D96.png","arrowleft","","[""materials/imgs/D8.png"",""materials/imgs/D47.png""]","false","random","","",""
"","","","","","html-keyboard-response","371","436476","0.0-19.0-1.1-0.1","jgjwzln12u","","jgjwzln12u","""2024-11-13T00:17:55.986Z""","null","+","null","","","","","","",""
"","","","","","image-keyboard-response","372","437080","0.0-19.0-1.1-1.1","jgjwzln12u","","jgjwzln12u","""2024-11-13T00:17:55.986Z""","602","materials/imgs/D8.png","arrowright","","[""materials/imgs/D18.png"",""materials/imgs/D8.png""]","","check","materials/imgs/D8.png","1","true"
"","","","","","html-keyboard-response","373","437582","0.0-19.0-2.1-0.2","jgjwzln12u","","jgjwzln12u","""2024-11-13T00:17:55.986Z""","null","+","null","","","","","","",""
"","","","","","image-keyboard-response","374","438477","0.0-19.0-2.1-1.2","jgjwzln12u","","jgjwzln12u","""2024-11-13T00:17:55.986Z""","894","materials/imgs/D1.png","arrowleft","","[""materials/imgs/D57.png"",""materials/imgs/D76.png""]","false","validation","","",""
"","","","","","html-keyboard-response","375","438978","0.0-19.0-2.1-0.3","jgjwzln12u","","jgjwzln12u","""2024-11-13T00:17:55.986Z""","null","+","null","","","","","","",""
"","","","","","image-keyboard-response","376","439962","0.0-19.0-2.1-1.3","jgjwzln12u","","jgjwzln12u","""2024-11-13T00:17:55.986Z""","983","materials/imgs/D37.png","arrowright","","[""materials/imgs/D84.png"",""materials/imgs/D111.png""]","false","validation","","",""
"","","","","","html-keyboard-response","377","440463","0.0-19.0-0.2-0.14","jgjwzln12u","","jgjwzln12u","""2024-11-13T00:17:55.986Z""","null","+","null","","","","","","",""
"","","","","","image-keyboard-response","378","441497","0.0-19.0-0.2-1.14","jgjwzln12u","","jgjwzln12u","""2024-11-13T00:17:55.986Z""","1031","materials/imgs/D16.png","arrowleft","","[""materials/imgs/D76.png"",""materials/imgs/D32.png""]","false","random","","",""
"","","","","","html-keyboard-response","379","441998","0.0-19.0-0.2-0.15","jgjwzln12u","","jgjwzln12u","""2024-11-13T00:17:55.986Z""","null","+","null","","","","","","",""
"","","","","","image-keyboard-response","380","442964","0.0-19.0-0.2-1.15","jgjwzln12u","","jgjwzln12u","""2024-11-13T00:17:55.986Z""","964","materials/imgs/D20.png","arrowright","","[""materials/imgs/D48.png"",""materials/imgs/D46.png""]","false","random","","",""
"","","","","","html-keyboard-response","381","443465","0.0-19.0-0.2-0.16","jgjwzln12u","","jgjwzln12u","""2024-11-13T00:17:55.986Z""","null","+","null","","","","","","",""
"","","","","","image-keyboard-response","382","444223","0.0-19.0-0.2-1.16","jgjwzln12u","","jgjwzln12u","""2024-11-13T00:17:55.986Z""","756","materials/imgs/D82.png","arrowright","","[""materials/imgs/D19.png"",""materials/imgs/D84.png""]","false","random","","",""
"","","","","","html-keyboard-response","383","444724","0.0-19.0-0.2-0.17","jgjwzln12u","","jgjwzln12u","""2024-11-13T00:17:55.986Z""","null","+","null","","","","","","",""
"","","","","","image-keyboard-response","384","445558","0.0-19.0-0.2-1.17","jgjwzln12u","","jgjwzln12u","""2024-11-13T00:17:55.986Z""","832","materials/imgs/D6.png","arrowleft","","[""materials/imgs/D68.png"",""materials/imgs/D26.png""]","false","random","","",""
"","","","","","html-keyboard-response","385","446059","0.0-19.0-0.2-0.18","jgjwzln12u","","jgjwzln12u","""2024-11-13T00:17:55.986Z""","null","+","null","","","","","","",""
"","","","","","image-keyboard-response","386","448060","0.0-19.0-0.2-1.18","jgjwzln12u","","jgjwzln12u","""2024-11-13T00:17:55.986Z""","1999","materials/imgs/D83.png","arrowright","","[""materials/imgs/D55.png"",""materials/imgs/D64.png""]","false","random","","",""
"","","","","","html-keyboard-response","387","448561","0.0-19.0-0.2-0.19","jgjwzln12u","","jgjwzln12u","""2024-11-13T00:17:55.986Z""","null","+","null","","","","","","",""
"","","","","","image-keyboard-response","388","449584","0.0-19.0-0.2-1.19","jgjwzln12u","","jgjwzln12u","""2024-11-13T00:17:55.986Z""","1021","materials/imgs/D85.png","arrowright","","[""materials/imgs/D29.png"",""materials/imgs/D106.png""]","false","random","","",""
"","","","","","html-keyboard-response","389","450085","0.0-19.0-0.2-0.20","jgjwzln12u","","jgjwzln12u","""2024-11-13T00:17:55.986Z""","null","+","null","","","","","","",""
"","","","","","image-keyboard-response","390","451252","0.0-19.0-0.2-1.20","jgjwzln12u","","jgjwzln12u","""2024-11-13T00:17:55.986Z""","1165","materials/imgs/D81.png","arrowright","","[""materials/imgs/D36.png"",""materials/imgs/D35.png""]","false","random","","",""
"","","","","","html-keyboard-response","391","451754","0.0-19.0-1.2-0.2","jgjwzln12u","","jgjwzln12u","""2024-11-13T00:17:55.986Z""","null","+","null","","","","","","",""
"","","","","","image-keyboard-response","392","452387","0.0-19.0-1.2-1.2","jgjwzln12u","","jgjwzln12u","""2024-11-13T00:17:55.986Z""","632","materials/imgs/D53.png","arrowright","","[""materials/imgs/D64.png"",""materials/imgs/D53.png""]","","check","materials/imgs/D53.png","1","true"
"","","","","","html-keyboard-response","393","452888","0.0-19.0-2.2-0.4","jgjwzln12u","","jgjwzln12u","""2024-11-13T00:17:55.986Z""","null","+","null","","","","","","",""
"","","","","","image-keyboard-response","394","454776","0.0-19.0-2.2-1.4","jgjwzln12u","","jgjwzln12u","""2024-11-13T00:17:55.986Z""","1886","materials/imgs/D4.png","arrowright","","[""materials/imgs/D52.png"",""materials/imgs/D83.png""]","false","validation","","",""
"","","","","","html-keyboard-response","395","455278","0.0-19.0-2.2-0.5","jgjwzln12u","","jgjwzln12u","""2024-11-13T00:17:55.986Z""","null","+","null","","","","","","",""
"","","","","","image-keyboard-response","396","458761","0.0-19.0-2.2-1.5","jgjwzln12u","","jgjwzln12u","""2024-11-13T00:17:55.986Z""","3481","materials/imgs/D19.png","arrowright","","[""materials/imgs/D111.png"",""materials/imgs/D56.png""]","false","validation","","",""
"","","","","","html-keyboard-response","397","459261","0.0-19.0-0.3-0.21","jgjwzln12u","","jgjwzln12u","""2024-11-13T00:17:55.986Z""","null","+","null","","","","","","",""
"","","","","","image-keyboard-response","398","462363","0.0-19.0-0.3-1.21","jgjwzln12u","","jgjwzln12u","""2024-11-13T00:17:55.986Z""","3100","materials/imgs/D83.png","arrowright","","[""materials/imgs/D24.png"",""materials/imgs/D18.png""]","false","random","","",""
"","","","","","html-keyboard-response","399","462864","0.0-19.0-0.3-0.22","jgjwzln12u","","jgjwzln12u","""2024-11-13T00:17:55.986Z""","null","+","null","","","","","","",""
"","","","","","image-keyboard-response","400","465748","0.0-19.0-0.3-1.22","jgjwzln12u","","jgjwzln12u","""2024-11-13T00:17:55.986Z""","2882","materials/imgs/D95.png","arrowright","","[""materials/imgs/D57.png"",""materials/imgs/D103.png""]","false","random","","",""
"","","","","","html-keyboard-response","401","466249","0.0-19.0-0.3-0.23","jgjwzln12u","","jgjwzln12u","""2024-11-13T00:17:55.986Z""","null","+","null","","","","","","",""
"","","","","","image-keyboard-response","402","468352","0.0-19.0-0.3-1.23","jgjwzln12u","","jgjwzln12u","""2024-11-13T00:17:55.986Z""","2101","materials/imgs/D65.png","arrowright","","[""materials/imgs/D3.png"",""materials/imgs/D79.png""]","false","random","","",""
"","","","","","html-keyboard-response","403","468853","0.0-19.0-0.3-0.24","jgjwzln12u","","jgjwzln12u","""2024-11-13T00:17:55.986Z""","null","+","null","","","","","","",""
"","","","","","image-keyboard-response","404","469498","0.0-19.0-0.3-1.24","jgjwzln12u","","jgjwzln12u","""2024-11-13T00:17:55.986Z""","643","materials/imgs/D66.png","arrowleft","","[""materials/imgs/D19.png"",""materials/imgs/D20.png""]","false","random","","",""
"","","","","","html-keyboard-response","405","469999","0.0-19.0-0.3-0.25","jgjwzln12u","","jgjwzln12u","""2024-11-13T00:17:55.986Z""","null","+","null","","","","","","",""
"","","","","","image-keyboard-response","406","471098","0.0-19.0-0.3-1.25","jgjwzln12u","","jgjwzln12u","""2024-11-13T00:17:55.986Z""","1097","materials/imgs/D75.png","arrowright","","[""materials/imgs/D79.png"",""materials/imgs/D22.png""]","false","random","","",""
"","","","","","html-keyboard-response","407","471599","0.0-19.0-0.3-0.26","jgjwzln12u","","jgjwzln12u","""2024-11-13T00:17:55.986Z""","null","+","null","","","","","","",""
"","","","","","image-keyboard-response","408","472602","0.0-19.0-0.3-1.26","jgjwzln12u","","jgjwzln12u","""2024-11-13T00:17:55.986Z""","1001","materials/imgs/D3.png","arrowright","","[""materials/imgs/D65.png"",""materials/imgs/D74.png""]","false","random","","",""
"","","","","","html-keyboard-response","409","473103","0.0-19.0-0.3-0.27","jgjwzln12u","","jgjwzln12u","""2024-11-13T00:17:55.986Z""","null","+","null","","","","","","",""
"","","","","","image-keyboard-response","410","473894","0.0-19.0-0.3-1.27","jgjwzln12u","","jgjwzln12u","""2024-11-13T00:17:55.986Z""","789","materials/imgs/D22.png","arrowleft","","[""materials/imgs/D34.png"",""materials/imgs/D17.png""]","false","random","","",""
"","","","","","html-keyboard-response","411","474395","0.0-19.0-1.3-0.3","jgjwzln12u","","jgjwzln12u","""2024-11-13T00:17:55.986Z""","null","+","null","","","","","","",""
"","","","","","image-keyboard-response","412","474904","0.0-19.0-1.3-1.3","jgjwzln12u","","jgjwzln12u","""2024-11-13T00:17:55.986Z""","507","materials/imgs/D64.png","arrowleft","","[""materials/imgs/D64.png"",""materials/imgs/D53.png""]","","check","materials/imgs/D64.png","0","true"
"","","","","","html-keyboard-response","413","475405","0.0-19.0-2.3-0.6","jgjwzln12u","","jgjwzln12u","""2024-11-13T00:17:55.986Z""","null","+","null","","","","","","",""
"","","","","","image-keyboard-response","414","478349","0.0-19.0-2.3-1.6","jgjwzln12u","","jgjwzln12u","""2024-11-13T00:17:55.986Z""","2942","materials/imgs/D48.png","arrowright","","[""materials/imgs/D4.png"",""materials/imgs/D37.png""]","false","validation","","",""
"","","","","","html-keyboard-response","415","478850","0.0-19.0-2.3-0.7","jgjwzln12u","","jgjwzln12u","""2024-11-13T00:17:55.986Z""","null","+","null","","","","","","",""
"","","","","","image-keyboard-response","416","480931","0.0-19.0-2.3-1.7","jgjwzln12u","","jgjwzln12u","""2024-11-13T00:17:55.986Z""","2079","materials/imgs/D16.png","arrowright","","[""materials/imgs/D52.png"",""materials/imgs/D25.png""]","false","validation","","",""
"","","","","","html-keyboard-response","417","481432","0.0-19.0-0.4-0.28","jgjwzln12u","","jgjwzln12u","""2024-11-13T00:17:55.986Z""","null","+","null","","","","","","",""
"","","","","","image-keyboard-response","418","482645","0.0-19.0-0.4-1.28","jgjwzln12u","","jgjwzln12u","""2024-11-13T00:17:55.986Z""","1211","materials/imgs/D6.png","arrowright","","[""materials/imgs/D96.png"",""materials/imgs/D78.png""]","false","random","","",""
"","","","","","html-keyboard-response","419","483146","0.0-19.0-0.4-0.29","jgjwzln12u","","jgjwzln12u","""2024-11-13T00:17:55.986Z""","null","+","null","","","","","","",""
"","","","","","image-keyboard-response","420","484035","0.0-19.0-0.4-1.29","jgjwzln12u","","jgjwzln12u","""2024-11-13T00:17:55.986Z""","886","materials/imgs/D11.png","arrowleft","","[""materials/imgs/D84.png"",""materials/imgs/D102.png""]","false","random","","",""
"","","","","","html-keyboard-response","421","484536","0.0-19.0-0.4-0.30","jgjwzln12u","","jgjwzln12u","""2024-11-13T00:17:55.986Z""","null","+","null","","","","","","",""
"","","","","","image-keyboard-response","422","486774","0.0-19.0-0.4-1.30","jgjwzln12u","","jgjwzln12u","""2024-11-13T00:17:55.986Z""","2236","materials/imgs/D84.png","arrowright","","[""materials/imgs/D85.png"",""materials/imgs/D19.png""]","false","random","","",""
"","","","","","html-keyboard-response","423","487276","0.0-19.0-0.4-0.31","jgjwzln12u","","jgjwzln12u","""2024-11-13T00:17:55.986Z""","null","+","null","","","","","","",""
"","","","","","image-keyboard-response","424","487921","0.0-19.0-0.4-1.31","jgjwzln12u","","jgjwzln12u","""2024-11-13T00:17:55.986Z""","643","materials/imgs/D32.png","arrowright","","[""materials/imgs/D3.png"",""materials/imgs/D92.png""]","false","random","","",""
"","","","","","html-keyboard-response","425","488423","0.0-19.0-0.4-0.32","jgjwzln12u","","jgjwzln12u","""2024-11-13T00:17:55.986Z""","null","+","null","","","","","","",""
"","","","","","image-keyboard-response","426","489403","0.0-19.0-0.4-1.32","jgjwzln12u","","jgjwzln12u","""2024-11-13T00:17:55.986Z""","978","materials/imgs/D29.png","arrowleft","","[""materials/imgs/D79.png"",""materials/imgs/D47.png""]","false","random","","",""
"","","","","","html-keyboard-response","427","489904","0.0-19.0-0.4-0.33","jgjwzln12u","","jgjwzln12u","""2024-11-13T00:17:55.986Z""","null","+","null","","","","","","",""
"","","","","","image-keyboard-response","428","491214","0.0-19.0-0.4-1.33","jgjwzln12u","","jgjwzln12u","""2024-11-13T00:17:55.986Z""","1308","materials/imgs/D3.png","arrowright","","[""materials/imgs/D85.png"",""materials/imgs/D1.png""]","false","random","","",""
"","","","","","html-keyboard-response","429","491715","0.0-19.0-0.4-0.34","jgjwzln12u","","jgjwzln12u","""2024-11-13T00:17:55.986Z""","null","+","null","","","","","","",""
"","","","","","image-keyboard-response","430","493549","0.0-19.0-0.4-1.34","jgjwzln12u","","jgjwzln12u","""2024-11-13T00:17:55.986Z""","1832","materials/imgs/D103.png","arrowleft","","[""materials/imgs/D87.png"",""materials/imgs/D37.png""]","false","random","","",""
"","","","","","html-keyboard-response","431","494051","0.0-19.0-1.4-0.4","jgjwzln12u","","jgjwzln12u","""2024-11-13T00:17:55.986Z""","null","+","null","","","","","","",""
"","","","","","image-keyboard-response","432","494669","0.0-19.0-1.4-1.4","jgjwzln12u","","jgjwzln12u","""2024-11-13T00:17:55.986Z""","616","materials/imgs/D26.png","arrowleft","","[""materials/imgs/D26.png"",""materials/imgs/D46.png""]","","check","materials/imgs/D26.png","0","true"
"","","","","","html-keyboard-response","433","495170","0.0-19.0-2.4-0.8","jgjwzln12u","","jgjwzln12u","""2024-11-13T00:17:55.986Z""","null","+","null","","","","","","",""
"","","","","","image-keyboard-response","434","496911","0.0-19.0-2.4-1.8","jgjwzln12u","","jgjwzln12u","""2024-11-13T00:17:55.986Z""","1739","materials/imgs/D85.png","arrowleft","","[""materials/imgs/D6.png"",""materials/imgs/D111.png""]","false","validation","","",""
"","","","","","html-keyboard-response","435","497413","0.0-19.0-2.4-0.9","jgjwzln12u","","jgjwzln12u","""2024-11-13T00:17:55.986Z""","null","+","null","","","","","","",""
"","","","","","image-keyboard-response","436","501799","0.0-19.0-2.4-1.9","jgjwzln12u","","jgjwzln12u","""2024-11-13T00:17:55.986Z""","4385","materials/imgs/D52.png","arrowleft","","[""materials/imgs/D9.png"",""materials/imgs/D19.png""]","false","validation","","",""
