"success","timeout","failed_images","failed_audio","failed_video","trial_type","trial_index","time_elapsed","internal_node_id","subject_id","sona_id","subjectID","dateInfo","rt","stimulus","response","question_order","choices","speedy","sampleAlg","selected_image","selected_index","correct"
"true","false","[]","[]","[]","preload","0","252","0.0-0.0","jqm00rtl73","","jqm00rtl73","""2024-11-18T20:52:33.724Z""","","","","","","","","","",""
"true","","","","","fullscreen","1","4107","0.0-1.0","jqm00rtl73","","jqm00rtl73","""2024-11-18T20:52:33.724Z""","","","","","","","","","",""
"","","","","","html-keyboard-response","2","4120","0.0-2.0","jqm00rtl73","","jqm00rtl73","""2024-11-18T20:52:33.724Z""","null","","null","","","","","","",""
"","","","","","html-button-response","3","11358","0.0-3.0","jqm00rtl73","","jqm00rtl73","""2024-11-18T20:52:33.724Z""","7237","<div style='text-align:center; font-size:20px; line-height:25px; width: 1200px;'>
                Welcome to our experiment! <br>
                <br>At the bottom of this screen, you will see a button that says 'Begin Experiment.
                <br>Please only click that button when you are ready to complete the 25 minute experiment in one sitting. <br>
                <br> Once you click that button, it will not be possible to restart the experiment. <br><br>","0","","","","","","",""
"true","","","","","fullscreen","4","15798","0.0-4.0","jqm00rtl73","","jqm00rtl73","""2024-11-18T20:52:33.724Z""","","","","","","","","","",""
"","","","","","survey-multi-select","5","65067","0.0-5.0","jqm00rtl73","","jqm00rtl73","""2024-11-18T20:52:33.724Z""","49265","","{""Consent"":[""<strong>I consent</strong>""]}","[0]","","","","","",""
"","","","","","html-button-response","6","67433","0.0-6.0","jqm00rtl73","","jqm00rtl73","""2024-11-18T20:52:33.724Z""","2364","Welcome! <p> This experiment involves two parts: demographic information, followed by the experimental task.<p> It will take about 25 minutes to complete both parts.","0","","","","","","",""
"","","","","","survey-text","7","77162","0.0-7.0","jqm00rtl73","","jqm00rtl73","""2024-11-18T20:52:33.724Z""","9727","","{""Age"":""18"",""Gender"":""Female"",""Race/ethnicity"":""White""}","","","","","","",""
"","","","","","html-button-response","8","99639","0.0-8.0","jqm00rtl73","","jqm00rtl73","""2024-11-18T20:52:33.724Z""","22476","<div style='text-align: center;'>
      <p>In each trial of this task, you will see three texture images: one target item on top, and two choices beneath the target item.</p>
      <p><strong>Please select the item that is most like the target item.</strong></p>
      <p>To select the option on the <strong>LEFT</strong>, press the <strong>LEFT ARROW</strong> key. 
      To select the option on the <strong>RIGHT</strong>, press the <strong>RIGHT ARROW</strong> key.</p>
                  <!-- Target Image at the Top -->
      <div style='margin: 20px;'>
        <img src='materials/imgs/instruction_images/InstructionImg1D78.png' alt='Target Image' style='width:200px; height:auto;' />
        <p><em>Target Image</em></p>
      </div>

      <!-- Two Choice Images Below -->
      <div style='display: flex; justify-content: center;'>
        <div style='margin-right: 50px;'>
          <img src='materials/imgs/instruction_images/InstructionImg2D34.png' alt='Choice Image 1' style='width:150px; height:auto;' />
          <p><em><strong>LEFT ARROW</strong></em></p>
        </div>
        <div style='margin-left: 50px;'>
          <img src='materials/imgs/instruction_images/InstructionImg3D80.png' alt='Choice Image 2' style='width:150px; height:auto;' />
          <p><em><strong>RIGHT ARROW</strong></em></p>
        </div>
      </div>
    </div>

      <p>When you are ready to proceed, please click 'Continue' to begin practice.</p>","0","","","","","","",""
"","","","","","html-keyboard-response","9","102141","0.0-9.0","jqm00rtl73","","jqm00rtl73","""2024-11-18T20:52:33.724Z""","null","+","null","","","","","","",""
"","","","","","html-keyboard-response","10","102642","0.0-10.0-0.0-0.0","jqm00rtl73","","jqm00rtl73","""2024-11-18T20:52:33.724Z""","null","+","null","","","","","","",""
"","","","","","image-keyboard-response","11","104407","0.0-10.0-0.0-1.0","jqm00rtl73","","jqm00rtl73","""2024-11-18T20:52:33.724Z""","1762","materials/imgs/D83.png","arrowleft","","[""materials/imgs/D18.png"",""materials/imgs/D26.png""]","false","random","","",""
"","","","","","html-keyboard-response","12","104909","0.0-10.0-0.0-0.1","jqm00rtl73","","jqm00rtl73","""2024-11-18T20:52:33.724Z""","null","+","null","","","","","","",""
"","","","","","image-keyboard-response","13","106003","0.0-10.0-0.0-1.1","jqm00rtl73","","jqm00rtl73","""2024-11-18T20:52:33.724Z""","1092","materials/imgs/D102.png","arrowright","","[""materials/imgs/D26.png"",""materials/imgs/D46.png""]","false","random","","",""
"","","","","","html-keyboard-response","14","106505","0.0-10.0-0.0-0.2","jqm00rtl73","","jqm00rtl73","""2024-11-18T20:52:33.724Z""","null","+","null","","","","","","",""
"","","","","","image-keyboard-response","15","107906","0.0-10.0-0.0-1.2","jqm00rtl73","","jqm00rtl73","""2024-11-18T20:52:33.724Z""","1399","materials/imgs/D87.png","arrowleft","","[""materials/imgs/D74.png"",""materials/imgs/D96.png""]","false","random","","",""
"","","","","","html-keyboard-response","16","108407","0.0-10.0-0.0-0.3","jqm00rtl73","","jqm00rtl73","""2024-11-18T20:52:33.724Z""","null","+","null","","","","","","",""
"","","","","","image-keyboard-response","17","109587","0.0-10.0-0.0-1.3","jqm00rtl73","","jqm00rtl73","""2024-11-18T20:52:33.724Z""","1178","materials/imgs/D16.png","arrowleft","","[""materials/imgs/D51.png"",""materials/imgs/D8.png""]","false","random","","",""
"","","","","","html-keyboard-response","18","110089","0.0-10.0-0.0-0.4","jqm00rtl73","","jqm00rtl73","""2024-11-18T20:52:33.724Z""","null","+","null","","","","","","",""
"","","","","","image-keyboard-response","19","111435","0.0-10.0-0.0-1.4","jqm00rtl73","","jqm00rtl73","""2024-11-18T20:52:33.724Z""","1344","materials/imgs/D21.png","arrowleft","","[""materials/imgs/D9.png"",""materials/imgs/D26.png""]","false","random","","",""
"","","","","","html-keyboard-response","20","111937","0.0-10.0-0.0-0.5","jqm00rtl73","","jqm00rtl73","""2024-11-18T20:52:33.724Z""","null","+","null","","","","","","",""
"","","","","","image-keyboard-response","21","113796","0.0-10.0-0.0-1.5","jqm00rtl73","","jqm00rtl73","""2024-11-18T20:52:33.724Z""","1858","materials/imgs/D16.png","arrowleft","","[""materials/imgs/D20.png"",""materials/imgs/D102.png""]","false","random","","",""
"","","","","","html-keyboard-response","22","114297","0.0-10.0-0.0-0.6","jqm00rtl73","","jqm00rtl73","""2024-11-18T20:52:33.724Z""","null","+","null","","","","","","",""
"","","","","","image-keyboard-response","23","116595","0.0-10.0-0.0-1.6","jqm00rtl73","","jqm00rtl73","""2024-11-18T20:52:33.724Z""","2296","materials/imgs/D29.png","arrowleft","","[""materials/imgs/D9.png"",""materials/imgs/D92.png""]","false","random","","",""
"","","","","","html-keyboard-response","24","117097","0.0-10.0-0.0-0.7","jqm00rtl73","","jqm00rtl73","""2024-11-18T20:52:33.724Z""","null","+","null","","","","","","",""
"","","","","","image-keyboard-response","25","117975","0.0-10.0-0.0-1.7","jqm00rtl73","","jqm00rtl73","""2024-11-18T20:52:33.724Z""","876","materials/imgs/D18.png","arrowleft","","[""materials/imgs/D24.png"",""materials/imgs/D25.png""]","false","random","","",""
"","","","","","html-keyboard-response","26","118476","0.0-10.0-0.0-0.8","jqm00rtl73","","jqm00rtl73","""2024-11-18T20:52:33.724Z""","null","+","null","","","","","","",""
"","","","","","image-keyboard-response","27","119556","0.0-10.0-0.0-1.8","jqm00rtl73","","jqm00rtl73","""2024-11-18T20:52:33.724Z""","1077","materials/imgs/D22.png","arrowleft","","[""materials/imgs/D77.png"",""materials/imgs/D25.png""]","false","random","","",""
"","","","","","html-keyboard-response","28","120057","0.0-10.0-0.0-0.9","jqm00rtl73","","jqm00rtl73","""2024-11-18T20:52:33.724Z""","null","+","null","","","","","","",""
"","","","","","image-keyboard-response","29","121011","0.0-10.0-0.0-1.9","jqm00rtl73","","jqm00rtl73","""2024-11-18T20:52:33.724Z""","952","materials/imgs/D34.png","arrowleft","","[""materials/imgs/D35.png"",""materials/imgs/D106.png""]","false","random","","",""
"","","","","","html-button-response","30","125218","0.0-11.0","jqm00rtl73","","jqm00rtl73","""2024-11-18T20:52:33.724Z""","4206","<p>Great job!</p>
      <p>You are now ready to begin the experiment.</p>
      <p>There will be around 200 trials. You will have opportunities to take breaks at three stages of the trials.</p>
      <p>When you are ready to begin please click 'Continue'.</p>","0","","","","","","",""
"","","","","","html-keyboard-response","31","127721","0.0-12.0","jqm00rtl73","","jqm00rtl73","""2024-11-18T20:52:33.724Z""","null","+","null","","","","","","",""
"","","","","","html-keyboard-response","32","128223","0.0-13.0-0.0-0.0","jqm00rtl73","","jqm00rtl73","""2024-11-18T20:52:33.724Z""","null","+","null","","","","","","",""
"","","","","","image-keyboard-response","33","129260","0.0-13.0-0.0-1.0","jqm00rtl73","","jqm00rtl73","""2024-11-18T20:52:33.724Z""","1032","materials/imgs/D21.png","arrowleft","","[""materials/imgs/D24.png"",""materials/imgs/D66.png""]","false","random","","",""
"","","","","","html-keyboard-response","34","129761","0.0-13.0-0.0-0.1","jqm00rtl73","","jqm00rtl73","""2024-11-18T20:52:33.724Z""","null","+","null","","","","","","",""
"","","","","","image-keyboard-response","35","132211","0.0-13.0-0.0-1.1","jqm00rtl73","","jqm00rtl73","""2024-11-18T20:52:33.724Z""","2448","materials/imgs/D11.png","arrowleft","","[""materials/imgs/D76.png"",""materials/imgs/D47.png""]","false","random","","",""
"","","","","","html-keyboard-response","36","132713","0.0-13.0-0.0-0.2","jqm00rtl73","","jqm00rtl73","""2024-11-18T20:52:33.724Z""","null","+","null","","","","","","",""
"","","","","","image-keyboard-response","37","133907","0.0-13.0-0.0-1.2","jqm00rtl73","","jqm00rtl73","""2024-11-18T20:52:33.724Z""","1192","materials/imgs/D37.png","arrowleft","","[""materials/imgs/D55.png"",""materials/imgs/D78.png""]","false","random","","",""
"","","","","","html-keyboard-response","38","134409","0.0-13.0-0.0-0.3","jqm00rtl73","","jqm00rtl73","""2024-11-18T20:52:33.724Z""","null","+","null","","","","","","",""
"","","","","","image-keyboard-response","39","135459","0.0-13.0-0.0-1.3","jqm00rtl73","","jqm00rtl73","""2024-11-18T20:52:33.724Z""","1048","materials/imgs/D29.png","arrowleft","","[""materials/imgs/D36.png"",""materials/imgs/D11.png""]","false","random","","",""
"","","","","","html-keyboard-response","40","135961","0.0-13.0-0.0-0.4","jqm00rtl73","","jqm00rtl73","""2024-11-18T20:52:33.724Z""","null","+","null","","","","","","",""
"","","","","","image-keyboard-response","41","136873","0.0-13.0-0.0-1.4","jqm00rtl73","","jqm00rtl73","""2024-11-18T20:52:33.724Z""","910","materials/imgs/D56.png","arrowright","","[""materials/imgs/D52.png"",""materials/imgs/D34.png""]","false","random","","",""
"","","","","","html-keyboard-response","42","137375","0.0-13.0-0.0-0.5","jqm00rtl73","","jqm00rtl73","""2024-11-18T20:52:33.724Z""","null","+","null","","","","","","",""
"","","","","","image-keyboard-response","43","139276","0.0-13.0-0.0-1.5","jqm00rtl73","","jqm00rtl73","""2024-11-18T20:52:33.724Z""","1899","materials/imgs/D35.png","arrowright","","[""materials/imgs/D53.png"",""materials/imgs/D16.png""]","false","random","","",""
"","","","","","html-keyboard-response","44","139777","0.0-13.0-0.0-0.6","jqm00rtl73","","jqm00rtl73","""2024-11-18T20:52:33.724Z""","null","+","null","","","","","","",""
"","","","","","image-keyboard-response","45","141007","0.0-13.0-0.0-1.6","jqm00rtl73","","jqm00rtl73","""2024-11-18T20:52:33.724Z""","1228","materials/imgs/D22.png","arrowright","","[""materials/imgs/D1.png"",""materials/imgs/D87.png""]","false","random","","",""
"","","","","","html-keyboard-response","46","141508","0.0-13.0-1.0-0.0","jqm00rtl73","","jqm00rtl73","""2024-11-18T20:52:33.724Z""","null","+","null","","","","","","",""
"","","","","","image-keyboard-response","47","142167","0.0-13.0-1.0-1.0","jqm00rtl73","","jqm00rtl73","""2024-11-18T20:52:33.724Z""","657","materials/imgs/D26.png","arrowleft","","[""materials/imgs/D26.png"",""materials/imgs/D46.png""]","","check","materials/imgs/D26.png","0","true"
"","","","","","html-keyboard-response","48","142668","0.0-13.0-2.0-0.0","jqm00rtl73","","jqm00rtl73","""2024-11-18T20:52:33.724Z""","null","+","null","","","","","","",""
"","","","","","image-keyboard-response","49","143514","0.0-13.0-2.0-1.0","jqm00rtl73","","jqm00rtl73","""2024-11-18T20:52:33.724Z""","844","materials/imgs/D24.png","arrowleft","","[""materials/imgs/D36.png"",""materials/imgs/D8.png""]","false","validation","","",""
"","","","","","html-keyboard-response","50","144016","0.0-13.0-2.0-0.1","jqm00rtl73","","jqm00rtl73","""2024-11-18T20:52:33.724Z""","null","+","null","","","","","","",""
"","","","","","image-keyboard-response","51","145381","0.0-13.0-2.0-1.1","jqm00rtl73","","jqm00rtl73","""2024-11-18T20:52:33.724Z""","1363","materials/imgs/D85.png","arrowleft","","[""materials/imgs/D6.png"",""materials/imgs/D111.png""]","false","validation","","",""
"","","","","","html-keyboard-response","52","145883","0.0-13.0-0.1-0.7","jqm00rtl73","","jqm00rtl73","""2024-11-18T20:52:33.724Z""","null","+","null","","","","","","",""
"","","","","","image-keyboard-response","53","147201","0.0-13.0-0.1-1.7","jqm00rtl73","","jqm00rtl73","""2024-11-18T20:52:33.724Z""","1316","materials/imgs/D56.png","arrowright","","[""materials/imgs/D26.png"",""materials/imgs/D29.png""]","false","random","","",""
"","","","","","html-keyboard-response","54","147703","0.0-13.0-0.1-0.8","jqm00rtl73","","jqm00rtl73","""2024-11-18T20:52:33.724Z""","null","+","null","","","","","","",""
"","","","","","image-keyboard-response","55","149287","0.0-13.0-0.1-1.8","jqm00rtl73","","jqm00rtl73","""2024-11-18T20:52:33.724Z""","1581","materials/imgs/D49.png","arrowright","","[""materials/imgs/D25.png"",""materials/imgs/D95.png""]","false","random","","",""
"","","","","","html-keyboard-response","56","149788","0.0-13.0-0.1-0.9","jqm00rtl73","","jqm00rtl73","""2024-11-18T20:52:33.724Z""","null","+","null","","","","","","",""
"","","","","","image-keyboard-response","57","150720","0.0-13.0-0.1-1.9","jqm00rtl73","","jqm00rtl73","""2024-11-18T20:52:33.724Z""","930","materials/imgs/D14.png","arrowleft","","[""materials/imgs/D84.png"",""materials/imgs/D92.png""]","false","random","","",""
"","","","","","html-keyboard-response","58","151221","0.0-13.0-0.1-0.10","jqm00rtl73","","jqm00rtl73","""2024-11-18T20:52:33.724Z""","null","+","null","","","","","","",""
"","","","","","image-keyboard-response","59","152554","0.0-13.0-0.1-1.10","jqm00rtl73","","jqm00rtl73","""2024-11-18T20:52:33.724Z""","1333","materials/imgs/D64.png","arrowright","","[""materials/imgs/D81.png"",""materials/imgs/D75.png""]","false","random","","",""
"","","","","","html-keyboard-response","60","153056","0.0-13.0-0.1-0.11","jqm00rtl73","","jqm00rtl73","""2024-11-18T20:52:33.724Z""","null","+","null","","","","","","",""
"","","","","","image-keyboard-response","61","154842","0.0-13.0-0.1-1.11","jqm00rtl73","","jqm00rtl73","""2024-11-18T20:52:33.724Z""","1785","materials/imgs/D65.png","arrowright","","[""materials/imgs/D24.png"",""materials/imgs/D52.png""]","false","random","","",""
"","","","","","html-keyboard-response","62","155343","0.0-13.0-0.1-0.12","jqm00rtl73","","jqm00rtl73","""2024-11-18T20:52:33.724Z""","null","+","null","","","","","","",""
"","","","","","image-keyboard-response","63","156878","0.0-13.0-0.1-1.12","jqm00rtl73","","jqm00rtl73","""2024-11-18T20:52:33.724Z""","1533","materials/imgs/D26.png","arrowleft","","[""materials/imgs/D102.png"",""materials/imgs/D49.png""]","false","random","","",""
"","","","","","html-keyboard-response","64","157380","0.0-13.0-0.1-0.13","jqm00rtl73","","jqm00rtl73","""2024-11-18T20:52:33.724Z""","null","+","null","","","","","","",""
"","","","","","image-keyboard-response","65","158354","0.0-13.0-0.1-1.13","jqm00rtl73","","jqm00rtl73","""2024-11-18T20:52:33.724Z""","972","materials/imgs/D105.png","arrowright","","[""materials/imgs/D26.png"",""materials/imgs/D1.png""]","false","random","","",""
"","","","","","html-keyboard-response","66","158856","0.0-13.0-1.1-0.1","jqm00rtl73","","jqm00rtl73","""2024-11-18T20:52:33.724Z""","null","+","null","","","","","","",""
"","","","","","image-keyboard-response","67","159448","0.0-13.0-1.1-1.1","jqm00rtl73","","jqm00rtl73","""2024-11-18T20:52:33.724Z""","591","materials/imgs/D46.png","arrowleft","","[""materials/imgs/D46.png"",""materials/imgs/D26.png""]","","check","materials/imgs/D46.png","0","true"
"","","","","","html-keyboard-response","68","159950","0.0-13.0-2.1-0.2","jqm00rtl73","","jqm00rtl73","""2024-11-18T20:52:33.724Z""","null","+","null","","","","","","",""
"","","","","","image-keyboard-response","69","161249","0.0-13.0-2.1-1.2","jqm00rtl73","","jqm00rtl73","""2024-11-18T20:52:33.724Z""","1297","materials/imgs/D26.png","arrowright","","[""materials/imgs/D36.png"",""materials/imgs/D92.png""]","false","validation","","",""
"","","","","","html-keyboard-response","70","161750","0.0-13.0-2.1-0.3","jqm00rtl73","","jqm00rtl73","""2024-11-18T20:52:33.724Z""","null","+","null","","","","","","",""
"","","","","","image-keyboard-response","71","162766","0.0-13.0-2.1-1.3","jqm00rtl73","","jqm00rtl73","""2024-11-18T20:52:33.724Z""","1014","materials/imgs/D96.png","arrowleft","","[""materials/imgs/D46.png"",""materials/imgs/D18.png""]","false","validation","","",""
"","","","","","html-keyboard-response","72","163268","0.0-13.0-0.2-0.14","jqm00rtl73","","jqm00rtl73","""2024-11-18T20:52:33.724Z""","null","+","null","","","","","","",""
"","","","","","image-keyboard-response","73","165543","0.0-13.0-0.2-1.14","jqm00rtl73","","jqm00rtl73","""2024-11-18T20:52:33.724Z""","2273","materials/imgs/D78.png","arrowright","","[""materials/imgs/D25.png"",""materials/imgs/D101.png""]","false","random","","",""
"","","","","","html-keyboard-response","74","166044","0.0-13.0-0.2-0.15","jqm00rtl73","","jqm00rtl73","""2024-11-18T20:52:33.724Z""","null","+","null","","","","","","",""
"","","","","","image-keyboard-response","75","166907","0.0-13.0-0.2-1.15","jqm00rtl73","","jqm00rtl73","""2024-11-18T20:52:33.724Z""","861","materials/imgs/D79.png","arrowleft","","[""materials/imgs/D78.png"",""materials/imgs/D96.png""]","false","random","","",""
"","","","","","html-keyboard-response","76","167409","0.0-13.0-0.2-0.16","jqm00rtl73","","jqm00rtl73","""2024-11-18T20:52:33.724Z""","null","+","null","","","","","","",""
"","","","","","image-keyboard-response","77","168206","0.0-13.0-0.2-1.16","jqm00rtl73","","jqm00rtl73","""2024-11-18T20:52:33.724Z""","795","materials/imgs/D56.png","arrowright","","[""materials/imgs/D25.png"",""materials/imgs/D57.png""]","false","random","","",""
"","","","","","html-keyboard-response","78","168708","0.0-13.0-0.2-0.17","jqm00rtl73","","jqm00rtl73","""2024-11-18T20:52:33.724Z""","null","+","null","","","","","","",""
"","","","","","image-keyboard-response","79","169401","0.0-13.0-0.2-1.17","jqm00rtl73","","jqm00rtl73","""2024-11-18T20:52:33.724Z""","691","materials/imgs/D102.png","arrowleft","","[""materials/imgs/D95.png"",""materials/imgs/D24.png""]","false","random","","",""
"","","","","","html-keyboard-response","80","169903","0.0-13.0-0.2-0.18","jqm00rtl73","","jqm00rtl73","""2024-11-18T20:52:33.724Z""","null","+","null","","","","","","",""
"","","","","","image-keyboard-response","81","170672","0.0-13.0-0.2-1.18","jqm00rtl73","","jqm00rtl73","""2024-11-18T20:52:33.724Z""","767","materials/imgs/D34.png","arrowleft","","[""materials/imgs/D49.png"",""materials/imgs/D48.png""]","false","random","","",""
"","","","","","html-keyboard-response","82","171173","0.0-13.0-0.2-0.19","jqm00rtl73","","jqm00rtl73","""2024-11-18T20:52:33.724Z""","null","+","null","","","","","","",""
"","","","","","image-keyboard-response","83","172527","0.0-13.0-0.2-1.19","jqm00rtl73","","jqm00rtl73","""2024-11-18T20:52:33.724Z""","1352","materials/imgs/D1.png","arrowleft","","[""materials/imgs/D22.png"",""materials/imgs/D77.png""]","false","random","","",""
"","","","","","html-keyboard-response","84","173028","0.0-13.0-0.2-0.20","jqm00rtl73","","jqm00rtl73","""2024-11-18T20:52:33.724Z""","null","+","null","","","","","","",""
"","","","","","image-keyboard-response","85","173876","0.0-13.0-0.2-1.20","jqm00rtl73","","jqm00rtl73","""2024-11-18T20:52:33.724Z""","846","materials/imgs/D77.png","arrowleft","","[""materials/imgs/D92.png"",""materials/imgs/D37.png""]","false","random","","",""
"","","","","","html-keyboard-response","86","174377","0.0-13.0-1.2-0.2","jqm00rtl73","","jqm00rtl73","""2024-11-18T20:52:33.724Z""","null","+","null","","","","","","",""
"","","","","","image-keyboard-response","87","174979","0.0-13.0-1.2-1.2","jqm00rtl73","","jqm00rtl73","""2024-11-18T20:52:33.724Z""","599","materials/imgs/D8.png","arrowright","","[""materials/imgs/D18.png"",""materials/imgs/D8.png""]","","check","materials/imgs/D8.png","1","true"
"","","","","","html-keyboard-response","88","175480","0.0-13.0-2.2-0.4","jqm00rtl73","","jqm00rtl73","""2024-11-18T20:52:33.724Z""","null","+","null","","","","","","",""
"","","","","","image-keyboard-response","89","177183","0.0-13.0-2.2-1.4","jqm00rtl73","","jqm00rtl73","""2024-11-18T20:52:33.724Z""","1701","materials/imgs/D111.png","arrowleft","","[""materials/imgs/D82.png"",""materials/imgs/D95.png""]","false","validation","","",""
"","","","","","html-keyboard-response","90","177684","0.0-13.0-2.2-0.5","jqm00rtl73","","jqm00rtl73","""2024-11-18T20:52:33.724Z""","null","+","null","","","","","","",""
"","","","","","image-keyboard-response","91","178401","0.0-13.0-2.2-1.5","jqm00rtl73","","jqm00rtl73","""2024-11-18T20:52:33.724Z""","716","materials/imgs/D8.png","arrowleft","","[""materials/imgs/D101.png"",""materials/imgs/D52.png""]","false","validation","","",""
"","","","","","html-keyboard-response","92","178903","0.0-13.0-0.3-0.21","jqm00rtl73","","jqm00rtl73","""2024-11-18T20:52:33.724Z""","null","+","null","","","","","","",""
"","","","","","image-keyboard-response","93","179777","0.0-13.0-0.3-1.21","jqm00rtl73","","jqm00rtl73","""2024-11-18T20:52:33.724Z""","871","materials/imgs/D17.png","arrowright","","[""materials/imgs/D25.png"",""materials/imgs/D11.png""]","false","random","","",""
"","","","","","html-keyboard-response","94","180278","0.0-13.0-0.3-0.22","jqm00rtl73","","jqm00rtl73","""2024-11-18T20:52:33.724Z""","null","+","null","","","","","","",""
"","","","","","image-keyboard-response","95","182245","0.0-13.0-0.3-1.22","jqm00rtl73","","jqm00rtl73","""2024-11-18T20:52:33.724Z""","1965","materials/imgs/D35.png","arrowleft","","[""materials/imgs/D51.png"",""materials/imgs/D21.png""]","false","random","","",""
"","","","","","html-keyboard-response","96","182746","0.0-13.0-0.3-0.23","jqm00rtl73","","jqm00rtl73","""2024-11-18T20:52:33.724Z""","null","+","null","","","","","","",""
"","","","","","image-keyboard-response","97","183386","0.0-13.0-0.3-1.23","jqm00rtl73","","jqm00rtl73","""2024-11-18T20:52:33.724Z""","637","materials/imgs/D105.png","arrowright","","[""materials/imgs/D36.png"",""materials/imgs/D106.png""]","false","random","","",""
"","","","","","html-keyboard-response","98","183888","0.0-13.0-0.3-0.24","jqm00rtl73","","jqm00rtl73","""2024-11-18T20:52:33.724Z""","null","+","null","","","","","","",""
"","","","","","image-keyboard-response","99","185670","0.0-13.0-0.3-1.24","jqm00rtl73","","jqm00rtl73","""2024-11-18T20:52:33.724Z""","1781","materials/imgs/D1.png","arrowright","","[""materials/imgs/D55.png"",""materials/imgs/D76.png""]","false","random","","",""
"","","","","","html-keyboard-response","100","186172","0.0-13.0-0.3-0.25","jqm00rtl73","","jqm00rtl73","""2024-11-18T20:52:33.724Z""","null","+","null","","","","","","",""
"","","","","","image-keyboard-response","101","187944","0.0-13.0-0.3-1.25","jqm00rtl73","","jqm00rtl73","""2024-11-18T20:52:33.724Z""","1770","materials/imgs/D19.png","arrowright","","[""materials/imgs/D37.png"",""materials/imgs/D32.png""]","false","random","","",""
"","","","","","html-keyboard-response","102","188446","0.0-13.0-0.3-0.26","jqm00rtl73","","jqm00rtl73","""2024-11-18T20:52:33.724Z""","null","+","null","","","","","","",""
"","","","","","image-keyboard-response","103","189476","0.0-13.0-0.3-1.26","jqm00rtl73","","jqm00rtl73","""2024-11-18T20:52:33.724Z""","1028","materials/imgs/D11.png","arrowright","","[""materials/imgs/D64.png"",""materials/imgs/D105.png""]","false","random","","",""
"","","","","","html-keyboard-response","104","189977","0.0-13.0-0.3-0.27","jqm00rtl73","","jqm00rtl73","""2024-11-18T20:52:33.724Z""","null","+","null","","","","","","",""
"","","","","","image-keyboard-response","105","190810","0.0-13.0-0.3-1.27","jqm00rtl73","","jqm00rtl73","""2024-11-18T20:52:33.724Z""","831","materials/imgs/D78.png","arrowright","","[""materials/imgs/D26.png"",""materials/imgs/D32.png""]","false","random","","",""
"","","","","","html-keyboard-response","106","191311","0.0-13.0-1.3-0.3","jqm00rtl73","","jqm00rtl73","""2024-11-18T20:52:33.724Z""","null","+","null","","","","","","",""
"","","","","","image-keyboard-response","107","192297","0.0-13.0-1.3-1.3","jqm00rtl73","","jqm00rtl73","""2024-11-18T20:52:33.724Z""","984","materials/imgs/D53.png","arrowright","","[""materials/imgs/D64.png"",""materials/imgs/D53.png""]","","check","materials/imgs/D53.png","1","true"
"","","","","","html-keyboard-response","108","192798","0.0-13.0-2.3-0.6","jqm00rtl73","","jqm00rtl73","""2024-11-18T20:52:33.724Z""","null","+","null","","","","","","",""
"","","","","","image-keyboard-response","109","194147","0.0-13.0-2.3-1.6","jqm00rtl73","","jqm00rtl73","""2024-11-18T20:52:33.724Z""","1347","materials/imgs/D56.png","arrowright","","[""materials/imgs/D25.png"",""materials/imgs/D105.png""]","false","validation","","",""
"","","","","","html-keyboard-response","110","194648","0.0-13.0-2.3-0.7","jqm00rtl73","","jqm00rtl73","""2024-11-18T20:52:33.724Z""","null","+","null","","","","","","",""
"","","","","","image-keyboard-response","111","195424","0.0-13.0-2.3-1.7","jqm00rtl73","","jqm00rtl73","""2024-11-18T20:52:33.724Z""","774","materials/imgs/D79.png","arrowleft","","[""materials/imgs/D51.png"",""materials/imgs/D64.png""]","false","validation","","",""
"","","","","","html-keyboard-response","112","195925","0.0-13.0-0.4-0.28","jqm00rtl73","","jqm00rtl73","""2024-11-18T20:52:33.724Z""","null","+","null","","","","","","",""
"","","","","","image-keyboard-response","113","197386","0.0-13.0-0.4-1.28","jqm00rtl73","","jqm00rtl73","""2024-11-18T20:52:33.724Z""","1459","materials/imgs/D66.png","arrowright","","[""materials/imgs/D32.png"",""materials/imgs/D4.png""]","false","random","","",""
"","","","","","html-keyboard-response","114","197888","0.0-13.0-0.4-0.29","jqm00rtl73","","jqm00rtl73","""2024-11-18T20:52:33.724Z""","null","+","null","","","","","","",""
"","","","","","image-keyboard-response","115","199065","0.0-13.0-0.4-1.29","jqm00rtl73","","jqm00rtl73","""2024-11-18T20:52:33.724Z""","1175","materials/imgs/D81.png","arrowright","","[""materials/imgs/D48.png"",""materials/imgs/D34.png""]","false","random","","",""
"","","","","","html-keyboard-response","116","199566","0.0-13.0-0.4-0.30","jqm00rtl73","","jqm00rtl73","""2024-11-18T20:52:33.724Z""","null","+","null","","","","","","",""
"","","","","","image-keyboard-response","117","200734","0.0-13.0-0.4-1.30","jqm00rtl73","","jqm00rtl73","""2024-11-18T20:52:33.724Z""","1165","materials/imgs/D53.png","arrowleft","","[""materials/imgs/D34.png"",""materials/imgs/D20.png""]","false","random","","",""
"","","","","","html-keyboard-response","118","201235","0.0-13.0-0.4-0.31","jqm00rtl73","","jqm00rtl73","""2024-11-18T20:52:33.724Z""","null","+","null","","","","","","",""
"","","","","","image-keyboard-response","119","201821","0.0-13.0-0.4-1.31","jqm00rtl73","","jqm00rtl73","""2024-11-18T20:52:33.724Z""","585","materials/imgs/D76.png","arrowright","","[""materials/imgs/D8.png"",""materials/imgs/D79.png""]","false","random","","",""
"","","","","","html-keyboard-response","120","202322","0.0-13.0-0.4-0.32","jqm00rtl73","","jqm00rtl73","""2024-11-18T20:52:33.724Z""","null","+","null","","","","","","",""
"","","","","","image-keyboard-response","121","203390","0.0-13.0-0.4-1.32","jqm00rtl73","","jqm00rtl73","""2024-11-18T20:52:33.724Z""","1065","materials/imgs/D55.png","arrowright","","[""materials/imgs/D81.png"",""materials/imgs/D82.png""]","false","random","","",""
"","","","","","html-keyboard-response","122","203891","0.0-13.0-0.4-0.33","jqm00rtl73","","jqm00rtl73","""2024-11-18T20:52:33.724Z""","null","+","null","","","","","","",""
"","","","","","image-keyboard-response","123","204899","0.0-13.0-0.4-1.33","jqm00rtl73","","jqm00rtl73","""2024-11-18T20:52:33.724Z""","1006","materials/imgs/D32.png","arrowleft","","[""materials/imgs/D6.png"",""materials/imgs/D81.png""]","false","random","","",""
"","","","","","html-keyboard-response","124","205401","0.0-13.0-0.4-0.34","jqm00rtl73","","jqm00rtl73","""2024-11-18T20:52:33.724Z""","null","+","null","","","","","","",""
"","","","","","image-keyboard-response","125","208148","0.0-13.0-0.4-1.34","jqm00rtl73","","jqm00rtl73","""2024-11-18T20:52:33.724Z""","2746","materials/imgs/D94.png","arrowleft","","[""materials/imgs/D48.png"",""materials/imgs/D80.png""]","false","random","","",""
"","","","","","html-keyboard-response","126","208650","0.0-13.0-1.4-0.4","jqm00rtl73","","jqm00rtl73","""2024-11-18T20:52:33.724Z""","null","+","null","","","","","","",""
"","","","","","image-keyboard-response","127","209241","0.0-13.0-1.4-1.4","jqm00rtl73","","jqm00rtl73","""2024-11-18T20:52:33.724Z""","589","materials/imgs/D46.png","arrowleft","","[""materials/imgs/D46.png"",""materials/imgs/D26.png""]","","check","materials/imgs/D46.png","0","true"
"","","","","","html-keyboard-response","128","209743","0.0-13.0-2.4-0.8","jqm00rtl73","","jqm00rtl73","""2024-11-18T20:52:33.724Z""","null","+","null","","","","","","",""
"","","","","","image-keyboard-response","129","211794","0.0-13.0-2.4-1.8","jqm00rtl73","","jqm00rtl73","""2024-11-18T20:52:33.724Z""","2049","materials/imgs/D102.png","arrowright","","[""materials/imgs/D32.png"",""materials/imgs/D111.png""]","false","validation","","",""
"","","","","","html-keyboard-response","130","212295","0.0-13.0-2.4-0.9","jqm00rtl73","","jqm00rtl73","""2024-11-18T20:52:33.724Z""","null","+","null","","","","","","",""
"","","","","","image-keyboard-response","131","213821","0.0-13.0-2.4-1.9","jqm00rtl73","","jqm00rtl73","""2024-11-18T20:52:33.724Z""","1524","materials/imgs/D75.png","arrowleft","","[""materials/imgs/D96.png"",""materials/imgs/D4.png""]","false","validation","","",""
"","","","","","html-button-response","132","216333","0.0-14.0","jqm00rtl73","","jqm00rtl73","""2024-11-18T20:52:33.724Z""","2512","You have completed 25% of the trials. Please click 'Continue' when you are ready proceed.","0","","","","","","",""
"","","","","","html-keyboard-response","133","216834","0.0-15.0-0.0-0.0","jqm00rtl73","","jqm00rtl73","""2024-11-18T20:52:33.724Z""","null","+","null","","","","","","",""
"","","","","","image-keyboard-response","134","219092","0.0-15.0-0.0-1.0","jqm00rtl73","","jqm00rtl73","""2024-11-18T20:52:33.724Z""","2256","materials/imgs/D16.png","arrowleft","","[""materials/imgs/D52.png"",""materials/imgs/D96.png""]","false","random","","",""
"","","","","","html-keyboard-response","135","219594","0.0-15.0-0.0-0.1","jqm00rtl73","","jqm00rtl73","""2024-11-18T20:52:33.724Z""","null","+","null","","","","","","",""
"","","","","","image-keyboard-response","136","221484","0.0-15.0-0.0-1.1","jqm00rtl73","","jqm00rtl73","""2024-11-18T20:52:33.724Z""","1889","materials/imgs/D64.png","arrowleft","","[""materials/imgs/D22.png"",""materials/imgs/D79.png""]","false","random","","",""
"","","","","","html-keyboard-response","137","221985","0.0-15.0-0.0-0.2","jqm00rtl73","","jqm00rtl73","""2024-11-18T20:52:33.724Z""","null","+","null","","","","","","",""
"","","","","","image-keyboard-response","138","222731","0.0-15.0-0.0-1.2","jqm00rtl73","","jqm00rtl73","""2024-11-18T20:52:33.724Z""","743","materials/imgs/D24.png","arrowleft","","[""materials/imgs/D84.png"",""materials/imgs/D64.png""]","false","random","","",""
"","","","","","html-keyboard-response","139","223232","0.0-15.0-0.0-0.3","jqm00rtl73","","jqm00rtl73","""2024-11-18T20:52:33.724Z""","null","+","null","","","","","","",""
"","","","","","image-keyboard-response","140","224025","0.0-15.0-0.0-1.3","jqm00rtl73","","jqm00rtl73","""2024-11-18T20:52:33.724Z""","791","materials/imgs/D3.png","arrowright","","[""materials/imgs/D75.png"",""materials/imgs/D78.png""]","false","random","","",""
"","","","","","html-keyboard-response","141","224527","0.0-15.0-0.0-0.4","jqm00rtl73","","jqm00rtl73","""2024-11-18T20:52:33.724Z""","null","+","null","","","","","","",""
"","","","","","image-keyboard-response","142","225438","0.0-15.0-0.0-1.4","jqm00rtl73","","jqm00rtl73","""2024-11-18T20:52:33.724Z""","909","materials/imgs/D22.png","arrowleft","","[""materials/imgs/D56.png"",""materials/imgs/D51.png""]","false","random","","",""
"","","","","","html-keyboard-response","143","225939","0.0-15.0-0.0-0.5","jqm00rtl73","","jqm00rtl73","""2024-11-18T20:52:33.724Z""","null","+","null","","","","","","",""
"","","","","","image-keyboard-response","144","228126","0.0-15.0-0.0-1.5","jqm00rtl73","","jqm00rtl73","""2024-11-18T20:52:33.724Z""","2185","materials/imgs/D95.png","arrowright","","[""materials/imgs/D81.png"",""materials/imgs/D68.png""]","false","random","","",""
"","","","","","html-keyboard-response","145","228627","0.0-15.0-0.0-0.6","jqm00rtl73","","jqm00rtl73","""2024-11-18T20:52:33.724Z""","null","+","null","","","","","","",""
"","","","","","image-keyboard-response","146","229246","0.0-15.0-0.0-1.6","jqm00rtl73","","jqm00rtl73","""2024-11-18T20:52:33.724Z""","617","materials/imgs/D16.png","arrowright","","[""materials/imgs/D9.png"",""materials/imgs/D21.png""]","false","random","","",""
"","","","","","html-keyboard-response","147","229747","0.0-15.0-1.0-0.0","jqm00rtl73","","jqm00rtl73","""2024-11-18T20:52:33.724Z""","null","+","null","","","","","","",""
"","","","","","image-keyboard-response","148","230413","0.0-15.0-1.0-1.0","jqm00rtl73","","jqm00rtl73","""2024-11-18T20:52:33.724Z""","665","materials/imgs/D18.png","arrowright","","[""materials/imgs/D8.png"",""materials/imgs/D18.png""]","","check","materials/imgs/D18.png","1","true"
"","","","","","html-keyboard-response","149","230915","0.0-15.0-2.0-0.0","jqm00rtl73","","jqm00rtl73","""2024-11-18T20:52:33.724Z""","null","+","null","","","","","","",""
"","","","","","image-keyboard-response","150","231671","0.0-15.0-2.0-1.0","jqm00rtl73","","jqm00rtl73","""2024-11-18T20:52:33.724Z""","754","materials/imgs/D79.png","arrowleft","","[""materials/imgs/D51.png"",""materials/imgs/D64.png""]","false","validation","","",""
"","","","","","html-keyboard-response","151","232172","0.0-15.0-2.0-0.1","jqm00rtl73","","jqm00rtl73","""2024-11-18T20:52:33.724Z""","null","+","null","","","","","","",""
"","","","","","image-keyboard-response","152","232834","0.0-15.0-2.0-1.1","jqm00rtl73","","jqm00rtl73","""2024-11-18T20:52:33.724Z""","660","materials/imgs/D11.png","arrowleft","","[""materials/imgs/D83.png"",""materials/imgs/D48.png""]","false","validation","","",""
"","","","","","html-keyboard-response","153","233335","0.0-15.0-0.1-0.7","jqm00rtl73","","jqm00rtl73","""2024-11-18T20:52:33.724Z""","null","+","null","","","","","","",""
"","","","","","image-keyboard-response","154","235113","0.0-15.0-0.1-1.7","jqm00rtl73","","jqm00rtl73","""2024-11-18T20:52:33.724Z""","1776","materials/imgs/D35.png","arrowleft","","[""materials/imgs/D87.png"",""materials/imgs/D29.png""]","false","random","","",""
"","","","","","html-keyboard-response","155","235615","0.0-15.0-0.1-0.8","jqm00rtl73","","jqm00rtl73","""2024-11-18T20:52:33.724Z""","null","+","null","","","","","","",""
"","","","","","image-keyboard-response","156","237790","0.0-15.0-0.1-1.8","jqm00rtl73","","jqm00rtl73","""2024-11-18T20:52:33.724Z""","2174","materials/imgs/D34.png","arrowleft","","[""materials/imgs/D74.png"",""materials/imgs/D9.png""]","false","random","","",""
"","","","","","html-keyboard-response","157","238291","0.0-15.0-0.1-0.9","jqm00rtl73","","jqm00rtl73","""2024-11-18T20:52:33.724Z""","null","+","null","","","","","","",""
"","","","","","image-keyboard-response","158","239298","0.0-15.0-0.1-1.9","jqm00rtl73","","jqm00rtl73","""2024-11-18T20:52:33.724Z""","1005","materials/imgs/D75.png","arrowleft","","[""materials/imgs/D19.png"",""materials/imgs/D35.png""]","false","random","","",""
"","","","","","html-keyboard-response","159","239799","0.0-15.0-0.1-0.10","jqm00rtl73","","jqm00rtl73","""2024-11-18T20:52:33.724Z""","null","+","null","","","","","","",""
"","","","","","image-keyboard-response","160","240441","0.0-15.0-0.1-1.10","jqm00rtl73","","jqm00rtl73","""2024-11-18T20:52:33.724Z""","633","materials/imgs/D74.png","arrowright","","[""materials/imgs/D17.png"",""materials/imgs/D102.png""]","false","random","","",""
"","","","","","html-keyboard-response","161","240941","0.0-15.0-0.1-0.11","jqm00rtl73","","jqm00rtl73","""2024-11-18T20:52:33.724Z""","null","+","null","","","","","","",""
"","","","","","image-keyboard-response","162","241587","0.0-15.0-0.1-1.11","jqm00rtl73","","jqm00rtl73","""2024-11-18T20:52:33.724Z""","644","materials/imgs/D49.png","arrowleft","","[""materials/imgs/D55.png"",""materials/imgs/D20.png""]","false","random","","",""
"","","","","","html-keyboard-response","163","242088","0.0-15.0-0.1-0.12","jqm00rtl73","","jqm00rtl73","""2024-11-18T20:52:33.724Z""","null","+","null","","","","","","",""
"","","","","","image-keyboard-response","164","243068","0.0-15.0-0.1-1.12","jqm00rtl73","","jqm00rtl73","""2024-11-18T20:52:33.724Z""","978","materials/imgs/D80.png","arrowleft","","[""materials/imgs/D103.png"",""materials/imgs/D53.png""]","false","random","","",""
"","","","","","html-keyboard-response","165","243569","0.0-15.0-0.1-0.13","jqm00rtl73","","jqm00rtl73","""2024-11-18T20:52:33.724Z""","null","+","null","","","","","","",""
"","","","","","image-keyboard-response","166","245324","0.0-15.0-0.1-1.13","jqm00rtl73","","jqm00rtl73","""2024-11-18T20:52:33.724Z""","1753","materials/imgs/D74.png","arrowleft","","[""materials/imgs/D46.png"",""materials/imgs/D81.png""]","false","random","","",""
"","","","","","html-keyboard-response","167","245824","0.0-15.0-1.1-0.1","jqm00rtl73","","jqm00rtl73","""2024-11-18T20:52:33.724Z""","null","+","null","","","","","","",""
"","","","","","image-keyboard-response","168","246446","0.0-15.0-1.1-1.1","jqm00rtl73","","jqm00rtl73","""2024-11-18T20:52:33.724Z""","620","materials/imgs/D64.png","arrowleft","","[""materials/imgs/D64.png"",""materials/imgs/D53.png""]","","check","materials/imgs/D64.png","0","true"
"","","","","","html-keyboard-response","169","246948","0.0-15.0-2.1-0.2","jqm00rtl73","","jqm00rtl73","""2024-11-18T20:52:33.724Z""","null","+","null","","","","","","",""
"","","","","","image-keyboard-response","170","247986","0.0-15.0-2.1-1.2","jqm00rtl73","","jqm00rtl73","""2024-11-18T20:52:33.724Z""","1036","materials/imgs/D106.png","arrowleft","","[""materials/imgs/D57.png"",""materials/imgs/D18.png""]","false","validation","","",""
"","","","","","html-keyboard-response","171","248487","0.0-15.0-2.1-0.3","jqm00rtl73","","jqm00rtl73","""2024-11-18T20:52:33.724Z""","null","+","null","","","","","","",""
"","","","","","image-keyboard-response","172","249457","0.0-15.0-2.1-1.3","jqm00rtl73","","jqm00rtl73","""2024-11-18T20:52:33.724Z""","969","materials/imgs/D19.png","arrowright","","[""materials/imgs/D111.png"",""materials/imgs/D56.png""]","false","validation","","",""
"","","","","","html-keyboard-response","173","249958","0.0-15.0-0.2-0.14","jqm00rtl73","","jqm00rtl73","""2024-11-18T20:52:33.724Z""","null","+","null","","","","","","",""
"","","","","","image-keyboard-response","174","251130","0.0-15.0-0.2-1.14","jqm00rtl73","","jqm00rtl73","""2024-11-18T20:52:33.724Z""","1170","materials/imgs/D35.png","arrowright","","[""materials/imgs/D79.png"",""materials/imgs/D56.png""]","false","random","","",""
"","","","","","html-keyboard-response","175","251632","0.0-15.0-0.2-0.15","jqm00rtl73","","jqm00rtl73","""2024-11-18T20:52:33.724Z""","null","+","null","","","","","","",""
"","","","","","image-keyboard-response","176","252412","0.0-15.0-0.2-1.15","jqm00rtl73","","jqm00rtl73","""2024-11-18T20:52:33.724Z""","778","materials/imgs/D22.png","arrowright","","[""materials/imgs/D26.png"",""materials/imgs/D29.png""]","false","random","","",""
"","","","","","html-keyboard-response","177","252913","0.0-15.0-0.2-0.16","jqm00rtl73","","jqm00rtl73","""2024-11-18T20:52:33.724Z""","null","+","null","","","","","","",""
"","","","","","image-keyboard-response","178","253907","0.0-15.0-0.2-1.16","jqm00rtl73","","jqm00rtl73","""2024-11-18T20:52:33.724Z""","991","materials/imgs/D11.png","arrowleft","","[""materials/imgs/D111.png"",""materials/imgs/D8.png""]","false","random","","",""
"","","","","","html-keyboard-response","179","254408","0.0-15.0-0.2-0.17","jqm00rtl73","","jqm00rtl73","""2024-11-18T20:52:33.724Z""","null","+","null","","","","","","",""
"","","","","","image-keyboard-response","180","255040","0.0-15.0-0.2-1.17","jqm00rtl73","","jqm00rtl73","""2024-11-18T20:52:33.724Z""","630","materials/imgs/D55.png","arrowleft","","[""materials/imgs/D103.png"",""materials/imgs/D101.png""]","false","random","","",""
"","","","","","html-keyboard-response","181","255541","0.0-15.0-0.2-0.18","jqm00rtl73","","jqm00rtl73","""2024-11-18T20:52:33.724Z""","null","+","null","","","","","","",""
"","","","","","image-keyboard-response","182","256173","0.0-15.0-0.2-1.18","jqm00rtl73","","jqm00rtl73","""2024-11-18T20:52:33.724Z""","631","materials/imgs/D79.png","arrowleft","","[""materials/imgs/D36.png"",""materials/imgs/D101.png""]","false","random","","",""
"","","","","","html-keyboard-response","183","256675","0.0-15.0-0.2-0.19","jqm00rtl73","","jqm00rtl73","""2024-11-18T20:52:33.724Z""","null","+","null","","","","","","",""
"","","","","","image-keyboard-response","184","257679","0.0-15.0-0.2-1.19","jqm00rtl73","","jqm00rtl73","""2024-11-18T20:52:33.724Z""","1002","materials/imgs/D75.png","arrowright","","[""materials/imgs/D92.png"",""materials/imgs/D37.png""]","false","random","","",""
"","","","","","html-keyboard-response","185","258180","0.0-15.0-0.2-0.20","jqm00rtl73","","jqm00rtl73","""2024-11-18T20:52:33.724Z""","null","+","null","","","","","","",""
"","","","","","image-keyboard-response","186","258907","0.0-15.0-0.2-1.20","jqm00rtl73","","jqm00rtl73","""2024-11-18T20:52:33.724Z""","725","materials/imgs/D53.png","arrowright","","[""materials/imgs/D52.png"",""materials/imgs/D6.png""]","false","random","","",""
"","","","","","html-keyboard-response","187","259408","0.0-15.0-1.2-0.2","jqm00rtl73","","jqm00rtl73","""2024-11-18T20:52:33.724Z""","null","+","null","","","","","","",""
"","","","","","image-keyboard-response","188","260046","0.0-15.0-1.2-1.2","jqm00rtl73","","jqm00rtl73","""2024-11-18T20:52:33.724Z""","637","materials/imgs/D8.png","arrowright","","[""materials/imgs/D18.png"",""materials/imgs/D8.png""]","","check","materials/imgs/D8.png","1","true"
"","","","","","html-keyboard-response","189","260548","0.0-15.0-2.2-0.4","jqm00rtl73","","jqm00rtl73","""2024-11-18T20:52:33.724Z""","null","+","null","","","","","","",""
"","","","","","image-keyboard-response","190","261930","0.0-15.0-2.2-1.4","jqm00rtl73","","jqm00rtl73","""2024-11-18T20:52:33.724Z""","1380","materials/imgs/D103.png","arrowright","","[""materials/imgs/D76.png"",""materials/imgs/D106.png""]","false","validation","","",""
"","","","","","html-keyboard-response","191","262432","0.0-15.0-2.2-0.5","jqm00rtl73","","jqm00rtl73","""2024-11-18T20:52:33.724Z""","null","+","null","","","","","","",""
"","","","","","image-keyboard-response","192","263523","0.0-15.0-2.2-1.5","jqm00rtl73","","jqm00rtl73","""2024-11-18T20:52:33.724Z""","1090","materials/imgs/D32.png","arrowleft","","[""materials/imgs/D68.png"",""materials/imgs/D96.png""]","false","validation","","",""
"","","","","","html-keyboard-response","193","264025","0.0-15.0-0.3-0.21","jqm00rtl73","","jqm00rtl73","""2024-11-18T20:52:33.724Z""","null","+","null","","","","","","",""
"","","","","","image-keyboard-response","194","266357","0.0-15.0-0.3-1.21","jqm00rtl73","","jqm00rtl73","""2024-11-18T20:52:33.724Z""","2330","materials/imgs/D102.png","arrowright","","[""materials/imgs/D77.png"",""materials/imgs/D9.png""]","false","random","","",""
"","","","","","html-keyboard-response","195","266859","0.0-15.0-0.3-0.22","jqm00rtl73","","jqm00rtl73","""2024-11-18T20:52:33.724Z""","null","+","null","","","","","","",""
"","","","","","image-keyboard-response","196","268389","0.0-15.0-0.3-1.22","jqm00rtl73","","jqm00rtl73","""2024-11-18T20:52:33.724Z""","1528","materials/imgs/D52.png","arrowleft","","[""materials/imgs/D82.png"",""materials/imgs/D106.png""]","false","random","","",""
"","","","","","html-keyboard-response","197","268890","0.0-15.0-0.3-0.23","jqm00rtl73","","jqm00rtl73","""2024-11-18T20:52:33.724Z""","null","+","null","","","","","","",""
"","","","","","image-keyboard-response","198","269532","0.0-15.0-0.3-1.23","jqm00rtl73","","jqm00rtl73","""2024-11-18T20:52:33.724Z""","640","materials/imgs/D36.png","arrowright","","[""materials/imgs/D77.png"",""materials/imgs/D14.png""]","false","random","","",""
"","","","","","html-keyboard-response","199","270033","0.0-15.0-0.3-0.24","jqm00rtl73","","jqm00rtl73","""2024-11-18T20:52:33.724Z""","null","+","null","","","","","","",""
"","","","","","image-keyboard-response","200","271038","0.0-15.0-0.3-1.24","jqm00rtl73","","jqm00rtl73","""2024-11-18T20:52:33.724Z""","1002","materials/imgs/D52.png","arrowright","","[""materials/imgs/D22.png"",""materials/imgs/D6.png""]","false","random","","",""
"","","","","","html-keyboard-response","201","271539","0.0-15.0-0.3-0.25","jqm00rtl73","","jqm00rtl73","""2024-11-18T20:52:33.724Z""","null","+","null","","","","","","",""
"","","","","","image-keyboard-response","202","272198","0.0-15.0-0.3-1.25","jqm00rtl73","","jqm00rtl73","""2024-11-18T20:52:33.724Z""","657","materials/imgs/D82.png","arrowright","","[""materials/imgs/D21.png"",""materials/imgs/D17.png""]","false","random","","",""
"","","","","","html-keyboard-response","203","272699","0.0-15.0-0.3-0.26","jqm00rtl73","","jqm00rtl73","""2024-11-18T20:52:33.724Z""","null","+","null","","","","","","",""
"","","","","","image-keyboard-response","204","273395","0.0-15.0-0.3-1.26","jqm00rtl73","","jqm00rtl73","""2024-11-18T20:52:33.724Z""","694","materials/imgs/D8.png","arrowleft","","[""materials/imgs/D66.png"",""materials/imgs/D104.png""]","false","random","","",""
"","","","","","html-keyboard-response","205","273897","0.0-15.0-0.3-0.27","jqm00rtl73","","jqm00rtl73","""2024-11-18T20:52:33.724Z""","null","+","null","","","","","","",""
"","","","","","image-keyboard-response","206","274547","0.0-15.0-0.3-1.27","jqm00rtl73","","jqm00rtl73","""2024-11-18T20:52:33.724Z""","649","materials/imgs/D37.png","arrowright","","[""materials/imgs/D75.png"",""materials/imgs/D35.png""]","false","random","","",""
"","","","","","html-keyboard-response","207","275049","0.0-15.0-1.3-0.3","jqm00rtl73","","jqm00rtl73","""2024-11-18T20:52:33.724Z""","null","+","null","","","","","","",""
"","","","","","image-keyboard-response","208","275610","0.0-15.0-1.3-1.3","jqm00rtl73","","jqm00rtl73","""2024-11-18T20:52:33.724Z""","560","materials/imgs/D106.png","arrowleft","","[""materials/imgs/D106.png"",""materials/imgs/D101.png""]","","check","materials/imgs/D106.png","0","true"
"","","","","","html-keyboard-response","209","276112","0.0-15.0-2.3-0.6","jqm00rtl73","","jqm00rtl73","""2024-11-18T20:52:33.724Z""","null","+","null","","","","","","",""
"","","","","","image-keyboard-response","210","276849","0.0-15.0-2.3-1.6","jqm00rtl73","","jqm00rtl73","""2024-11-18T20:52:33.724Z""","735","materials/imgs/D25.png","arrowright","","[""materials/imgs/D103.png"",""materials/imgs/D64.png""]","false","validation","","",""
"","","","","","html-keyboard-response","211","277350","0.0-15.0-2.3-0.7","jqm00rtl73","","jqm00rtl73","""2024-11-18T20:52:33.724Z""","null","+","null","","","","","","",""
"","","","","","image-keyboard-response","212","277863","0.0-15.0-2.3-1.7","jqm00rtl73","","jqm00rtl73","""2024-11-18T20:52:33.724Z""","511","materials/imgs/D57.png","arrowright","","[""materials/imgs/D111.png"",""materials/imgs/D4.png""]","false","validation","","",""
"","","","","","html-keyboard-response","213","278364","0.0-15.0-0.4-0.28","jqm00rtl73","","jqm00rtl73","""2024-11-18T20:52:33.724Z""","null","+","null","","","","","","",""
"","","","","","image-keyboard-response","214","279212","0.0-15.0-0.4-1.28","jqm00rtl73","","jqm00rtl73","""2024-11-18T20:52:33.724Z""","847","materials/imgs/D64.png","arrowleft","","[""materials/imgs/D25.png"",""materials/imgs/D17.png""]","false","random","","",""
"","","","","","html-keyboard-response","215","279713","0.0-15.0-0.4-0.29","jqm00rtl73","","jqm00rtl73","""2024-11-18T20:52:33.724Z""","null","+","null","","","","","","",""
"","","","","","image-keyboard-response","216","280258","0.0-15.0-0.4-1.29","jqm00rtl73","","jqm00rtl73","""2024-11-18T20:52:33.724Z""","543","materials/imgs/D105.png","arrowright","","[""materials/imgs/D47.png"",""materials/imgs/D14.png""]","false","random","","",""
"","","","","","html-keyboard-response","217","280759","0.0-15.0-0.4-0.30","jqm00rtl73","","jqm00rtl73","""2024-11-18T20:52:33.724Z""","null","+","null","","","","","","",""
"","","","","","image-keyboard-response","218","282156","0.0-15.0-0.4-1.30","jqm00rtl73","","jqm00rtl73","""2024-11-18T20:52:33.724Z""","1395","materials/imgs/D24.png","arrowleft","","[""materials/imgs/D104.png"",""materials/imgs/D111.png""]","false","random","","",""
"","","","","","html-keyboard-response","219","282658","0.0-15.0-0.4-0.31","jqm00rtl73","","jqm00rtl73","""2024-11-18T20:52:33.724Z""","null","+","null","","","","","","",""
"","","","","","image-keyboard-response","220","283885","0.0-15.0-0.4-1.31","jqm00rtl73","","jqm00rtl73","""2024-11-18T20:52:33.724Z""","1226","materials/imgs/D74.png","arrowleft","","[""materials/imgs/D36.png"",""materials/imgs/D21.png""]","false","random","","",""
"","","","","","html-keyboard-response","221","284386","0.0-15.0-0.4-0.32","jqm00rtl73","","jqm00rtl73","""2024-11-18T20:52:33.724Z""","null","+","null","","","","","","",""
"","","","","","image-keyboard-response","222","285072","0.0-15.0-0.4-1.32","jqm00rtl73","","jqm00rtl73","""2024-11-18T20:52:33.724Z""","684","materials/imgs/D24.png","arrowright","","[""materials/imgs/D48.png"",""materials/imgs/D85.png""]","false","random","","",""
"","","","","","html-keyboard-response","223","285573","0.0-15.0-0.4-0.33","jqm00rtl73","","jqm00rtl73","""2024-11-18T20:52:33.724Z""","null","+","null","","","","","","",""
"","","","","","image-keyboard-response","224","286695","0.0-15.0-0.4-1.33","jqm00rtl73","","jqm00rtl73","""2024-11-18T20:52:33.724Z""","1120","materials/imgs/D65.png","arrowright","","[""materials/imgs/D26.png"",""materials/imgs/D66.png""]","false","random","","",""
"","","","","","html-keyboard-response","225","287197","0.0-15.0-0.4-0.34","jqm00rtl73","","jqm00rtl73","""2024-11-18T20:52:33.724Z""","null","+","null","","","","","","",""
"","","","","","image-keyboard-response","226","288008","0.0-15.0-0.4-1.34","jqm00rtl73","","jqm00rtl73","""2024-11-18T20:52:33.724Z""","809","materials/imgs/D9.png","arrowleft","","[""materials/imgs/D84.png"",""materials/imgs/D36.png""]","false","random","","",""
"","","","","","html-keyboard-response","227","288509","0.0-15.0-1.4-0.4","jqm00rtl73","","jqm00rtl73","""2024-11-18T20:52:33.724Z""","null","+","null","","","","","","",""
"","","","","","image-keyboard-response","228","289100","0.0-15.0-1.4-1.4","jqm00rtl73","","jqm00rtl73","""2024-11-18T20:52:33.724Z""","589","materials/imgs/D46.png","arrowleft","","[""materials/imgs/D46.png"",""materials/imgs/D26.png""]","","check","materials/imgs/D46.png","0","true"
"","","","","","html-keyboard-response","229","289601","0.0-15.0-2.4-0.8","jqm00rtl73","","jqm00rtl73","""2024-11-18T20:52:33.724Z""","null","+","null","","","","","","",""
"","","","","","image-keyboard-response","230","291198","0.0-15.0-2.4-1.8","jqm00rtl73","","jqm00rtl73","""2024-11-18T20:52:33.724Z""","1595","materials/imgs/D1.png","arrowright","","[""materials/imgs/D57.png"",""materials/imgs/D76.png""]","false","validation","","",""
"","","","","","html-keyboard-response","231","291699","0.0-15.0-2.4-0.9","jqm00rtl73","","jqm00rtl73","""2024-11-18T20:52:33.724Z""","null","+","null","","","","","","",""
"","","","","","image-keyboard-response","232","292590","0.0-15.0-2.4-1.9","jqm00rtl73","","jqm00rtl73","""2024-11-18T20:52:33.724Z""","889","materials/imgs/D18.png","arrowleft","","[""materials/imgs/D32.png"",""materials/imgs/D57.png""]","false","validation","","",""
"","","","","","html-button-response","233","295670","0.0-16.0","jqm00rtl73","","jqm00rtl73","""2024-11-18T20:52:33.724Z""","3079","You have completed 50% of the trials. Please click 'Continue' when you are ready proceed.","0","","","","","","",""
"","","","","","html-keyboard-response","234","296171","0.0-17.0-0.0-0.0","jqm00rtl73","","jqm00rtl73","""2024-11-18T20:52:33.724Z""","null","+","null","","","","","","",""
"","","","","","image-keyboard-response","235","296712","0.0-17.0-0.0-1.0","jqm00rtl73","","jqm00rtl73","""2024-11-18T20:52:33.724Z""","539","materials/imgs/D16.png","arrowright","","[""materials/imgs/D1.png"",""materials/imgs/D17.png""]","false","random","","",""
"","","","","","html-keyboard-response","236","297213","0.0-17.0-0.0-0.1","jqm00rtl73","","jqm00rtl73","""2024-11-18T20:52:33.724Z""","null","+","null","","","","","","",""
"","","","","","image-keyboard-response","237","298016","0.0-17.0-0.0-1.1","jqm00rtl73","","jqm00rtl73","""2024-11-18T20:52:33.724Z""","801","materials/imgs/D51.png","arrowright","","[""materials/imgs/D96.png"",""materials/imgs/D87.png""]","false","random","","",""
"","","","","","html-keyboard-response","238","298517","0.0-17.0-0.0-0.2","jqm00rtl73","","jqm00rtl73","""2024-11-18T20:52:33.724Z""","null","+","null","","","","","","",""
"","","","","","image-keyboard-response","239","299304","0.0-17.0-0.0-1.2","jqm00rtl73","","jqm00rtl73","""2024-11-18T20:52:33.724Z""","786","materials/imgs/D56.png","arrowright","","[""materials/imgs/D6.png"",""materials/imgs/D9.png""]","false","random","","",""
"","","","","","html-keyboard-response","240","299805","0.0-17.0-0.0-0.3","jqm00rtl73","","jqm00rtl73","""2024-11-18T20:52:33.724Z""","null","+","null","","","","","","",""
"","","","","","image-keyboard-response","241","300714","0.0-17.0-0.0-1.3","jqm00rtl73","","jqm00rtl73","""2024-11-18T20:52:33.724Z""","907","materials/imgs/D25.png","arrowleft","","[""materials/imgs/D64.png"",""materials/imgs/D102.png""]","false","random","","",""
"","","","","","html-keyboard-response","242","301215","0.0-17.0-0.0-0.4","jqm00rtl73","","jqm00rtl73","""2024-11-18T20:52:33.724Z""","null","+","null","","","","","","",""
"","","","","","image-keyboard-response","243","302022","0.0-17.0-0.0-1.4","jqm00rtl73","","jqm00rtl73","""2024-11-18T20:52:33.724Z""","805","materials/imgs/D52.png","arrowleft","","[""materials/imgs/D66.png"",""materials/imgs/D25.png""]","false","random","","",""
"","","","","","html-keyboard-response","244","302524","0.0-17.0-0.0-0.5","jqm00rtl73","","jqm00rtl73","""2024-11-18T20:52:33.724Z""","null","+","null","","","","","","",""
"","","","","","image-keyboard-response","245","303239","0.0-17.0-0.0-1.5","jqm00rtl73","","jqm00rtl73","""2024-11-18T20:52:33.724Z""","714","materials/imgs/D55.png","arrowleft","","[""materials/imgs/D84.png"",""materials/imgs/D92.png""]","false","random","","",""
"","","","","","html-keyboard-response","246","303740","0.0-17.0-0.0-0.6","jqm00rtl73","","jqm00rtl73","""2024-11-18T20:52:33.724Z""","null","+","null","","","","","","",""
"","","","","","image-keyboard-response","247","304321","0.0-17.0-0.0-1.6","jqm00rtl73","","jqm00rtl73","""2024-11-18T20:52:33.724Z""","578","materials/imgs/D21.png","arrowright","","[""materials/imgs/D55.png"",""materials/imgs/D16.png""]","false","random","","",""
"","","","","","html-keyboard-response","248","304822","0.0-17.0-1.0-0.0","jqm00rtl73","","jqm00rtl73","""2024-11-18T20:52:33.724Z""","null","+","null","","","","","","",""
"","","","","","image-keyboard-response","249","305404","0.0-17.0-1.0-1.0","jqm00rtl73","","jqm00rtl73","""2024-11-18T20:52:33.724Z""","581","materials/imgs/D18.png","arrowright","","[""materials/imgs/D8.png"",""materials/imgs/D18.png""]","","check","materials/imgs/D18.png","1","true"
"","","","","","html-keyboard-response","250","305905","0.0-17.0-2.0-0.0","jqm00rtl73","","jqm00rtl73","""2024-11-18T20:52:33.724Z""","null","+","null","","","","","","",""
"","","","","","image-keyboard-response","251","307514","0.0-17.0-2.0-1.0","jqm00rtl73","","jqm00rtl73","""2024-11-18T20:52:33.724Z""","1607","materials/imgs/D36.png","arrowleft","","[""materials/imgs/D47.png"",""materials/imgs/D49.png""]","false","validation","","",""
"","","","","","html-keyboard-response","252","308016","0.0-17.0-2.0-0.1","jqm00rtl73","","jqm00rtl73","""2024-11-18T20:52:33.724Z""","null","+","null","","","","","","",""
"","","","","","image-keyboard-response","253","308623","0.0-17.0-2.0-1.1","jqm00rtl73","","jqm00rtl73","""2024-11-18T20:52:33.724Z""","605","materials/imgs/D35.png","arrowright","","[""materials/imgs/D83.png"",""materials/imgs/D24.png""]","false","validation","","",""
"","","","","","html-keyboard-response","254","309124","0.0-17.0-0.1-0.7","jqm00rtl73","","jqm00rtl73","""2024-11-18T20:52:33.724Z""","null","+","null","","","","","","",""
"","","","","","image-keyboard-response","255","310498","0.0-17.0-0.1-1.7","jqm00rtl73","","jqm00rtl73","""2024-11-18T20:52:33.724Z""","1372","materials/imgs/D74.png","arrowright","","[""materials/imgs/D95.png"",""materials/imgs/D82.png""]","false","random","","",""
"","","","","","html-keyboard-response","256","311000","0.0-17.0-0.1-0.8","jqm00rtl73","","jqm00rtl73","""2024-11-18T20:52:33.724Z""","null","+","null","","","","","","",""
"","","","","","image-keyboard-response","257","311602","0.0-17.0-0.1-1.8","jqm00rtl73","","jqm00rtl73","""2024-11-18T20:52:33.724Z""","600","materials/imgs/D24.png","arrowright","","[""materials/imgs/D11.png"",""materials/imgs/D32.png""]","false","random","","",""
"","","","","","html-keyboard-response","258","312103","0.0-17.0-0.1-0.9","jqm00rtl73","","jqm00rtl73","""2024-11-18T20:52:33.724Z""","null","+","null","","","","","","",""
"","","","","","image-keyboard-response","259","312712","0.0-17.0-0.1-1.9","jqm00rtl73","","jqm00rtl73","""2024-11-18T20:52:33.724Z""","607","materials/imgs/D6.png","arrowright","","[""materials/imgs/D87.png"",""materials/imgs/D52.png""]","false","random","","",""
"","","","","","html-keyboard-response","260","313213","0.0-17.0-0.1-0.10","jqm00rtl73","","jqm00rtl73","""2024-11-18T20:52:33.724Z""","null","+","null","","","","","","",""
"","","","","","image-keyboard-response","261","314449","0.0-17.0-0.1-1.10","jqm00rtl73","","jqm00rtl73","""2024-11-18T20:52:33.724Z""","1233","materials/imgs/D22.png","arrowright","","[""materials/imgs/D47.png"",""materials/imgs/D18.png""]","false","random","","",""
"","","","","","html-keyboard-response","262","314950","0.0-17.0-0.1-0.11","jqm00rtl73","","jqm00rtl73","""2024-11-18T20:52:33.724Z""","null","+","null","","","","","","",""
"","","","","","image-keyboard-response","263","315659","0.0-17.0-0.1-1.11","jqm00rtl73","","jqm00rtl73","""2024-11-18T20:52:33.724Z""","707","materials/imgs/D1.png","arrowright","","[""materials/imgs/D18.png"",""materials/imgs/D9.png""]","false","random","","",""
"","","","","","html-keyboard-response","264","316160","0.0-17.0-0.1-0.12","jqm00rtl73","","jqm00rtl73","""2024-11-18T20:52:33.724Z""","null","+","null","","","","","","",""
"","","","","","image-keyboard-response","265","317928","0.0-17.0-0.1-1.12","jqm00rtl73","","jqm00rtl73","""2024-11-18T20:52:33.724Z""","1766","materials/imgs/D17.png","arrowright","","[""materials/imgs/D64.png"",""materials/imgs/D1.png""]","false","random","","",""
"","","","","","html-keyboard-response","266","318430","0.0-17.0-0.1-0.13","jqm00rtl73","","jqm00rtl73","""2024-11-18T20:52:33.724Z""","null","+","null","","","","","","",""
"","","","","","image-keyboard-response","267","319656","0.0-17.0-0.1-1.13","jqm00rtl73","","jqm00rtl73","""2024-11-18T20:52:33.724Z""","1225","materials/imgs/D96.png","arrowleft","","[""materials/imgs/D65.png"",""materials/imgs/D35.png""]","false","random","","",""
"","","","","","html-keyboard-response","268","320157","0.0-17.0-1.1-0.1","jqm00rtl73","","jqm00rtl73","""2024-11-18T20:52:33.724Z""","null","+","null","","","","","","",""
"","","","","","image-keyboard-response","269","320707","0.0-17.0-1.1-1.1","jqm00rtl73","","jqm00rtl73","""2024-11-18T20:52:33.724Z""","548","materials/imgs/D8.png","arrowright","","[""materials/imgs/D18.png"",""materials/imgs/D8.png""]","","check","materials/imgs/D8.png","1","true"
"","","","","","html-keyboard-response","270","321209","0.0-17.0-2.1-0.2","jqm00rtl73","","jqm00rtl73","""2024-11-18T20:52:33.724Z""","null","+","null","","","","","","",""
"","","","","","image-keyboard-response","271","321792","0.0-17.0-2.1-1.2","jqm00rtl73","","jqm00rtl73","""2024-11-18T20:52:33.724Z""","581","materials/imgs/D82.png","arrowright","","[""materials/imgs/D83.png"",""materials/imgs/D22.png""]","false","validation","","",""
"","","","","","html-keyboard-response","272","322293","0.0-17.0-2.1-0.3","jqm00rtl73","","jqm00rtl73","""2024-11-18T20:52:33.724Z""","null","+","null","","","","","","",""
"","","","","","image-keyboard-response","273","323719","0.0-17.0-2.1-1.3","jqm00rtl73","","jqm00rtl73","""2024-11-18T20:52:33.724Z""","1425","materials/imgs/D8.png","arrowright","","[""materials/imgs/D101.png"",""materials/imgs/D52.png""]","false","validation","","",""
"","","","","","html-keyboard-response","274","324221","0.0-17.0-0.2-0.14","jqm00rtl73","","jqm00rtl73","""2024-11-18T20:52:33.724Z""","null","+","null","","","","","","",""
"","","","","","image-keyboard-response","275","325240","0.0-17.0-0.2-1.14","jqm00rtl73","","jqm00rtl73","""2024-11-18T20:52:33.724Z""","1017","materials/imgs/D22.png","arrowright","","[""materials/imgs/D84.png"",""materials/imgs/D47.png""]","false","random","","",""
"","","","","","html-keyboard-response","276","325742","0.0-17.0-0.2-0.15","jqm00rtl73","","jqm00rtl73","""2024-11-18T20:52:33.724Z""","null","+","null","","","","","","",""
"","","","","","image-keyboard-response","277","326759","0.0-17.0-0.2-1.15","jqm00rtl73","","jqm00rtl73","""2024-11-18T20:52:33.724Z""","1015","materials/imgs/D85.png","arrowright","","[""materials/imgs/D65.png"",""materials/imgs/D37.png""]","false","random","","",""
"","","","","","html-keyboard-response","278","327260","0.0-17.0-0.2-0.16","jqm00rtl73","","jqm00rtl73","""2024-11-18T20:52:33.724Z""","null","+","null","","","","","","",""
"","","","","","image-keyboard-response","279","328117","0.0-17.0-0.2-1.16","jqm00rtl73","","jqm00rtl73","""2024-11-18T20:52:33.724Z""","854","materials/imgs/D20.png","arrowright","","[""materials/imgs/D32.png"",""materials/imgs/D80.png""]","false","random","","",""
"","","","","","html-keyboard-response","280","328618","0.0-17.0-0.2-0.17","jqm00rtl73","","jqm00rtl73","""2024-11-18T20:52:33.724Z""","null","+","null","","","","","","",""
"","","","","","image-keyboard-response","281","329507","0.0-17.0-0.2-1.17","jqm00rtl73","","jqm00rtl73","""2024-11-18T20:52:33.724Z""","887","materials/imgs/D21.png","arrowright","","[""materials/imgs/D20.png"",""materials/imgs/D76.png""]","false","random","","",""
"","","","","","html-keyboard-response","282","330009","0.0-17.0-0.2-0.18","jqm00rtl73","","jqm00rtl73","""2024-11-18T20:52:33.724Z""","null","+","null","","","","","","",""
"","","","","","image-keyboard-response","283","331514","0.0-17.0-0.2-1.18","jqm00rtl73","","jqm00rtl73","""2024-11-18T20:52:33.724Z""","1503","materials/imgs/D48.png","arrowleft","","[""materials/imgs/D104.png"",""materials/imgs/D55.png""]","false","random","","",""
"","","","","","html-keyboard-response","284","332014","0.0-17.0-0.2-0.19","jqm00rtl73","","jqm00rtl73","""2024-11-18T20:52:33.724Z""","null","+","null","","","","","","",""
"","","","","","image-keyboard-response","285","332918","0.0-17.0-0.2-1.19","jqm00rtl73","","jqm00rtl73","""2024-11-18T20:52:33.724Z""","902","materials/imgs/D82.png","arrowleft","","[""materials/imgs/D32.png"",""materials/imgs/D46.png""]","false","random","","",""
"","","","","","html-keyboard-response","286","333420","0.0-17.0-0.2-0.20","jqm00rtl73","","jqm00rtl73","""2024-11-18T20:52:33.724Z""","null","+","null","","","","","","",""
"","","","","","image-keyboard-response","287","334138","0.0-17.0-0.2-1.20","jqm00rtl73","","jqm00rtl73","""2024-11-18T20:52:33.724Z""","711","materials/imgs/D1.png","arrowright","","[""materials/imgs/D26.png"",""materials/imgs/D102.png""]","false","random","","",""
"","","","","","html-keyboard-response","288","334640","0.0-17.0-1.2-0.2","jqm00rtl73","","jqm00rtl73","""2024-11-18T20:52:33.724Z""","null","+","null","","","","","","",""
"","","","","","image-keyboard-response","289","335459","0.0-17.0-1.2-1.2","jqm00rtl73","","jqm00rtl73","""2024-11-18T20:52:33.724Z""","817","materials/imgs/D53.png","arrowright","","[""materials/imgs/D64.png"",""materials/imgs/D53.png""]","","check","materials/imgs/D53.png","1","true"
"","","","","","html-keyboard-response","290","335960","0.0-17.0-2.2-0.4","jqm00rtl73","","jqm00rtl73","""2024-11-18T20:52:33.724Z""","null","+","null","","","","","","",""
"","","","","","image-keyboard-response","291","337506","0.0-17.0-2.2-1.4","jqm00rtl73","","jqm00rtl73","""2024-11-18T20:52:33.724Z""","1544","materials/imgs/D37.png","arrowleft","","[""materials/imgs/D84.png"",""materials/imgs/D111.png""]","false","validation","","",""
"","","","","","html-keyboard-response","292","338007","0.0-17.0-2.2-0.5","jqm00rtl73","","jqm00rtl73","""2024-11-18T20:52:33.724Z""","null","+","null","","","","","","",""
"","","","","","image-keyboard-response","293","339274","0.0-17.0-2.2-1.5","jqm00rtl73","","jqm00rtl73","""2024-11-18T20:52:33.724Z""","1266","materials/imgs/D65.png","arrowleft","","[""materials/imgs/D4.png"",""materials/imgs/D16.png""]","false","validation","","",""
"","","","","","html-keyboard-response","294","339776","0.0-17.0-0.3-0.21","jqm00rtl73","","jqm00rtl73","""2024-11-18T20:52:33.724Z""","null","+","null","","","","","","",""
"","","","","","image-keyboard-response","295","341653","0.0-17.0-0.3-1.21","jqm00rtl73","","jqm00rtl73","""2024-11-18T20:52:33.724Z""","1875","materials/imgs/D104.png","arrowleft","","[""materials/imgs/D1.png"",""materials/imgs/D26.png""]","false","random","","",""
"","","","","","html-keyboard-response","296","342155","0.0-17.0-0.3-0.22","jqm00rtl73","","jqm00rtl73","""2024-11-18T20:52:33.724Z""","null","+","null","","","","","","",""
"","","","","","image-keyboard-response","297","342904","0.0-17.0-0.3-1.22","jqm00rtl73","","jqm00rtl73","""2024-11-18T20:52:33.724Z""","747","materials/imgs/D64.png","arrowright","","[""materials/imgs/D53.png"",""materials/imgs/D105.png""]","false","random","","",""
"","","","","","html-keyboard-response","298","343405","0.0-17.0-0.3-0.23","jqm00rtl73","","jqm00rtl73","""2024-11-18T20:52:33.724Z""","null","+","null","","","","","","",""
"","","","","","image-keyboard-response","299","344248","0.0-17.0-0.3-1.23","jqm00rtl73","","jqm00rtl73","""2024-11-18T20:52:33.724Z""","841","materials/imgs/D51.png","arrowright","","[""materials/imgs/D106.png"",""materials/imgs/D18.png""]","false","random","","",""
"","","","","","html-keyboard-response","300","344749","0.0-17.0-0.3-0.24","jqm00rtl73","","jqm00rtl73","""2024-11-18T20:52:33.724Z""","null","+","null","","","","","","",""
"","","","","","image-keyboard-response","301","345418","0.0-17.0-0.3-1.24","jqm00rtl73","","jqm00rtl73","""2024-11-18T20:52:33.724Z""","668","materials/imgs/D17.png","arrowleft","","[""materials/imgs/D24.png"",""materials/imgs/D8.png""]","false","random","","",""
"","","","","","html-keyboard-response","302","345920","0.0-17.0-0.3-0.25","jqm00rtl73","","jqm00rtl73","""2024-11-18T20:52:33.724Z""","null","+","null","","","","","","",""
"","","","","","image-keyboard-response","303","346725","0.0-17.0-0.3-1.25","jqm00rtl73","","jqm00rtl73","""2024-11-18T20:52:33.724Z""","804","materials/imgs/D20.png","arrowleft","","[""materials/imgs/D35.png"",""materials/imgs/D106.png""]","false","random","","",""
"","","","","","html-keyboard-response","304","347227","0.0-17.0-0.3-0.26","jqm00rtl73","","jqm00rtl73","""2024-11-18T20:52:33.724Z""","null","+","null","","","","","","",""
"","","","","","image-keyboard-response","305","347972","0.0-17.0-0.3-1.26","jqm00rtl73","","jqm00rtl73","""2024-11-18T20:52:33.724Z""","744","materials/imgs/D111.png","arrowleft","","[""materials/imgs/D35.png"",""materials/imgs/D106.png""]","false","random","","",""
"","","","","","html-keyboard-response","306","348474","0.0-17.0-0.3-0.27","jqm00rtl73","","jqm00rtl73","""2024-11-18T20:52:33.724Z""","null","+","null","","","","","","",""
"","","","","","image-keyboard-response","307","349120","0.0-17.0-0.3-1.27","jqm00rtl73","","jqm00rtl73","""2024-11-18T20:52:33.724Z""","644","materials/imgs/D79.png","arrowright","","[""materials/imgs/D48.png"",""materials/imgs/D76.png""]","false","random","","",""
"","","","","","html-keyboard-response","308","349621","0.0-17.0-1.3-0.3","jqm00rtl73","","jqm00rtl73","""2024-11-18T20:52:33.724Z""","null","+","null","","","","","","",""
"","","","","","image-keyboard-response","309","350157","0.0-17.0-1.3-1.3","jqm00rtl73","","jqm00rtl73","""2024-11-18T20:52:33.724Z""","534","materials/imgs/D106.png","arrowleft","","[""materials/imgs/D106.png"",""materials/imgs/D101.png""]","","check","materials/imgs/D106.png","0","true"
"","","","","","html-keyboard-response","310","350658","0.0-17.0-2.3-0.6","jqm00rtl73","","jqm00rtl73","""2024-11-18T20:52:33.724Z""","null","+","null","","","","","","",""
"","","","","","image-keyboard-response","311","351775","0.0-17.0-2.3-1.6","jqm00rtl73","","jqm00rtl73","""2024-11-18T20:52:33.724Z""","1115","materials/imgs/D46.png","arrowleft","","[""materials/imgs/D92.png"",""materials/imgs/D77.png""]","false","validation","","",""
"","","","","","html-keyboard-response","312","352276","0.0-17.0-2.3-0.7","jqm00rtl73","","jqm00rtl73","""2024-11-18T20:52:33.724Z""","null","+","null","","","","","","",""
"","","","","","image-keyboard-response","313","353225","0.0-17.0-2.3-1.7","jqm00rtl73","","jqm00rtl73","""2024-11-18T20:52:33.724Z""","948","materials/imgs/D84.png","arrowleft","","[""materials/imgs/D106.png"",""materials/imgs/D37.png""]","false","validation","","",""
"","","","","","html-keyboard-response","314","353726","0.0-17.0-0.4-0.28","jqm00rtl73","","jqm00rtl73","""2024-11-18T20:52:33.724Z""","null","+","null","","","","","","",""
"","","","","","image-keyboard-response","315","354470","0.0-17.0-0.4-1.28","jqm00rtl73","","jqm00rtl73","""2024-11-18T20:52:33.724Z""","742","materials/imgs/D20.png","arrowright","","[""materials/imgs/D77.png"",""materials/imgs/D11.png""]","false","random","","",""
"","","","","","html-keyboard-response","316","354971","0.0-17.0-0.4-0.29","jqm00rtl73","","jqm00rtl73","""2024-11-18T20:52:33.724Z""","null","+","null","","","","","","",""
"","","","","","image-keyboard-response","317","355640","0.0-17.0-0.4-1.29","jqm00rtl73","","jqm00rtl73","""2024-11-18T20:52:33.724Z""","666","materials/imgs/D80.png","arrowright","","[""materials/imgs/D96.png"",""materials/imgs/D66.png""]","false","random","","",""
"","","","","","html-keyboard-response","318","356141","0.0-17.0-0.4-0.30","jqm00rtl73","","jqm00rtl73","""2024-11-18T20:52:33.724Z""","null","+","null","","","","","","",""
"","","","","","image-keyboard-response","319","357001","0.0-17.0-0.4-1.30","jqm00rtl73","","jqm00rtl73","""2024-11-18T20:52:33.724Z""","858","materials/imgs/D11.png","arrowleft","","[""materials/imgs/D18.png"",""materials/imgs/D77.png""]","false","random","","",""
"","","","","","html-keyboard-response","320","357502","0.0-17.0-0.4-0.31","jqm00rtl73","","jqm00rtl73","""2024-11-18T20:52:33.724Z""","null","+","null","","","","","","",""
"","","","","","image-keyboard-response","321","359052","0.0-17.0-0.4-1.31","jqm00rtl73","","jqm00rtl73","""2024-11-18T20:52:33.724Z""","1548","materials/imgs/D94.png","arrowright","","[""materials/imgs/D87.png"",""materials/imgs/D3.png""]","false","random","","",""
"","","","","","html-keyboard-response","322","359553","0.0-17.0-0.4-0.32","jqm00rtl73","","jqm00rtl73","""2024-11-18T20:52:33.724Z""","null","+","null","","","","","","",""
"","","","","","image-keyboard-response","323","360412","0.0-17.0-0.4-1.32","jqm00rtl73","","jqm00rtl73","""2024-11-18T20:52:33.724Z""","857","materials/imgs/D49.png","arrowleft","","[""materials/imgs/D24.png"",""materials/imgs/D19.png""]","false","random","","",""
"","","","","","html-keyboard-response","324","360913","0.0-17.0-0.4-0.33","jqm00rtl73","","jqm00rtl73","""2024-11-18T20:52:33.724Z""","null","+","null","","","","","","",""
"","","","","","image-keyboard-response","325","361636","0.0-17.0-0.4-1.33","jqm00rtl73","","jqm00rtl73","""2024-11-18T20:52:33.724Z""","721","materials/imgs/D85.png","arrowright","","[""materials/imgs/D22.png"",""materials/imgs/D37.png""]","false","random","","",""
"","","","","","html-keyboard-response","326","362137","0.0-17.0-0.4-0.34","jqm00rtl73","","jqm00rtl73","""2024-11-18T20:52:33.724Z""","null","+","null","","","","","","",""
"","","","","","image-keyboard-response","327","362965","0.0-17.0-0.4-1.34","jqm00rtl73","","jqm00rtl73","""2024-11-18T20:52:33.724Z""","826","materials/imgs/D53.png","arrowleft","","[""materials/imgs/D9.png"",""materials/imgs/D19.png""]","false","random","","",""
"","","","","","html-keyboard-response","328","363466","0.0-17.0-1.4-0.4","jqm00rtl73","","jqm00rtl73","""2024-11-18T20:52:33.724Z""","null","+","null","","","","","","",""
"","","","","","image-keyboard-response","329","364017","0.0-17.0-1.4-1.4","jqm00rtl73","","jqm00rtl73","""2024-11-18T20:52:33.724Z""","549","materials/imgs/D46.png","arrowleft","","[""materials/imgs/D46.png"",""materials/imgs/D26.png""]","","check","materials/imgs/D46.png","0","true"
"","","","","","html-keyboard-response","330","364518","0.0-17.0-2.4-0.8","jqm00rtl73","","jqm00rtl73","""2024-11-18T20:52:33.724Z""","null","+","null","","","","","","",""
"","","","","","image-keyboard-response","331","365295","0.0-17.0-2.4-1.8","jqm00rtl73","","jqm00rtl73","""2024-11-18T20:52:33.724Z""","774","materials/imgs/D111.png","arrowleft","","[""materials/imgs/D82.png"",""materials/imgs/D95.png""]","false","validation","","",""
"","","","","","html-keyboard-response","332","365796","0.0-17.0-2.4-0.9","jqm00rtl73","","jqm00rtl73","""2024-11-18T20:52:33.724Z""","null","+","null","","","","","","",""
"","","","","","image-keyboard-response","333","367024","0.0-17.0-2.4-1.9","jqm00rtl73","","jqm00rtl73","""2024-11-18T20:52:33.724Z""","1226","materials/imgs/D26.png","arrowright","","[""materials/imgs/D36.png"",""materials/imgs/D92.png""]","false","validation","","",""
"","","","","","html-button-response","334","369383","0.0-18.0","jqm00rtl73","","jqm00rtl73","""2024-11-18T20:52:33.724Z""","2358","You have completed 75% of the trials. Please click 'Continue' when you are ready proceed.","0","","","","","","",""
"","","","","","html-keyboard-response","335","369884","0.0-19.0-0.0-0.0","jqm00rtl73","","jqm00rtl73","""2024-11-18T20:52:33.724Z""","null","+","null","","","","","","",""
"","","","","","image-keyboard-response","336","370491","0.0-19.0-0.0-1.0","jqm00rtl73","","jqm00rtl73","""2024-11-18T20:52:33.724Z""","605","materials/imgs/D35.png","arrowleft","","[""materials/imgs/D20.png"",""materials/imgs/D51.png""]","false","random","","",""
"","","","","","html-keyboard-response","337","370993","0.0-19.0-0.0-0.1","jqm00rtl73","","jqm00rtl73","""2024-11-18T20:52:33.724Z""","null","+","null","","","","","","",""
"","","","","","image-keyboard-response","338","371603","0.0-19.0-0.0-1.1","jqm00rtl73","","jqm00rtl73","""2024-11-18T20:52:33.724Z""","609","materials/imgs/D9.png","arrowleft","","[""materials/imgs/D29.png"",""materials/imgs/D87.png""]","false","random","","",""
"","","","","","html-keyboard-response","339","372105","0.0-19.0-0.0-0.2","jqm00rtl73","","jqm00rtl73","""2024-11-18T20:52:33.724Z""","null","+","null","","","","","","",""
"","","","","","image-keyboard-response","340","372711","0.0-19.0-0.0-1.2","jqm00rtl73","","jqm00rtl73","""2024-11-18T20:52:33.724Z""","604","materials/imgs/D4.png","arrowleft","","[""materials/imgs/D9.png"",""materials/imgs/D103.png""]","false","random","","",""
"","","","","","html-keyboard-response","341","373212","0.0-19.0-0.0-0.3","jqm00rtl73","","jqm00rtl73","""2024-11-18T20:52:33.724Z""","null","+","null","","","","","","",""
"","","","","","image-keyboard-response","342","374220","0.0-19.0-0.0-1.3","jqm00rtl73","","jqm00rtl73","""2024-11-18T20:52:33.724Z""","1006","materials/imgs/D34.png","arrowright","","[""materials/imgs/D64.png"",""materials/imgs/D105.png""]","false","random","","",""
"","","","","","html-keyboard-response","343","374721","0.0-19.0-0.0-0.4","jqm00rtl73","","jqm00rtl73","""2024-11-18T20:52:33.724Z""","null","+","null","","","","","","",""
"","","","","","image-keyboard-response","344","375344","0.0-19.0-0.0-1.4","jqm00rtl73","","jqm00rtl73","""2024-11-18T20:52:33.724Z""","622","materials/imgs/D81.png","arrowright","","[""materials/imgs/D101.png"",""materials/imgs/D36.png""]","false","random","","",""
"","","","","","html-keyboard-response","345","375845","0.0-19.0-0.0-0.5","jqm00rtl73","","jqm00rtl73","""2024-11-18T20:52:33.724Z""","null","+","null","","","","","","",""
"","","","","","image-keyboard-response","346","376702","0.0-19.0-0.0-1.5","jqm00rtl73","","jqm00rtl73","""2024-11-18T20:52:33.724Z""","855","materials/imgs/D8.png","arrowright","","[""materials/imgs/D57.png"",""materials/imgs/D96.png""]","false","random","","",""
"","","","","","html-keyboard-response","347","377204","0.0-19.0-0.0-0.6","jqm00rtl73","","jqm00rtl73","""2024-11-18T20:52:33.724Z""","null","+","null","","","","","","",""
"","","","","","image-keyboard-response","348","378200","0.0-19.0-0.0-1.6","jqm00rtl73","","jqm00rtl73","""2024-11-18T20:52:33.724Z""","994","materials/imgs/D79.png","arrowright","","[""materials/imgs/D48.png"",""materials/imgs/D51.png""]","false","random","","",""
"","","","","","html-keyboard-response","349","378701","0.0-19.0-1.0-0.0","jqm00rtl73","","jqm00rtl73","""2024-11-18T20:52:33.724Z""","null","+","null","","","","","","",""
"","","","","","image-keyboard-response","350","379322","0.0-19.0-1.0-1.0","jqm00rtl73","","jqm00rtl73","""2024-11-18T20:52:33.724Z""","619","materials/imgs/D53.png","arrowright","","[""materials/imgs/D64.png"",""materials/imgs/D53.png""]","","check","materials/imgs/D53.png","1","true"
"","","","","","html-keyboard-response","351","379823","0.0-19.0-2.0-0.0","jqm00rtl73","","jqm00rtl73","""2024-11-18T20:52:33.724Z""","null","+","null","","","","","","",""
"","","","","","image-keyboard-response","352","380602","0.0-19.0-2.0-1.0","jqm00rtl73","","jqm00rtl73","""2024-11-18T20:52:33.724Z""","777","materials/imgs/D105.png","arrowleft","","[""materials/imgs/D106.png"",""materials/imgs/D52.png""]","false","validation","","",""
"","","","","","html-keyboard-response","353","381103","0.0-19.0-2.0-0.1","jqm00rtl73","","jqm00rtl73","""2024-11-18T20:52:33.724Z""","null","+","null","","","","","","",""
"","","","","","image-keyboard-response","354","381858","0.0-19.0-2.0-1.1","jqm00rtl73","","jqm00rtl73","""2024-11-18T20:52:33.724Z""","754","materials/imgs/D92.png","arrowright","","[""materials/imgs/D56.png"",""materials/imgs/D77.png""]","false","validation","","",""
"","","","","","html-keyboard-response","355","382360","0.0-19.0-0.1-0.7","jqm00rtl73","","jqm00rtl73","""2024-11-18T20:52:33.724Z""","null","+","null","","","","","","",""
"","","","","","image-keyboard-response","356","382923","0.0-19.0-0.1-1.7","jqm00rtl73","","jqm00rtl73","""2024-11-18T20:52:33.724Z""","561","materials/imgs/D53.png","arrowleft","","[""materials/imgs/D36.png"",""materials/imgs/D52.png""]","false","random","","",""
"","","","","","html-keyboard-response","357","383424","0.0-19.0-0.1-0.8","jqm00rtl73","","jqm00rtl73","""2024-11-18T20:52:33.724Z""","null","+","null","","","","","","",""
"","","","","","image-keyboard-response","358","384513","0.0-19.0-0.1-1.8","jqm00rtl73","","jqm00rtl73","""2024-11-18T20:52:33.724Z""","1088","materials/imgs/D76.png","arrowleft","","[""materials/imgs/D111.png"",""materials/imgs/D29.png""]","false","random","","",""
"","","","","","html-keyboard-response","359","385014","0.0-19.0-0.1-0.9","jqm00rtl73","","jqm00rtl73","""2024-11-18T20:52:33.724Z""","null","+","null","","","","","","",""
"","","","","","image-keyboard-response","360","386614","0.0-19.0-0.1-1.9","jqm00rtl73","","jqm00rtl73","""2024-11-18T20:52:33.724Z""","1598","materials/imgs/D3.png","arrowright","","[""materials/imgs/D105.png"",""materials/imgs/D104.png""]","false","random","","",""
"","","","","","html-keyboard-response","361","387115","0.0-19.0-0.1-0.10","jqm00rtl73","","jqm00rtl73","""2024-11-18T20:52:33.724Z""","null","+","null","","","","","","",""
"","","","","","image-keyboard-response","362","388783","0.0-19.0-0.1-1.10","jqm00rtl73","","jqm00rtl73","""2024-11-18T20:52:33.724Z""","1666","materials/imgs/D102.png","arrowright","","[""materials/imgs/D48.png"",""materials/imgs/D25.png""]","false","random","","",""
"","","","","","html-keyboard-response","363","389284","0.0-19.0-0.1-0.11","jqm00rtl73","","jqm00rtl73","""2024-11-18T20:52:33.724Z""","null","+","null","","","","","","",""
"","","","","","image-keyboard-response","364","389941","0.0-19.0-0.1-1.11","jqm00rtl73","","jqm00rtl73","""2024-11-18T20:52:33.724Z""","655","materials/imgs/D105.png","arrowright","","[""materials/imgs/D52.png"",""materials/imgs/D85.png""]","false","random","","",""
"","","","","","html-keyboard-response","365","390442","0.0-19.0-0.1-0.12","jqm00rtl73","","jqm00rtl73","""2024-11-18T20:52:33.724Z""","null","+","null","","","","","","",""
"","","","","","image-keyboard-response","366","391083","0.0-19.0-0.1-1.12","jqm00rtl73","","jqm00rtl73","""2024-11-18T20:52:33.724Z""","639","materials/imgs/D87.png","arrowright","","[""materials/imgs/D104.png"",""materials/imgs/D4.png""]","false","random","","",""
"","","","","","html-keyboard-response","367","391584","0.0-19.0-0.1-0.13","jqm00rtl73","","jqm00rtl73","""2024-11-18T20:52:33.724Z""","null","+","null","","","","","","",""
"","","","","","image-keyboard-response","368","393307","0.0-19.0-0.1-1.13","jqm00rtl73","","jqm00rtl73","""2024-11-18T20:52:33.724Z""","1721","materials/imgs/D46.png","arrowright","","[""materials/imgs/D34.png"",""materials/imgs/D64.png""]","false","random","","",""
"","","","","","html-keyboard-response","369","393809","0.0-19.0-1.1-0.1","jqm00rtl73","","jqm00rtl73","""2024-11-18T20:52:33.724Z""","null","+","null","","","","","","",""
"","","","","","image-keyboard-response","370","394382","0.0-19.0-1.1-1.1","jqm00rtl73","","jqm00rtl73","""2024-11-18T20:52:33.724Z""","572","materials/imgs/D26.png","arrowleft","","[""materials/imgs/D26.png"",""materials/imgs/D46.png""]","","check","materials/imgs/D26.png","0","true"
"","","","","","html-keyboard-response","371","394884","0.0-19.0-2.1-0.2","jqm00rtl73","","jqm00rtl73","""2024-11-18T20:52:33.724Z""","null","+","null","","","","","","",""
"","","","","","image-keyboard-response","372","396001","0.0-19.0-2.1-1.2","jqm00rtl73","","jqm00rtl73","""2024-11-18T20:52:33.724Z""","1115","materials/imgs/D20.png","arrowright","","[""materials/imgs/D84.png"",""materials/imgs/D85.png""]","false","validation","","",""
"","","","","","html-keyboard-response","373","396502","0.0-19.0-2.1-0.3","jqm00rtl73","","jqm00rtl73","""2024-11-18T20:52:33.724Z""","null","+","null","","","","","","",""
"","","","","","image-keyboard-response","374","397274","0.0-19.0-2.1-1.3","jqm00rtl73","","jqm00rtl73","""2024-11-18T20:52:33.724Z""","770","materials/imgs/D36.png","arrowright","","[""materials/imgs/D47.png"",""materials/imgs/D49.png""]","false","validation","","",""
"","","","","","html-keyboard-response","375","397775","0.0-19.0-0.2-0.14","jqm00rtl73","","jqm00rtl73","""2024-11-18T20:52:33.724Z""","null","+","null","","","","","","",""
"","","","","","image-keyboard-response","376","398458","0.0-19.0-0.2-1.14","jqm00rtl73","","jqm00rtl73","""2024-11-18T20:52:33.724Z""","681","materials/imgs/D20.png","arrowright","","[""materials/imgs/D47.png"",""materials/imgs/D82.png""]","false","random","","",""
"","","","","","html-keyboard-response","377","398959","0.0-19.0-0.2-0.15","jqm00rtl73","","jqm00rtl73","""2024-11-18T20:52:33.724Z""","null","+","null","","","","","","",""
"","","","","","image-keyboard-response","378","400200","0.0-19.0-0.2-1.15","jqm00rtl73","","jqm00rtl73","""2024-11-18T20:52:33.724Z""","1239","materials/imgs/D20.png","arrowright","","[""materials/imgs/D17.png"",""materials/imgs/D82.png""]","false","random","","",""
"","","","","","html-keyboard-response","379","400701","0.0-19.0-0.2-0.16","jqm00rtl73","","jqm00rtl73","""2024-11-18T20:52:33.724Z""","null","+","null","","","","","","",""
"","","","","","image-keyboard-response","380","402170","0.0-19.0-0.2-1.16","jqm00rtl73","","jqm00rtl73","""2024-11-18T20:52:33.724Z""","1467","materials/imgs/D1.png","arrowright","","[""materials/imgs/D79.png"",""materials/imgs/D4.png""]","false","random","","",""
"","","","","","html-keyboard-response","381","402671","0.0-19.0-0.2-0.17","jqm00rtl73","","jqm00rtl73","""2024-11-18T20:52:33.724Z""","null","+","null","","","","","","",""
"","","","","","image-keyboard-response","382","403585","0.0-19.0-0.2-1.17","jqm00rtl73","","jqm00rtl73","""2024-11-18T20:52:33.724Z""","912","materials/imgs/D77.png","arrowleft","","[""materials/imgs/D16.png"",""materials/imgs/D35.png""]","false","random","","",""
"","","","","","html-keyboard-response","383","404086","0.0-19.0-0.2-0.18","jqm00rtl73","","jqm00rtl73","""2024-11-18T20:52:33.724Z""","null","+","null","","","","","","",""
"","","","","","image-keyboard-response","384","404856","0.0-19.0-0.2-1.18","jqm00rtl73","","jqm00rtl73","""2024-11-18T20:52:33.724Z""","768","materials/imgs/D51.png","arrowleft","","[""materials/imgs/D76.png"",""materials/imgs/D3.png""]","false","random","","",""
"","","","","","html-keyboard-response","385","405358","0.0-19.0-0.2-0.19","jqm00rtl73","","jqm00rtl73","""2024-11-18T20:52:33.724Z""","null","+","null","","","","","","",""
"","","","","","image-keyboard-response","386","406720","0.0-19.0-0.2-1.19","jqm00rtl73","","jqm00rtl73","""2024-11-18T20:52:33.724Z""","1359","materials/imgs/D78.png","arrowleft","","[""materials/imgs/D64.png"",""materials/imgs/D46.png""]","false","random","","",""
"","","","","","html-keyboard-response","387","407221","0.0-19.0-0.2-0.20","jqm00rtl73","","jqm00rtl73","""2024-11-18T20:52:33.724Z""","null","+","null","","","","","","",""
"","","","","","image-keyboard-response","388","408256","0.0-19.0-0.2-1.20","jqm00rtl73","","jqm00rtl73","""2024-11-18T20:52:33.724Z""","1034","materials/imgs/D79.png","arrowleft","","[""materials/imgs/D92.png"",""materials/imgs/D25.png""]","false","random","","",""
"","","","","","html-keyboard-response","389","408757","0.0-19.0-1.2-0.2","jqm00rtl73","","jqm00rtl73","""2024-11-18T20:52:33.724Z""","null","+","null","","","","","","",""
"","","","","","image-keyboard-response","390","409350","0.0-19.0-1.2-1.2","jqm00rtl73","","jqm00rtl73","""2024-11-18T20:52:33.724Z""","591","materials/imgs/D26.png","arrowleft","","[""materials/imgs/D26.png"",""materials/imgs/D46.png""]","","check","materials/imgs/D26.png","0","true"
"","","","","","html-keyboard-response","391","409852","0.0-19.0-2.2-0.4","jqm00rtl73","","jqm00rtl73","""2024-11-18T20:52:33.724Z""","null","+","null","","","","","","",""
"","","","","","image-keyboard-response","392","411057","0.0-19.0-2.2-1.4","jqm00rtl73","","jqm00rtl73","""2024-11-18T20:52:33.724Z""","1204","materials/imgs/D85.png","arrowleft","","[""materials/imgs/D6.png"",""materials/imgs/D111.png""]","false","validation","","",""
"","","","","","html-keyboard-response","393","411558","0.0-19.0-2.2-0.5","jqm00rtl73","","jqm00rtl73","""2024-11-18T20:52:33.724Z""","null","+","null","","","","","","",""
"","","","","","image-keyboard-response","394","413014","0.0-19.0-2.2-1.5","jqm00rtl73","","jqm00rtl73","""2024-11-18T20:52:33.724Z""","1454","materials/imgs/D49.png","arrowright","","[""materials/imgs/D8.png"",""materials/imgs/D101.png""]","false","validation","","",""
"","","","","","html-keyboard-response","395","413516","0.0-19.0-0.3-0.21","jqm00rtl73","","jqm00rtl73","""2024-11-18T20:52:33.724Z""","null","+","null","","","","","","",""
"","","","","","image-keyboard-response","396","415020","0.0-19.0-0.3-1.21","jqm00rtl73","","jqm00rtl73","""2024-11-18T20:52:33.724Z""","1502","materials/imgs/D104.png","arrowright","","[""materials/imgs/D49.png"",""materials/imgs/D14.png""]","false","random","","",""
"","","","","","html-keyboard-response","397","415522","0.0-19.0-0.3-0.22","jqm00rtl73","","jqm00rtl73","""2024-11-18T20:52:33.724Z""","null","+","null","","","","","","",""
"","","","","","image-keyboard-response","398","416161","0.0-19.0-0.3-1.22","jqm00rtl73","","jqm00rtl73","""2024-11-18T20:52:33.724Z""","638","materials/imgs/D77.png","arrowleft","","[""materials/imgs/D78.png"",""materials/imgs/D18.png""]","false","random","","",""
"","","","","","html-keyboard-response","399","416663","0.0-19.0-0.3-0.23","jqm00rtl73","","jqm00rtl73","""2024-11-18T20:52:33.724Z""","null","+","null","","","","","","",""
"","","","","","image-keyboard-response","400","418306","0.0-19.0-0.3-1.23","jqm00rtl73","","jqm00rtl73","""2024-11-18T20:52:33.724Z""","1642","materials/imgs/D48.png","arrowright","","[""materials/imgs/D4.png"",""materials/imgs/D85.png""]","false","random","","",""
"","","","","","html-keyboard-response","401","418808","0.0-19.0-0.3-0.24","jqm00rtl73","","jqm00rtl73","""2024-11-18T20:52:33.724Z""","null","+","null","","","","","","",""
"","","","","","image-keyboard-response","402","419542","0.0-19.0-0.3-1.24","jqm00rtl73","","jqm00rtl73","""2024-11-18T20:52:33.724Z""","732","materials/imgs/D16.png","arrowright","","[""materials/imgs/D95.png"",""materials/imgs/D52.png""]","false","random","","",""
"","","","","","html-keyboard-response","403","420043","0.0-19.0-0.3-0.25","jqm00rtl73","","jqm00rtl73","""2024-11-18T20:52:33.724Z""","null","+","null","","","","","","",""
"","","","","","image-keyboard-response","404","421510","0.0-19.0-0.3-1.25","jqm00rtl73","","jqm00rtl73","""2024-11-18T20:52:33.724Z""","1465","materials/imgs/D95.png","arrowleft","","[""materials/imgs/D80.png"",""materials/imgs/D48.png""]","false","random","","",""
"","","","","","html-keyboard-response","405","422012","0.0-19.0-0.3-0.26","jqm00rtl73","","jqm00rtl73","""2024-11-18T20:52:33.724Z""","null","+","null","","","","","","",""
"","","","","","image-keyboard-response","406","423035","0.0-19.0-0.3-1.26","jqm00rtl73","","jqm00rtl73","""2024-11-18T20:52:33.724Z""","1021","materials/imgs/D17.png","arrowright","","[""materials/imgs/D25.png"",""materials/imgs/D51.png""]","false","random","","",""
"","","","","","html-keyboard-response","407","423536","0.0-19.0-0.3-0.27","jqm00rtl73","","jqm00rtl73","""2024-11-18T20:52:33.724Z""","null","+","null","","","","","","",""
"","","","","","image-keyboard-response","408","425159","0.0-19.0-0.3-1.27","jqm00rtl73","","jqm00rtl73","""2024-11-18T20:52:33.724Z""","1622","materials/imgs/D101.png","arrowleft","","[""materials/imgs/D37.png"",""materials/imgs/D79.png""]","false","random","","",""
"","","","","","html-keyboard-response","409","425660","0.0-19.0-1.3-0.3","jqm00rtl73","","jqm00rtl73","""2024-11-18T20:52:33.724Z""","null","+","null","","","","","","",""
"","","","","","image-keyboard-response","410","426431","0.0-19.0-1.3-1.3","jqm00rtl73","","jqm00rtl73","""2024-11-18T20:52:33.724Z""","770","materials/imgs/D18.png","arrowright","","[""materials/imgs/D8.png"",""materials/imgs/D18.png""]","","check","materials/imgs/D18.png","1","true"
"","","","","","html-keyboard-response","411","426933","0.0-19.0-2.3-0.6","jqm00rtl73","","jqm00rtl73","""2024-11-18T20:52:33.724Z""","null","+","null","","","","","","",""
"","","","","","image-keyboard-response","412","428063","0.0-19.0-2.3-1.6","jqm00rtl73","","jqm00rtl73","""2024-11-18T20:52:33.724Z""","1128","materials/imgs/D101.png","arrowright","","[""materials/imgs/D76.png"",""materials/imgs/D47.png""]","false","validation","","",""
"","","","","","html-keyboard-response","413","428564","0.0-19.0-2.3-0.7","jqm00rtl73","","jqm00rtl73","""2024-11-18T20:52:33.724Z""","null","+","null","","","","","","",""
"","","","","","image-keyboard-response","414","429620","0.0-19.0-2.3-1.7","jqm00rtl73","","jqm00rtl73","""2024-11-18T20:52:33.724Z""","1049","materials/imgs/D101.png","arrowright","","[""materials/imgs/D76.png"",""materials/imgs/D47.png""]","false","validation","","",""
"","","","","","html-keyboard-response","415","430122","0.0-19.0-0.4-0.28","jqm00rtl73","","jqm00rtl73","""2024-11-18T20:52:33.724Z""","null","+","null","","","","","","",""
"","","","","","image-keyboard-response","416","430755","0.0-19.0-0.4-1.28","jqm00rtl73","","jqm00rtl73","""2024-11-18T20:52:33.724Z""","631","materials/imgs/D20.png","arrowright","","[""materials/imgs/D18.png"",""materials/imgs/D79.png""]","false","random","","",""
"","","","","","html-keyboard-response","417","431256","0.0-19.0-0.4-0.29","jqm00rtl73","","jqm00rtl73","""2024-11-18T20:52:33.724Z""","null","+","null","","","","","","",""
"","","","","","image-keyboard-response","418","432462","0.0-19.0-0.4-1.29","jqm00rtl73","","jqm00rtl73","""2024-11-18T20:52:33.724Z""","1203","materials/imgs/D83.png","arrowright","","[""materials/imgs/D111.png"",""materials/imgs/D57.png""]","false","random","","",""
"","","","","","html-keyboard-response","419","432963","0.0-19.0-0.4-0.30","jqm00rtl73","","jqm00rtl73","""2024-11-18T20:52:33.724Z""","null","+","null","","","","","","",""
"","","","","","image-keyboard-response","420","434263","0.0-19.0-0.4-1.30","jqm00rtl73","","jqm00rtl73","""2024-11-18T20:52:33.724Z""","1298","materials/imgs/D87.png","arrowright","","[""materials/imgs/D95.png"",""materials/imgs/D3.png""]","false","random","","",""
"","","","","","html-keyboard-response","421","434765","0.0-19.0-0.4-0.31","jqm00rtl73","","jqm00rtl73","""2024-11-18T20:52:33.724Z""","null","+","null","","","","","","",""
"","","","","","image-keyboard-response","422","436974","0.0-19.0-0.4-1.31","jqm00rtl73","","jqm00rtl73","""2024-11-18T20:52:33.724Z""","2207","materials/imgs/D51.png","arrowright","","[""materials/imgs/D96.png"",""materials/imgs/D103.png""]","false","random","","",""
"","","","","","html-keyboard-response","423","437475","0.0-19.0-0.4-0.32","jqm00rtl73","","jqm00rtl73","""2024-11-18T20:52:33.724Z""","null","+","null","","","","","","",""
"","","","","","image-keyboard-response","424","438179","0.0-19.0-0.4-1.32","jqm00rtl73","","jqm00rtl73","""2024-11-18T20:52:33.724Z""","702","materials/imgs/D19.png","arrowright","","[""materials/imgs/D48.png"",""materials/imgs/D66.png""]","false","random","","",""
"","","","","","html-keyboard-response","425","438680","0.0-19.0-0.4-0.33","jqm00rtl73","","jqm00rtl73","""2024-11-18T20:52:33.724Z""","null","+","null","","","","","","",""
"","","","","","image-keyboard-response","426","439267","0.0-19.0-0.4-1.33","jqm00rtl73","","jqm00rtl73","""2024-11-18T20:52:33.724Z""","585","materials/imgs/D66.png","arrowright","","[""materials/imgs/D76.png"",""materials/imgs/D104.png""]","false","random","","",""
"","","","","","html-keyboard-response","427","439768","0.0-19.0-0.4-0.34","jqm00rtl73","","jqm00rtl73","""2024-11-18T20:52:33.724Z""","null","+","null","","","","","","",""
"","","","","","image-keyboard-response","428","440559","0.0-19.0-0.4-1.34","jqm00rtl73","","jqm00rtl73","""2024-11-18T20:52:33.724Z""","790","materials/imgs/D36.png","arrowright","","[""materials/imgs/D57.png"",""materials/imgs/D35.png""]","false","random","","",""
"","","","","","html-keyboard-response","429","441060","0.0-19.0-1.4-0.4","jqm00rtl73","","jqm00rtl73","""2024-11-18T20:52:33.724Z""","null","+","null","","","","","","",""
"","","","","","image-keyboard-response","430","441673","0.0-19.0-1.4-1.4","jqm00rtl73","","jqm00rtl73","""2024-11-18T20:52:33.724Z""","611","materials/imgs/D8.png","arrowright","","[""materials/imgs/D18.png"",""materials/imgs/D8.png""]","","check","materials/imgs/D8.png","1","true"
"","","","","","html-keyboard-response","431","442174","0.0-19.0-2.4-0.8","jqm00rtl73","","jqm00rtl73","""2024-11-18T20:52:33.724Z""","null","+","null","","","","","","",""
"","","","","","image-keyboard-response","432","443196","0.0-19.0-2.4-1.8","jqm00rtl73","","jqm00rtl73","""2024-11-18T20:52:33.724Z""","1021","materials/imgs/D47.png","arrowleft","","[""materials/imgs/D1.png"",""materials/imgs/D52.png""]","false","validation","","",""
"","","","","","html-keyboard-response","433","443697","0.0-19.0-2.4-0.9","jqm00rtl73","","jqm00rtl73","""2024-11-18T20:52:33.724Z""","null","+","null","","","","","","",""
"","","","","","image-keyboard-response","434","444286","0.0-19.0-2.4-1.9","jqm00rtl73","","jqm00rtl73","""2024-11-18T20:52:33.724Z""","587","materials/imgs/D105.png","arrowleft","","[""materials/imgs/D106.png"",""materials/imgs/D52.png""]","false","validation","","",""
