"success","timeout","failed_images","failed_audio","failed_video","trial_type","trial_index","time_elapsed","internal_node_id","subject_id","sona_id","subjectID","dateInfo","rt","stimulus","response","question_order","choices","speedy","sampleAlg","selected_image","selected_index","correct"
"true","false","[]","[]","[]","preload","0","1317","0.0-0.0","kjzxbn9rjq","","kjzxbn9rjq","""2024-11-13T18:51:19.113Z""","","","","","","","","","",""
"true","","","","","fullscreen","1","4627","0.0-1.0","kjzxbn9rjq","","kjzxbn9rjq","""2024-11-13T18:51:19.113Z""","","","","","","","","","",""
"","","","","","html-keyboard-response","2","4640","0.0-2.0","kjzxbn9rjq","","kjzxbn9rjq","""2024-11-13T18:51:19.113Z""","null","","null","","","","","","",""
"","","","","","html-button-response","3","6608","0.0-3.0","kjzxbn9rjq","","kjzxbn9rjq","""2024-11-13T18:51:19.113Z""","1967","<div style='text-align:center; font-size:20px; line-height:25px; width: 1200px;'>
                Welcome to our experiment! <br>
                <br>At the bottom of this screen, you will see a button that says 'Begin Experiment.
                <br>Please only click that button when you are ready to complete the 25 minute experiment in one sitting. <br>
                <br> Once you click that button, it will not be possible to restart the experiment. <br><br>","0","","","","","","",""
"true","","","","","fullscreen","4","8695","0.0-4.0","kjzxbn9rjq","","kjzxbn9rjq","""2024-11-13T18:51:19.113Z""","","","","","","","","","",""
"","","","","","survey-multi-select","5","21892","0.0-5.0","kjzxbn9rjq","","kjzxbn9rjq","""2024-11-13T18:51:19.113Z""","13193","","{""Consent"":[""<strong>I consent</strong>""]}","[0]","","","","","",""
"","","","","","html-button-response","6","22874","0.0-6.0","kjzxbn9rjq","","kjzxbn9rjq","""2024-11-13T18:51:19.113Z""","979","Welcome! <p> This experiment involves two parts: demographic information, followed by the experimental task.<p> It will take about 25 minutes to complete both parts.","0","","","","","","",""
"","","","","","survey-text","7","28069","0.0-7.0","kjzxbn9rjq","","kjzxbn9rjq","""2024-11-13T18:51:19.113Z""","5193","","{""Age"":""18"",""Gender"":""female"",""Race/ethnicity"":""white""}","","","","","","",""
"","","","","","html-button-response","8","41673","0.0-8.0","kjzxbn9rjq","","kjzxbn9rjq","""2024-11-13T18:51:19.113Z""","13603","<div style='text-align: center;'>
      <p>In each trial of this task, you will see three texture images: one target item on top, and two choices beneath the target item.</p>
      <p><strong>Please select the item that is most like the target item.</strong></p>
      <p>To select the option on the <strong>LEFT</strong>, press the <strong>LEFT ARROW</strong> key. 
      To select the option on the <strong>RIGHT</strong>, press the <strong>RIGHT ARROW</strong> key.</p>
                  <!-- Target Image at the Top -->
      <div style='margin: 20px;'>
        <img src='materials/imgs/instruction_images/InstructionImg1D78.png' alt='Target Image' style='width:200px; height:auto;' />
        <p><em>Target Image</em></p>
      </div>

      <!-- Two Choice Images Below -->
      <div style='display: flex; justify-content: center;'>
        <div style='margin-right: 50px;'>
          <img src='materials/imgs/instruction_images/InstructionImg2D34.png' alt='Choice Image 1' style='width:150px; height:auto;' />
          <p><em><strong>LEFT ARROW</strong></em></p>
        </div>
        <div style='margin-left: 50px;'>
          <img src='materials/imgs/instruction_images/InstructionImg3D80.png' alt='Choice Image 2' style='width:150px; height:auto;' />
          <p><em><strong>RIGHT ARROW</strong></em></p>
        </div>
      </div>
    </div>

      <p>When you are ready to proceed, please click 'Continue' to begin practice.</p>","0","","","","","","",""
"","","","","","html-keyboard-response","9","44179","0.0-9.0","kjzxbn9rjq","","kjzxbn9rjq","""2024-11-13T18:51:19.113Z""","null","+","null","","","","","","",""
"","","","","","html-keyboard-response","10","44681","0.0-10.0-0.0-0.0","kjzxbn9rjq","","kjzxbn9rjq","""2024-11-13T18:51:19.113Z""","null","+","null","","","","","","",""
"","","","","","image-keyboard-response","11","45741","0.0-10.0-0.0-1.0","kjzxbn9rjq","","kjzxbn9rjq","""2024-11-13T18:51:19.113Z""","1054","materials/imgs/D1.png","arrowright","","[""materials/imgs/D74.png"",""materials/imgs/D20.png""]","false","random","","",""
"","","","","","html-keyboard-response","12","46242","0.0-10.0-0.0-0.1","kjzxbn9rjq","","kjzxbn9rjq","""2024-11-13T18:51:19.113Z""","null","+","null","","","","","","",""
"","","","","","image-keyboard-response","13","47155","0.0-10.0-0.0-1.1","kjzxbn9rjq","","kjzxbn9rjq","""2024-11-13T18:51:19.113Z""","909","materials/imgs/D26.png","arrowleft","","[""materials/imgs/D80.png"",""materials/imgs/D68.png""]","false","random","","",""
"","","","","","html-keyboard-response","14","47656","0.0-10.0-0.0-0.2","kjzxbn9rjq","","kjzxbn9rjq","""2024-11-13T18:51:19.113Z""","null","+","null","","","","","","",""
"","","","","","image-keyboard-response","15","49535","0.0-10.0-0.0-1.2","kjzxbn9rjq","","kjzxbn9rjq","""2024-11-13T18:51:19.113Z""","1876","materials/imgs/D48.png","arrowleft","","[""materials/imgs/D55.png"",""materials/imgs/D106.png""]","false","random","","",""
"","","","","","html-keyboard-response","16","50036","0.0-10.0-0.0-0.3","kjzxbn9rjq","","kjzxbn9rjq","""2024-11-13T18:51:19.113Z""","null","+","null","","","","","","",""
"","","","","","image-keyboard-response","17","51772","0.0-10.0-0.0-1.3","kjzxbn9rjq","","kjzxbn9rjq","""2024-11-13T18:51:19.113Z""","1733","materials/imgs/D77.png","arrowright","","[""materials/imgs/D9.png"",""materials/imgs/D66.png""]","false","random","","",""
"","","","","","html-keyboard-response","18","52273","0.0-10.0-0.0-0.4","kjzxbn9rjq","","kjzxbn9rjq","""2024-11-13T18:51:19.113Z""","null","+","null","","","","","","",""
"","","","","","image-keyboard-response","19","53073","0.0-10.0-0.0-1.4","kjzxbn9rjq","","kjzxbn9rjq","""2024-11-13T18:51:19.113Z""","798","materials/imgs/D92.png","arrowleft","","[""materials/imgs/D4.png"",""materials/imgs/D84.png""]","false","random","","",""
"","","","","","html-keyboard-response","20","53575","0.0-10.0-0.0-0.5","kjzxbn9rjq","","kjzxbn9rjq","""2024-11-13T18:51:19.113Z""","null","+","null","","","","","","",""
"","","","","","image-keyboard-response","21","54566","0.0-10.0-0.0-1.5","kjzxbn9rjq","","kjzxbn9rjq","""2024-11-13T18:51:19.113Z""","989","materials/imgs/D83.png","arrowright","","[""materials/imgs/D46.png"",""materials/imgs/D16.png""]","false","random","","",""
"","","","","","html-keyboard-response","22","55067","0.0-10.0-0.0-0.6","kjzxbn9rjq","","kjzxbn9rjq","""2024-11-13T18:51:19.113Z""","null","+","null","","","","","","",""
"","","","","","image-keyboard-response","23","56118","0.0-10.0-0.0-1.6","kjzxbn9rjq","","kjzxbn9rjq","""2024-11-13T18:51:19.113Z""","1047","materials/imgs/D47.png","arrowright","","[""materials/imgs/D3.png"",""materials/imgs/D68.png""]","false","random","","",""
"","","","","","html-keyboard-response","24","56620","0.0-10.0-0.0-0.7","kjzxbn9rjq","","kjzxbn9rjq","""2024-11-13T18:51:19.113Z""","null","+","null","","","","","","",""
"","","","","","image-keyboard-response","25","57841","0.0-10.0-0.0-1.7","kjzxbn9rjq","","kjzxbn9rjq","""2024-11-13T18:51:19.113Z""","1217","materials/imgs/D53.png","arrowright","","[""materials/imgs/D11.png"",""materials/imgs/D106.png""]","false","random","","",""
"","","","","","html-keyboard-response","26","58342","0.0-10.0-0.0-0.8","kjzxbn9rjq","","kjzxbn9rjq","""2024-11-13T18:51:19.113Z""","null","+","null","","","","","","",""
"","","","","","image-keyboard-response","27","61681","0.0-10.0-0.0-1.8","kjzxbn9rjq","","kjzxbn9rjq","""2024-11-13T18:51:19.113Z""","3337","materials/imgs/D53.png","arrowleft","","[""materials/imgs/D8.png"",""materials/imgs/D9.png""]","false","random","","",""
"","","","","","html-keyboard-response","28","62185","0.0-10.0-0.0-0.9","kjzxbn9rjq","","kjzxbn9rjq","""2024-11-13T18:51:19.113Z""","null","+","null","","","","","","",""
"","","","","","image-keyboard-response","29","63376","0.0-10.0-0.0-1.9","kjzxbn9rjq","","kjzxbn9rjq","""2024-11-13T18:51:19.113Z""","1189","materials/imgs/D81.png","arrowright","","[""materials/imgs/D96.png"",""materials/imgs/D111.png""]","false","random","","",""
"","","","","","html-button-response","30","64673","0.0-11.0","kjzxbn9rjq","","kjzxbn9rjq","""2024-11-13T18:51:19.113Z""","1296","<p>Great job!</p>
      <p>You are now ready to begin the experiment.</p>
      <p>There will be around 200 trials. You will have opportunities to take breaks at three stages of the trials.</p>
      <p>When you are ready to begin please click 'Continue'.</p>","0","","","","","","",""
"","","","","","html-keyboard-response","31","67177","0.0-12.0","kjzxbn9rjq","","kjzxbn9rjq","""2024-11-13T18:51:19.113Z""","null","+","null","","","","","","",""
"","","","","","html-keyboard-response","32","67678","0.0-13.0-0.0-0.0","kjzxbn9rjq","","kjzxbn9rjq","""2024-11-13T18:51:19.113Z""","null","+","null","","","","","","",""
"","","","","","image-keyboard-response","33","68565","0.0-13.0-0.0-1.0","kjzxbn9rjq","","kjzxbn9rjq","""2024-11-13T18:51:19.113Z""","884","materials/imgs/D66.png","arrowleft","","[""materials/imgs/D92.png"",""materials/imgs/D48.png""]","false","random","","",""
"","","","","","html-keyboard-response","34","69067","0.0-13.0-0.0-0.1","kjzxbn9rjq","","kjzxbn9rjq","""2024-11-13T18:51:19.113Z""","null","+","null","","","","","","",""
"","","","","","image-keyboard-response","35","70791","0.0-13.0-0.0-1.1","kjzxbn9rjq","","kjzxbn9rjq","""2024-11-13T18:51:19.113Z""","1721","materials/imgs/D49.png","arrowleft","","[""materials/imgs/D103.png"",""materials/imgs/D25.png""]","false","random","","",""
"","","","","","html-keyboard-response","36","71292","0.0-13.0-0.0-0.2","kjzxbn9rjq","","kjzxbn9rjq","""2024-11-13T18:51:19.113Z""","null","+","null","","","","","","",""
"","","","","","image-keyboard-response","37","72744","0.0-13.0-0.0-1.2","kjzxbn9rjq","","kjzxbn9rjq","""2024-11-13T18:51:19.113Z""","1449","materials/imgs/D18.png","arrowright","","[""materials/imgs/D105.png"",""materials/imgs/D11.png""]","false","random","","",""
"","","","","","html-keyboard-response","38","73245","0.0-13.0-0.0-0.3","kjzxbn9rjq","","kjzxbn9rjq","""2024-11-13T18:51:19.113Z""","null","+","null","","","","","","",""
"","","","","","image-keyboard-response","39","74298","0.0-13.0-0.0-1.3","kjzxbn9rjq","","kjzxbn9rjq","""2024-11-13T18:51:19.113Z""","1050","materials/imgs/D57.png","arrowleft","","[""materials/imgs/D87.png"",""materials/imgs/D101.png""]","false","random","","",""
"","","","","","html-keyboard-response","40","74799","0.0-13.0-0.0-0.4","kjzxbn9rjq","","kjzxbn9rjq","""2024-11-13T18:51:19.113Z""","null","+","null","","","","","","",""
"","","","","","image-keyboard-response","41","75878","0.0-13.0-0.0-1.4","kjzxbn9rjq","","kjzxbn9rjq","""2024-11-13T18:51:19.113Z""","1076","materials/imgs/D19.png","arrowright","","[""materials/imgs/D76.png"",""materials/imgs/D77.png""]","false","random","","",""
"","","","","","html-keyboard-response","42","76379","0.0-13.0-0.0-0.5","kjzxbn9rjq","","kjzxbn9rjq","""2024-11-13T18:51:19.113Z""","null","+","null","","","","","","",""
"","","","","","image-keyboard-response","43","77020","0.0-13.0-0.0-1.5","kjzxbn9rjq","","kjzxbn9rjq","""2024-11-13T18:51:19.113Z""","638","materials/imgs/D104.png","arrowleft","","[""materials/imgs/D16.png"",""materials/imgs/D32.png""]","false","random","","",""
"","","","","","html-keyboard-response","44","77521","0.0-13.0-0.0-0.6","kjzxbn9rjq","","kjzxbn9rjq","""2024-11-13T18:51:19.113Z""","null","+","null","","","","","","",""
"","","","","","image-keyboard-response","45","78907","0.0-13.0-0.0-1.6","kjzxbn9rjq","","kjzxbn9rjq","""2024-11-13T18:51:19.113Z""","1383","materials/imgs/D49.png","arrowleft","","[""materials/imgs/D51.png"",""materials/imgs/D95.png""]","false","random","","",""
"","","","","","html-keyboard-response","46","79409","0.0-13.0-1.0-0.0","kjzxbn9rjq","","kjzxbn9rjq","""2024-11-13T18:51:19.113Z""","null","+","null","","","","","","",""
"","","","","","image-keyboard-response","47","79985","0.0-13.0-1.0-1.0","kjzxbn9rjq","","kjzxbn9rjq","""2024-11-13T18:51:19.113Z""","574","materials/imgs/D26.png","arrowleft","","[""materials/imgs/D26.png"",""materials/imgs/D46.png""]","","check","materials/imgs/D26.png","0","true"
"","","","","","html-keyboard-response","48","80486","0.0-13.0-2.0-0.0","kjzxbn9rjq","","kjzxbn9rjq","""2024-11-13T18:51:19.113Z""","null","+","null","","","","","","",""
"","","","","","image-keyboard-response","49","81928","0.0-13.0-2.0-1.0","kjzxbn9rjq","","kjzxbn9rjq","""2024-11-13T18:51:19.113Z""","1440","materials/imgs/D22.png","arrowleft","","[""materials/imgs/D4.png"",""materials/imgs/D25.png""]","false","validation","","",""
"","","","","","html-keyboard-response","50","82430","0.0-13.0-2.0-0.1","kjzxbn9rjq","","kjzxbn9rjq","""2024-11-13T18:51:19.113Z""","null","+","null","","","","","","",""
"","","","","","image-keyboard-response","51","84014","0.0-13.0-2.0-1.1","kjzxbn9rjq","","kjzxbn9rjq","""2024-11-13T18:51:19.113Z""","1582","materials/imgs/D82.png","arrowright","","[""materials/imgs/D83.png"",""materials/imgs/D22.png""]","false","validation","","",""
"","","","","","html-keyboard-response","52","84517","0.0-13.0-0.1-0.7","kjzxbn9rjq","","kjzxbn9rjq","""2024-11-13T18:51:19.113Z""","null","+","null","","","","","","",""
"","","","","","image-keyboard-response","53","85508","0.0-13.0-0.1-1.7","kjzxbn9rjq","","kjzxbn9rjq","""2024-11-13T18:51:19.113Z""","989","materials/imgs/D34.png","arrowright","","[""materials/imgs/D103.png"",""materials/imgs/D75.png""]","false","random","","",""
"","","","","","html-keyboard-response","54","86009","0.0-13.0-0.1-0.8","kjzxbn9rjq","","kjzxbn9rjq","""2024-11-13T18:51:19.113Z""","null","+","null","","","","","","",""
"","","","","","image-keyboard-response","55","86926","0.0-13.0-0.1-1.8","kjzxbn9rjq","","kjzxbn9rjq","""2024-11-13T18:51:19.113Z""","914","materials/imgs/D83.png","arrowleft","","[""materials/imgs/D52.png"",""materials/imgs/D92.png""]","false","random","","",""
"","","","","","html-keyboard-response","56","87428","0.0-13.0-0.1-0.9","kjzxbn9rjq","","kjzxbn9rjq","""2024-11-13T18:51:19.113Z""","null","+","null","","","","","","",""
"","","","","","image-keyboard-response","57","88105","0.0-13.0-0.1-1.9","kjzxbn9rjq","","kjzxbn9rjq","""2024-11-13T18:51:19.113Z""","674","materials/imgs/D79.png","arrowright","","[""materials/imgs/D46.png"",""materials/imgs/D94.png""]","false","random","","",""
"","","","","","html-keyboard-response","58","88606","0.0-13.0-0.1-0.10","kjzxbn9rjq","","kjzxbn9rjq","""2024-11-13T18:51:19.113Z""","null","+","null","","","","","","",""
"","","","","","image-keyboard-response","59","89289","0.0-13.0-0.1-1.10","kjzxbn9rjq","","kjzxbn9rjq","""2024-11-13T18:51:19.113Z""","681","materials/imgs/D21.png","arrowright","","[""materials/imgs/D47.png"",""materials/imgs/D51.png""]","false","random","","",""
"","","","","","html-keyboard-response","60","89790","0.0-13.0-0.1-0.11","kjzxbn9rjq","","kjzxbn9rjq","""2024-11-13T18:51:19.113Z""","null","+","null","","","","","","",""
"","","","","","image-keyboard-response","61","90676","0.0-13.0-0.1-1.11","kjzxbn9rjq","","kjzxbn9rjq","""2024-11-13T18:51:19.113Z""","884","materials/imgs/D34.png","arrowleft","","[""materials/imgs/D8.png"",""materials/imgs/D11.png""]","false","random","","",""
"","","","","","html-keyboard-response","62","91178","0.0-13.0-0.1-0.12","kjzxbn9rjq","","kjzxbn9rjq","""2024-11-13T18:51:19.113Z""","null","+","null","","","","","","",""
"","","","","","image-keyboard-response","63","92355","0.0-13.0-0.1-1.12","kjzxbn9rjq","","kjzxbn9rjq","""2024-11-13T18:51:19.113Z""","1174","materials/imgs/D75.png","arrowright","","[""materials/imgs/D52.png"",""materials/imgs/D32.png""]","false","random","","",""
"","","","","","html-keyboard-response","64","92856","0.0-13.0-0.1-0.13","kjzxbn9rjq","","kjzxbn9rjq","""2024-11-13T18:51:19.113Z""","null","+","null","","","","","","",""
"","","","","","image-keyboard-response","65","94015","0.0-13.0-0.1-1.13","kjzxbn9rjq","","kjzxbn9rjq","""2024-11-13T18:51:19.113Z""","1157","materials/imgs/D3.png","arrowleft","","[""materials/imgs/D11.png"",""materials/imgs/D49.png""]","false","random","","",""
"","","","","","html-keyboard-response","66","94517","0.0-13.0-1.1-0.1","kjzxbn9rjq","","kjzxbn9rjq","""2024-11-13T18:51:19.113Z""","null","+","null","","","","","","",""
"","","","","","image-keyboard-response","67","95068","0.0-13.0-1.1-1.1","kjzxbn9rjq","","kjzxbn9rjq","""2024-11-13T18:51:19.113Z""","548","materials/imgs/D26.png","arrowleft","","[""materials/imgs/D26.png"",""materials/imgs/D46.png""]","","check","materials/imgs/D26.png","0","true"
"","","","","","html-keyboard-response","68","95569","0.0-13.0-2.1-0.2","kjzxbn9rjq","","kjzxbn9rjq","""2024-11-13T18:51:19.113Z""","null","+","null","","","","","","",""
"","","","","","image-keyboard-response","69","97075","0.0-13.0-2.1-1.2","kjzxbn9rjq","","kjzxbn9rjq","""2024-11-13T18:51:19.113Z""","1504","materials/imgs/D52.png","arrowright","","[""materials/imgs/D9.png"",""materials/imgs/D19.png""]","false","validation","","",""
"","","","","","html-keyboard-response","70","97577","0.0-13.0-2.1-0.3","kjzxbn9rjq","","kjzxbn9rjq","""2024-11-13T18:51:19.113Z""","null","+","null","","","","","","",""
"","","","","","image-keyboard-response","71","99125","0.0-13.0-2.1-1.3","kjzxbn9rjq","","kjzxbn9rjq","""2024-11-13T18:51:19.113Z""","1546","materials/imgs/D18.png","arrowright","","[""materials/imgs/D32.png"",""materials/imgs/D57.png""]","false","validation","","",""
"","","","","","html-keyboard-response","72","99627","0.0-13.0-0.2-0.14","kjzxbn9rjq","","kjzxbn9rjq","""2024-11-13T18:51:19.113Z""","null","+","null","","","","","","",""
"","","","","","image-keyboard-response","73","100268","0.0-13.0-0.2-1.14","kjzxbn9rjq","","kjzxbn9rjq","""2024-11-13T18:51:19.113Z""","639","materials/imgs/D66.png","arrowright","","[""materials/imgs/D64.png"",""materials/imgs/D47.png""]","false","random","","",""
"","","","","","html-keyboard-response","74","100770","0.0-13.0-0.2-0.15","kjzxbn9rjq","","kjzxbn9rjq","""2024-11-13T18:51:19.113Z""","null","+","null","","","","","","",""
"","","","","","image-keyboard-response","75","101517","0.0-13.0-0.2-1.15","kjzxbn9rjq","","kjzxbn9rjq","""2024-11-13T18:51:19.113Z""","745","materials/imgs/D26.png","arrowright","","[""materials/imgs/D6.png"",""materials/imgs/D19.png""]","false","random","","",""
"","","","","","html-keyboard-response","76","102019","0.0-13.0-0.2-0.16","kjzxbn9rjq","","kjzxbn9rjq","""2024-11-13T18:51:19.113Z""","null","+","null","","","","","","",""
"","","","","","image-keyboard-response","77","102824","0.0-13.0-0.2-1.16","kjzxbn9rjq","","kjzxbn9rjq","""2024-11-13T18:51:19.113Z""","802","materials/imgs/D76.png","arrowright","","[""materials/imgs/D95.png"",""materials/imgs/D8.png""]","false","random","","",""
"","","","","","html-keyboard-response","78","103325","0.0-13.0-0.2-0.17","kjzxbn9rjq","","kjzxbn9rjq","""2024-11-13T18:51:19.113Z""","null","+","null","","","","","","",""
"","","","","","image-keyboard-response","79","105348","0.0-13.0-0.2-1.17","kjzxbn9rjq","","kjzxbn9rjq","""2024-11-13T18:51:19.113Z""","2020","materials/imgs/D81.png","arrowright","","[""materials/imgs/D64.png"",""materials/imgs/D78.png""]","false","random","","",""
"","","","","","html-keyboard-response","80","105849","0.0-13.0-0.2-0.18","kjzxbn9rjq","","kjzxbn9rjq","""2024-11-13T18:51:19.113Z""","null","+","null","","","","","","",""
"","","","","","image-keyboard-response","81","106812","0.0-13.0-0.2-1.18","kjzxbn9rjq","","kjzxbn9rjq","""2024-11-13T18:51:19.113Z""","961","materials/imgs/D48.png","arrowleft","","[""materials/imgs/D4.png"",""materials/imgs/D84.png""]","false","random","","",""
"","","","","","html-keyboard-response","82","107314","0.0-13.0-0.2-0.19","kjzxbn9rjq","","kjzxbn9rjq","""2024-11-13T18:51:19.113Z""","null","+","null","","","","","","",""
"","","","","","image-keyboard-response","83","108314","0.0-13.0-0.2-1.19","kjzxbn9rjq","","kjzxbn9rjq","""2024-11-13T18:51:19.113Z""","997","materials/imgs/D104.png","arrowleft","","[""materials/imgs/D34.png"",""materials/imgs/D48.png""]","false","random","","",""
"","","","","","html-keyboard-response","84","108815","0.0-13.0-0.2-0.20","kjzxbn9rjq","","kjzxbn9rjq","""2024-11-13T18:51:19.113Z""","null","+","null","","","","","","",""
"","","","","","image-keyboard-response","85","109844","0.0-13.0-0.2-1.20","kjzxbn9rjq","","kjzxbn9rjq","""2024-11-13T18:51:19.113Z""","1027","materials/imgs/D32.png","arrowleft","","[""materials/imgs/D47.png"",""materials/imgs/D37.png""]","false","random","","",""
"","","","","","html-keyboard-response","86","110345","0.0-13.0-1.2-0.2","kjzxbn9rjq","","kjzxbn9rjq","""2024-11-13T18:51:19.113Z""","null","+","null","","","","","","",""
"","","","","","image-keyboard-response","87","110864","0.0-13.0-1.2-1.2","kjzxbn9rjq","","kjzxbn9rjq","""2024-11-13T18:51:19.113Z""","517","materials/imgs/D46.png","arrowleft","","[""materials/imgs/D46.png"",""materials/imgs/D26.png""]","","check","materials/imgs/D46.png","0","true"
"","","","","","html-keyboard-response","88","111365","0.0-13.0-2.2-0.4","kjzxbn9rjq","","kjzxbn9rjq","""2024-11-13T18:51:19.113Z""","null","+","null","","","","","","",""
"","","","","","image-keyboard-response","89","117972","0.0-13.0-2.2-1.4","kjzxbn9rjq","","kjzxbn9rjq","""2024-11-13T18:51:19.113Z""","6604","materials/imgs/D81.png","arrowright","","[""materials/imgs/D105.png"",""materials/imgs/D24.png""]","false","validation","","",""
"","","","","","html-keyboard-response","90","118473","0.0-13.0-2.2-0.5","kjzxbn9rjq","","kjzxbn9rjq","""2024-11-13T18:51:19.113Z""","null","+","null","","","","","","",""
"","","","","","image-keyboard-response","91","119444","0.0-13.0-2.2-1.5","kjzxbn9rjq","","kjzxbn9rjq","""2024-11-13T18:51:19.113Z""","968","materials/imgs/D96.png","arrowright","","[""materials/imgs/D46.png"",""materials/imgs/D18.png""]","false","validation","","",""
"","","","","","html-keyboard-response","92","119945","0.0-13.0-0.3-0.21","kjzxbn9rjq","","kjzxbn9rjq","""2024-11-13T18:51:19.113Z""","null","+","null","","","","","","",""
"","","","","","image-keyboard-response","93","120947","0.0-13.0-0.3-1.21","kjzxbn9rjq","","kjzxbn9rjq","""2024-11-13T18:51:19.113Z""","999","materials/imgs/D24.png","arrowright","","[""materials/imgs/D106.png"",""materials/imgs/D29.png""]","false","random","","",""
"","","","","","html-keyboard-response","94","121448","0.0-13.0-0.3-0.22","kjzxbn9rjq","","kjzxbn9rjq","""2024-11-13T18:51:19.113Z""","null","+","null","","","","","","",""
"","","","","","image-keyboard-response","95","122681","0.0-13.0-0.3-1.22","kjzxbn9rjq","","kjzxbn9rjq","""2024-11-13T18:51:19.113Z""","1231","materials/imgs/D103.png","arrowleft","","[""materials/imgs/D79.png"",""materials/imgs/D85.png""]","false","random","","",""
"","","","","","html-keyboard-response","96","123182","0.0-13.0-0.3-0.23","kjzxbn9rjq","","kjzxbn9rjq","""2024-11-13T18:51:19.113Z""","null","+","null","","","","","","",""
"","","","","","image-keyboard-response","97","124439","0.0-13.0-0.3-1.23","kjzxbn9rjq","","kjzxbn9rjq","""2024-11-13T18:51:19.113Z""","1254","materials/imgs/D47.png","arrowleft","","[""materials/imgs/D104.png"",""materials/imgs/D53.png""]","false","random","","",""
"","","","","","html-keyboard-response","98","124940","0.0-13.0-0.3-0.24","kjzxbn9rjq","","kjzxbn9rjq","""2024-11-13T18:51:19.113Z""","null","+","null","","","","","","",""
"","","","","","image-keyboard-response","99","125719","0.0-13.0-0.3-1.24","kjzxbn9rjq","","kjzxbn9rjq","""2024-11-13T18:51:19.113Z""","777","materials/imgs/D95.png","arrowright","","[""materials/imgs/D103.png"",""materials/imgs/D96.png""]","false","random","","",""
"","","","","","html-keyboard-response","100","126221","0.0-13.0-0.3-0.25","kjzxbn9rjq","","kjzxbn9rjq","""2024-11-13T18:51:19.113Z""","null","+","null","","","","","","",""
"","","","","","image-keyboard-response","101","126849","0.0-13.0-0.3-1.25","kjzxbn9rjq","","kjzxbn9rjq","""2024-11-13T18:51:19.113Z""","625","materials/imgs/D57.png","arrowright","","[""materials/imgs/D64.png"",""materials/imgs/D17.png""]","false","random","","",""
"","","","","","html-keyboard-response","102","127350","0.0-13.0-0.3-0.26","kjzxbn9rjq","","kjzxbn9rjq","""2024-11-13T18:51:19.113Z""","null","+","null","","","","","","",""
"","","","","","image-keyboard-response","103","130348","0.0-13.0-0.3-1.26","kjzxbn9rjq","","kjzxbn9rjq","""2024-11-13T18:51:19.113Z""","2995","materials/imgs/D81.png","arrowright","","[""materials/imgs/D47.png"",""materials/imgs/D20.png""]","false","random","","",""
"","","","","","html-keyboard-response","104","130849","0.0-13.0-0.3-0.27","kjzxbn9rjq","","kjzxbn9rjq","""2024-11-13T18:51:19.113Z""","null","+","null","","","","","","",""
"","","","","","image-keyboard-response","105","132385","0.0-13.0-0.3-1.27","kjzxbn9rjq","","kjzxbn9rjq","""2024-11-13T18:51:19.113Z""","1534","materials/imgs/D4.png","arrowright","","[""materials/imgs/D53.png"",""materials/imgs/D82.png""]","false","random","","",""
"","","","","","html-keyboard-response","106","132887","0.0-13.0-1.3-0.3","kjzxbn9rjq","","kjzxbn9rjq","""2024-11-13T18:51:19.113Z""","null","+","null","","","","","","",""
"","","","","","image-keyboard-response","107","133433","0.0-13.0-1.3-1.3","kjzxbn9rjq","","kjzxbn9rjq","""2024-11-13T18:51:19.113Z""","544","materials/imgs/D106.png","arrowleft","","[""materials/imgs/D106.png"",""materials/imgs/D101.png""]","","check","materials/imgs/D106.png","0","true"
"","","","","","html-keyboard-response","108","133934","0.0-13.0-2.3-0.6","kjzxbn9rjq","","kjzxbn9rjq","""2024-11-13T18:51:19.113Z""","null","+","null","","","","","","",""
"","","","","","image-keyboard-response","109","134914","0.0-13.0-2.3-1.6","kjzxbn9rjq","","kjzxbn9rjq","""2024-11-13T18:51:19.113Z""","978","materials/imgs/D65.png","arrowleft","","[""materials/imgs/D4.png"",""materials/imgs/D16.png""]","false","validation","","",""
"","","","","","html-keyboard-response","110","135415","0.0-13.0-2.3-0.7","kjzxbn9rjq","","kjzxbn9rjq","""2024-11-13T18:51:19.113Z""","null","+","null","","","","","","",""
"","","","","","image-keyboard-response","111","136447","0.0-13.0-2.3-1.7","kjzxbn9rjq","","kjzxbn9rjq","""2024-11-13T18:51:19.113Z""","1030","materials/imgs/D32.png","arrowleft","","[""materials/imgs/D68.png"",""materials/imgs/D96.png""]","false","validation","","",""
"","","","","","html-keyboard-response","112","136947","0.0-13.0-0.4-0.28","kjzxbn9rjq","","kjzxbn9rjq","""2024-11-13T18:51:19.113Z""","null","+","null","","","","","","",""
"","","","","","image-keyboard-response","113","137484","0.0-13.0-0.4-1.28","kjzxbn9rjq","","kjzxbn9rjq","""2024-11-13T18:51:19.113Z""","534","materials/imgs/D78.png","arrowleft","","[""materials/imgs/D79.png"",""materials/imgs/D25.png""]","false","random","","",""
"","","","","","html-keyboard-response","114","137986","0.0-13.0-0.4-0.29","kjzxbn9rjq","","kjzxbn9rjq","""2024-11-13T18:51:19.113Z""","null","+","null","","","","","","",""
"","","","","","image-keyboard-response","115","138751","0.0-13.0-0.4-1.29","kjzxbn9rjq","","kjzxbn9rjq","""2024-11-13T18:51:19.113Z""","762","materials/imgs/D6.png","arrowright","","[""materials/imgs/D11.png"",""materials/imgs/D77.png""]","false","random","","",""
"","","","","","html-keyboard-response","116","139252","0.0-13.0-0.4-0.30","kjzxbn9rjq","","kjzxbn9rjq","""2024-11-13T18:51:19.113Z""","null","+","null","","","","","","",""
"","","","","","image-keyboard-response","117","141138","0.0-13.0-0.4-1.30","kjzxbn9rjq","","kjzxbn9rjq","""2024-11-13T18:51:19.113Z""","1883","materials/imgs/D96.png","arrowright","","[""materials/imgs/D57.png"",""materials/imgs/D21.png""]","false","random","","",""
"","","","","","html-keyboard-response","118","141639","0.0-13.0-0.4-0.31","kjzxbn9rjq","","kjzxbn9rjq","""2024-11-13T18:51:19.113Z""","null","+","null","","","","","","",""
"","","","","","image-keyboard-response","119","142604","0.0-13.0-0.4-1.31","kjzxbn9rjq","","kjzxbn9rjq","""2024-11-13T18:51:19.113Z""","963","materials/imgs/D56.png","arrowright","","[""materials/imgs/D78.png"",""materials/imgs/D87.png""]","false","random","","",""
"","","","","","html-keyboard-response","120","143106","0.0-13.0-0.4-0.32","kjzxbn9rjq","","kjzxbn9rjq","""2024-11-13T18:51:19.113Z""","null","+","null","","","","","","",""
"","","","","","image-keyboard-response","121","144295","0.0-13.0-0.4-1.32","kjzxbn9rjq","","kjzxbn9rjq","""2024-11-13T18:51:19.113Z""","1186","materials/imgs/D55.png","arrowleft","","[""materials/imgs/D18.png"",""materials/imgs/D48.png""]","false","random","","",""
"","","","","","html-keyboard-response","122","144796","0.0-13.0-0.4-0.33","kjzxbn9rjq","","kjzxbn9rjq","""2024-11-13T18:51:19.113Z""","null","+","null","","","","","","",""
"","","","","","image-keyboard-response","123","146007","0.0-13.0-0.4-1.33","kjzxbn9rjq","","kjzxbn9rjq","""2024-11-13T18:51:19.113Z""","1208","materials/imgs/D34.png","arrowleft","","[""materials/imgs/D17.png"",""materials/imgs/D65.png""]","false","random","","",""
"","","","","","html-keyboard-response","124","146508","0.0-13.0-0.4-0.34","kjzxbn9rjq","","kjzxbn9rjq","""2024-11-13T18:51:19.113Z""","null","+","null","","","","","","",""
"","","","","","image-keyboard-response","125","147938","0.0-13.0-0.4-1.34","kjzxbn9rjq","","kjzxbn9rjq","""2024-11-13T18:51:19.113Z""","1427","materials/imgs/D78.png","arrowleft","","[""materials/imgs/D65.png"",""materials/imgs/D75.png""]","false","random","","",""
"","","","","","html-keyboard-response","126","148439","0.0-13.0-1.4-0.4","kjzxbn9rjq","","kjzxbn9rjq","""2024-11-13T18:51:19.113Z""","null","+","null","","","","","","",""
"","","","","","image-keyboard-response","127","149880","0.0-13.0-1.4-1.4","kjzxbn9rjq","","kjzxbn9rjq","""2024-11-13T18:51:19.113Z""","1440","materials/imgs/D106.png","arrowleft","","[""materials/imgs/D106.png"",""materials/imgs/D101.png""]","","check","materials/imgs/D106.png","0","true"
"","","","","","html-keyboard-response","128","150381","0.0-13.0-2.4-0.8","kjzxbn9rjq","","kjzxbn9rjq","""2024-11-13T18:51:19.113Z""","null","+","null","","","","","","",""
"","","","","","image-keyboard-response","129","151624","0.0-13.0-2.4-1.8","kjzxbn9rjq","","kjzxbn9rjq","""2024-11-13T18:51:19.113Z""","1240","materials/imgs/D47.png","arrowleft","","[""materials/imgs/D1.png"",""materials/imgs/D52.png""]","false","validation","","",""
"","","","","","html-keyboard-response","130","152125","0.0-13.0-2.4-0.9","kjzxbn9rjq","","kjzxbn9rjq","""2024-11-13T18:51:19.113Z""","null","+","null","","","","","","",""
"","","","","","image-keyboard-response","131","154853","0.0-13.0-2.4-1.9","kjzxbn9rjq","","kjzxbn9rjq","""2024-11-13T18:51:19.113Z""","2726","materials/imgs/D56.png","arrowleft","","[""materials/imgs/D25.png"",""materials/imgs/D105.png""]","false","validation","","",""
"","","","","","html-button-response","132","159305","0.0-14.0","kjzxbn9rjq","","kjzxbn9rjq","""2024-11-13T18:51:19.113Z""","4451","You have completed 25% of the trials. Please click 'Continue' when you are ready proceed.","0","","","","","","",""
"","","","","","html-keyboard-response","133","159806","0.0-15.0-0.0-0.0","kjzxbn9rjq","","kjzxbn9rjq","""2024-11-13T18:51:19.113Z""","null","+","null","","","","","","",""
"","","","","","image-keyboard-response","134","160854","0.0-15.0-0.0-1.0","kjzxbn9rjq","","kjzxbn9rjq","""2024-11-13T18:51:19.113Z""","1045","materials/imgs/D101.png","arrowleft","","[""materials/imgs/D24.png"",""materials/imgs/D25.png""]","false","random","","",""
"","","","","","html-keyboard-response","135","161356","0.0-15.0-0.0-0.1","kjzxbn9rjq","","kjzxbn9rjq","""2024-11-13T18:51:19.113Z""","null","+","null","","","","","","",""
"","","","","","image-keyboard-response","136","162122","0.0-15.0-0.0-1.1","kjzxbn9rjq","","kjzxbn9rjq","""2024-11-13T18:51:19.113Z""","764","materials/imgs/D95.png","arrowright","","[""materials/imgs/D111.png"",""materials/imgs/D21.png""]","false","random","","",""
"","","","","","html-keyboard-response","137","162624","0.0-15.0-0.0-0.2","kjzxbn9rjq","","kjzxbn9rjq","""2024-11-13T18:51:19.113Z""","null","+","null","","","","","","",""
"","","","","","image-keyboard-response","138","163631","0.0-15.0-0.0-1.2","kjzxbn9rjq","","kjzxbn9rjq","""2024-11-13T18:51:19.113Z""","994","materials/imgs/D94.png","arrowright","","[""materials/imgs/D75.png"",""materials/imgs/D85.png""]","false","random","","",""
"","","","","","html-keyboard-response","139","164133","0.0-15.0-0.0-0.3","kjzxbn9rjq","","kjzxbn9rjq","""2024-11-13T18:51:19.113Z""","null","+","null","","","","","","",""
"","","","","","image-keyboard-response","140","164947","0.0-15.0-0.0-1.3","kjzxbn9rjq","","kjzxbn9rjq","""2024-11-13T18:51:19.113Z""","811","materials/imgs/D26.png","arrowright","","[""materials/imgs/D51.png"",""materials/imgs/D103.png""]","false","random","","",""
"","","","","","html-keyboard-response","141","165448","0.0-15.0-0.0-0.4","kjzxbn9rjq","","kjzxbn9rjq","""2024-11-13T18:51:19.113Z""","null","+","null","","","","","","",""
"","","","","","image-keyboard-response","142","166136","0.0-15.0-0.0-1.4","kjzxbn9rjq","","kjzxbn9rjq","""2024-11-13T18:51:19.113Z""","686","materials/imgs/D35.png","arrowright","","[""materials/imgs/D53.png"",""materials/imgs/D37.png""]","false","random","","",""
"","","","","","html-keyboard-response","143","166637","0.0-15.0-0.0-0.5","kjzxbn9rjq","","kjzxbn9rjq","""2024-11-13T18:51:19.113Z""","null","+","null","","","","","","",""
"","","","","","image-keyboard-response","144","167761","0.0-15.0-0.0-1.5","kjzxbn9rjq","","kjzxbn9rjq","""2024-11-13T18:51:19.113Z""","1121","materials/imgs/D74.png","arrowright","","[""materials/imgs/D104.png"",""materials/imgs/D1.png""]","false","random","","",""
"","","","","","html-keyboard-response","145","168262","0.0-15.0-0.0-0.6","kjzxbn9rjq","","kjzxbn9rjq","""2024-11-13T18:51:19.113Z""","null","+","null","","","","","","",""
"","","","","","image-keyboard-response","146","169476","0.0-15.0-0.0-1.6","kjzxbn9rjq","","kjzxbn9rjq","""2024-11-13T18:51:19.113Z""","1212","materials/imgs/D9.png","arrowright","","[""materials/imgs/D95.png"",""materials/imgs/D34.png""]","false","random","","",""
"","","","","","html-keyboard-response","147","169978","0.0-15.0-1.0-0.0","kjzxbn9rjq","","kjzxbn9rjq","""2024-11-13T18:51:19.113Z""","null","+","null","","","","","","",""
"","","","","","image-keyboard-response","148","170573","0.0-15.0-1.0-1.0","kjzxbn9rjq","","kjzxbn9rjq","""2024-11-13T18:51:19.113Z""","593","materials/imgs/D106.png","arrowleft","","[""materials/imgs/D106.png"",""materials/imgs/D101.png""]","","check","materials/imgs/D106.png","0","true"
"","","","","","html-keyboard-response","149","171075","0.0-15.0-2.0-0.0","kjzxbn9rjq","","kjzxbn9rjq","""2024-11-13T18:51:19.113Z""","null","+","null","","","","","","",""
"","","","","","image-keyboard-response","150","172021","0.0-15.0-2.0-1.0","kjzxbn9rjq","","kjzxbn9rjq","""2024-11-13T18:51:19.113Z""","943","materials/imgs/D111.png","arrowleft","","[""materials/imgs/D82.png"",""materials/imgs/D95.png""]","false","validation","","",""
"","","","","","html-keyboard-response","151","172522","0.0-15.0-2.0-0.1","kjzxbn9rjq","","kjzxbn9rjq","""2024-11-13T18:51:19.113Z""","null","+","null","","","","","","",""
"","","","","","image-keyboard-response","152","172995","0.0-15.0-2.0-1.1","kjzxbn9rjq","","kjzxbn9rjq","""2024-11-13T18:51:19.113Z""","471","materials/imgs/D105.png","arrowleft","","[""materials/imgs/D106.png"",""materials/imgs/D52.png""]","true","validation","","",""
"","","","","","html-keyboard-response","153","177325","0.0-15.0-2.0-2.1-0.1","kjzxbn9rjq","","kjzxbn9rjq","""2024-11-13T18:51:19.113Z""","4329","<p><strong>You're going too fast.</strong><p>Please slow down and assess each triplet.<p>Press 'y' to continue.</p></p>","y","","","","","","",""
"","","","","","html-keyboard-response","154","177826","0.0-15.0-0.1-0.7","kjzxbn9rjq","","kjzxbn9rjq","""2024-11-13T18:51:19.113Z""","null","+","null","","","","","","",""
"","","","","","image-keyboard-response","155","179584","0.0-15.0-0.1-1.7","kjzxbn9rjq","","kjzxbn9rjq","""2024-11-13T18:51:19.113Z""","1755","materials/imgs/D64.png","arrowleft","","[""materials/imgs/D55.png"",""materials/imgs/D68.png""]","false","random","","",""
"","","","","","html-keyboard-response","156","180086","0.0-15.0-0.1-0.8","kjzxbn9rjq","","kjzxbn9rjq","""2024-11-13T18:51:19.113Z""","null","+","null","","","","","","",""
"","","","","","image-keyboard-response","157","181058","0.0-15.0-0.1-1.8","kjzxbn9rjq","","kjzxbn9rjq","""2024-11-13T18:51:19.113Z""","970","materials/imgs/D35.png","arrowleft","","[""materials/imgs/D82.png"",""materials/imgs/D68.png""]","false","random","","",""
"","","","","","html-keyboard-response","158","181559","0.0-15.0-0.1-0.9","kjzxbn9rjq","","kjzxbn9rjq","""2024-11-13T18:51:19.113Z""","null","+","null","","","","","","",""
"","","","","","image-keyboard-response","159","182392","0.0-15.0-0.1-1.9","kjzxbn9rjq","","kjzxbn9rjq","""2024-11-13T18:51:19.113Z""","830","materials/imgs/D64.png","arrowright","","[""materials/imgs/D87.png"",""materials/imgs/D34.png""]","false","random","","",""
"","","","","","html-keyboard-response","160","182894","0.0-15.0-0.1-0.10","kjzxbn9rjq","","kjzxbn9rjq","""2024-11-13T18:51:19.113Z""","null","+","null","","","","","","",""
"","","","","","image-keyboard-response","161","183996","0.0-15.0-0.1-1.10","kjzxbn9rjq","","kjzxbn9rjq","""2024-11-13T18:51:19.113Z""","1100","materials/imgs/D22.png","arrowright","","[""materials/imgs/D19.png"",""materials/imgs/D21.png""]","false","random","","",""
"","","","","","html-keyboard-response","162","184497","0.0-15.0-0.1-0.11","kjzxbn9rjq","","kjzxbn9rjq","""2024-11-13T18:51:19.113Z""","null","+","null","","","","","","",""
"","","","","","image-keyboard-response","163","185232","0.0-15.0-0.1-1.11","kjzxbn9rjq","","kjzxbn9rjq","""2024-11-13T18:51:19.113Z""","732","materials/imgs/D92.png","arrowleft","","[""materials/imgs/D1.png"",""materials/imgs/D77.png""]","false","random","","",""
"","","","","","html-keyboard-response","164","185733","0.0-15.0-0.1-0.12","kjzxbn9rjq","","kjzxbn9rjq","""2024-11-13T18:51:19.113Z""","null","+","null","","","","","","",""
"","","","","","image-keyboard-response","165","187189","0.0-15.0-0.1-1.12","kjzxbn9rjq","","kjzxbn9rjq","""2024-11-13T18:51:19.113Z""","1454","materials/imgs/D76.png","arrowleft","","[""materials/imgs/D48.png"",""materials/imgs/D75.png""]","false","random","","",""
"","","","","","html-keyboard-response","166","187691","0.0-15.0-0.1-0.13","kjzxbn9rjq","","kjzxbn9rjq","""2024-11-13T18:51:19.113Z""","null","+","null","","","","","","",""
"","","","","","image-keyboard-response","167","188717","0.0-15.0-0.1-1.13","kjzxbn9rjq","","kjzxbn9rjq","""2024-11-13T18:51:19.113Z""","1023","materials/imgs/D53.png","arrowleft","","[""materials/imgs/D68.png"",""materials/imgs/D17.png""]","false","random","","",""
"","","","","","html-keyboard-response","168","189219","0.0-15.0-1.1-0.1","kjzxbn9rjq","","kjzxbn9rjq","""2024-11-13T18:51:19.113Z""","null","+","null","","","","","","",""
"","","","","","image-keyboard-response","169","189813","0.0-15.0-1.1-1.1","kjzxbn9rjq","","kjzxbn9rjq","""2024-11-13T18:51:19.113Z""","592","materials/imgs/D64.png","arrowleft","","[""materials/imgs/D64.png"",""materials/imgs/D53.png""]","","check","materials/imgs/D64.png","0","true"
"","","","","","html-keyboard-response","170","190314","0.0-15.0-2.1-0.2","kjzxbn9rjq","","kjzxbn9rjq","""2024-11-13T18:51:19.113Z""","null","+","null","","","","","","",""
"","","","","","image-keyboard-response","171","191653","0.0-15.0-2.1-1.2","kjzxbn9rjq","","kjzxbn9rjq","""2024-11-13T18:51:19.113Z""","1337","materials/imgs/D106.png","arrowright","","[""materials/imgs/D57.png"",""materials/imgs/D18.png""]","false","validation","","",""
"","","","","","html-keyboard-response","172","192154","0.0-15.0-2.1-0.3","kjzxbn9rjq","","kjzxbn9rjq","""2024-11-13T18:51:19.113Z""","null","+","null","","","","","","",""
"","","","","","image-keyboard-response","173","193397","0.0-15.0-2.1-1.3","kjzxbn9rjq","","kjzxbn9rjq","""2024-11-13T18:51:19.113Z""","1240","materials/imgs/D92.png","arrowright","","[""materials/imgs/D56.png"",""materials/imgs/D77.png""]","false","validation","","",""
"","","","","","html-keyboard-response","174","193898","0.0-15.0-0.2-0.14","kjzxbn9rjq","","kjzxbn9rjq","""2024-11-13T18:51:19.113Z""","null","+","null","","","","","","",""
"","","","","","image-keyboard-response","175","199719","0.0-15.0-0.2-1.14","kjzxbn9rjq","","kjzxbn9rjq","""2024-11-13T18:51:19.113Z""","5819","materials/imgs/D56.png","arrowright","","[""materials/imgs/D48.png"",""materials/imgs/D32.png""]","false","random","","",""
"","","","","","html-keyboard-response","176","200221","0.0-15.0-0.2-0.15","kjzxbn9rjq","","kjzxbn9rjq","""2024-11-13T18:51:19.113Z""","null","+","null","","","","","","",""
"","","","","","image-keyboard-response","177","201226","0.0-15.0-0.2-1.15","kjzxbn9rjq","","kjzxbn9rjq","""2024-11-13T18:51:19.113Z""","1003","materials/imgs/D19.png","arrowright","","[""materials/imgs/D49.png"",""materials/imgs/D34.png""]","false","random","","",""
"","","","","","html-keyboard-response","178","201727","0.0-15.0-0.2-0.16","kjzxbn9rjq","","kjzxbn9rjq","""2024-11-13T18:51:19.113Z""","null","+","null","","","","","","",""
"","","","","","image-keyboard-response","179","202630","0.0-15.0-0.2-1.16","kjzxbn9rjq","","kjzxbn9rjq","""2024-11-13T18:51:19.113Z""","900","materials/imgs/D19.png","arrowleft","","[""materials/imgs/D105.png"",""materials/imgs/D20.png""]","false","random","","",""
"","","","","","html-keyboard-response","180","203131","0.0-15.0-0.2-0.17","kjzxbn9rjq","","kjzxbn9rjq","""2024-11-13T18:51:19.113Z""","null","+","null","","","","","","",""
"","","","","","image-keyboard-response","181","204367","0.0-15.0-0.2-1.17","kjzxbn9rjq","","kjzxbn9rjq","""2024-11-13T18:51:19.113Z""","1234","materials/imgs/D95.png","arrowright","","[""materials/imgs/D75.png"",""materials/imgs/D6.png""]","false","random","","",""
"","","","","","html-keyboard-response","182","204869","0.0-15.0-0.2-0.18","kjzxbn9rjq","","kjzxbn9rjq","""2024-11-13T18:51:19.113Z""","null","+","null","","","","","","",""
"","","","","","image-keyboard-response","183","205965","0.0-15.0-0.2-1.18","kjzxbn9rjq","","kjzxbn9rjq","""2024-11-13T18:51:19.113Z""","1094","materials/imgs/D37.png","arrowright","","[""materials/imgs/D17.png"",""materials/imgs/D81.png""]","false","random","","",""
"","","","","","html-keyboard-response","184","206466","0.0-15.0-0.2-0.19","kjzxbn9rjq","","kjzxbn9rjq","""2024-11-13T18:51:19.113Z""","null","+","null","","","","","","",""
"","","","","","image-keyboard-response","185","207648","0.0-15.0-0.2-1.19","kjzxbn9rjq","","kjzxbn9rjq","""2024-11-13T18:51:19.113Z""","1180","materials/imgs/D111.png","arrowright","","[""materials/imgs/D37.png"",""materials/imgs/D36.png""]","false","random","","",""
"","","","","","html-keyboard-response","186","208150","0.0-15.0-0.2-0.20","kjzxbn9rjq","","kjzxbn9rjq","""2024-11-13T18:51:19.113Z""","null","+","null","","","","","","",""
"","","","","","image-keyboard-response","187","209635","0.0-15.0-0.2-1.20","kjzxbn9rjq","","kjzxbn9rjq","""2024-11-13T18:51:19.113Z""","1482","materials/imgs/D78.png","arrowleft","","[""materials/imgs/D101.png"",""materials/imgs/D1.png""]","false","random","","",""
"","","","","","html-keyboard-response","188","210137","0.0-15.0-1.2-0.2","kjzxbn9rjq","","kjzxbn9rjq","""2024-11-13T18:51:19.113Z""","null","+","null","","","","","","",""
"","","","","","image-keyboard-response","189","216091","0.0-15.0-1.2-1.2","kjzxbn9rjq","","kjzxbn9rjq","""2024-11-13T18:51:19.113Z""","5952","materials/imgs/D106.png","arrowleft","","[""materials/imgs/D106.png"",""materials/imgs/D101.png""]","","check","materials/imgs/D106.png","0","true"
"","","","","","html-keyboard-response","190","216592","0.0-15.0-2.2-0.4","kjzxbn9rjq","","kjzxbn9rjq","""2024-11-13T18:51:19.113Z""","null","+","null","","","","","","",""
"","","","","","image-keyboard-response","191","218201","0.0-15.0-2.2-1.4","kjzxbn9rjq","","kjzxbn9rjq","""2024-11-13T18:51:19.113Z""","1608","materials/imgs/D101.png","arrowleft","","[""materials/imgs/D76.png"",""materials/imgs/D47.png""]","false","validation","","",""
"","","","","","html-keyboard-response","192","218702","0.0-15.0-2.2-0.5","kjzxbn9rjq","","kjzxbn9rjq","""2024-11-13T18:51:19.113Z""","null","+","null","","","","","","",""
"","","","","","image-keyboard-response","193","223601","0.0-15.0-2.2-1.5","kjzxbn9rjq","","kjzxbn9rjq","""2024-11-13T18:51:19.113Z""","4896","materials/imgs/D101.png","arrowright","","[""materials/imgs/D76.png"",""materials/imgs/D47.png""]","false","validation","","",""
"","","","","","html-keyboard-response","194","224102","0.0-15.0-0.3-0.21","kjzxbn9rjq","","kjzxbn9rjq","""2024-11-13T18:51:19.113Z""","null","+","null","","","","","","",""
"","","","","","image-keyboard-response","195","225085","0.0-15.0-0.3-1.21","kjzxbn9rjq","","kjzxbn9rjq","""2024-11-13T18:51:19.113Z""","980","materials/imgs/D8.png","arrowright","","[""materials/imgs/D22.png"",""materials/imgs/D77.png""]","false","random","","",""
"","","","","","html-keyboard-response","196","225586","0.0-15.0-0.3-0.22","kjzxbn9rjq","","kjzxbn9rjq","""2024-11-13T18:51:19.113Z""","null","+","null","","","","","","",""
"","","","","","image-keyboard-response","197","226762","0.0-15.0-0.3-1.22","kjzxbn9rjq","","kjzxbn9rjq","""2024-11-13T18:51:19.113Z""","1174","materials/imgs/D56.png","arrowright","","[""materials/imgs/D94.png"",""materials/imgs/D95.png""]","false","random","","",""
"","","","","","html-keyboard-response","198","227263","0.0-15.0-0.3-0.23","kjzxbn9rjq","","kjzxbn9rjq","""2024-11-13T18:51:19.113Z""","null","+","null","","","","","","",""
"","","","","","image-keyboard-response","199","228506","0.0-15.0-0.3-1.23","kjzxbn9rjq","","kjzxbn9rjq","""2024-11-13T18:51:19.113Z""","1241","materials/imgs/D48.png","arrowleft","","[""materials/imgs/D79.png"",""materials/imgs/D77.png""]","false","random","","",""
"","","","","","html-keyboard-response","200","229007","0.0-15.0-0.3-0.24","kjzxbn9rjq","","kjzxbn9rjq","""2024-11-13T18:51:19.113Z""","null","+","null","","","","","","",""
"","","","","","image-keyboard-response","201","230179","0.0-15.0-0.3-1.24","kjzxbn9rjq","","kjzxbn9rjq","""2024-11-13T18:51:19.113Z""","1169","materials/imgs/D96.png","arrowright","","[""materials/imgs/D4.png"",""materials/imgs/D102.png""]","false","random","","",""
"","","","","","html-keyboard-response","202","230680","0.0-15.0-0.3-0.25","kjzxbn9rjq","","kjzxbn9rjq","""2024-11-13T18:51:19.113Z""","null","+","null","","","","","","",""
"","","","","","image-keyboard-response","203","231934","0.0-15.0-0.3-1.25","kjzxbn9rjq","","kjzxbn9rjq","""2024-11-13T18:51:19.113Z""","1252","materials/imgs/D47.png","arrowleft","","[""materials/imgs/D1.png"",""materials/imgs/D20.png""]","false","random","","",""
"","","","","","html-keyboard-response","204","232435","0.0-15.0-0.3-0.26","kjzxbn9rjq","","kjzxbn9rjq","""2024-11-13T18:51:19.113Z""","null","+","null","","","","","","",""
"","","","","","image-keyboard-response","205","233206","0.0-15.0-0.3-1.26","kjzxbn9rjq","","kjzxbn9rjq","""2024-11-13T18:51:19.113Z""","768","materials/imgs/D8.png","arrowright","","[""materials/imgs/D37.png"",""materials/imgs/D82.png""]","false","random","","",""
"","","","","","html-keyboard-response","206","233708","0.0-15.0-0.3-0.27","kjzxbn9rjq","","kjzxbn9rjq","""2024-11-13T18:51:19.113Z""","null","+","null","","","","","","",""
"","","","","","image-keyboard-response","207","234518","0.0-15.0-0.3-1.27","kjzxbn9rjq","","kjzxbn9rjq","""2024-11-13T18:51:19.113Z""","807","materials/imgs/D48.png","arrowleft","","[""materials/imgs/D55.png"",""materials/imgs/D19.png""]","false","random","","",""
"","","","","","html-keyboard-response","208","235019","0.0-15.0-1.3-0.3","kjzxbn9rjq","","kjzxbn9rjq","""2024-11-13T18:51:19.113Z""","null","+","null","","","","","","",""
"","","","","","image-keyboard-response","209","235632","0.0-15.0-1.3-1.3","kjzxbn9rjq","","kjzxbn9rjq","""2024-11-13T18:51:19.113Z""","611","materials/imgs/D76.png","arrowleft","","[""materials/imgs/D76.png"",""materials/imgs/D78.png""]","","check","materials/imgs/D76.png","0","true"
"","","","","","html-keyboard-response","210","236134","0.0-15.0-2.3-0.6","kjzxbn9rjq","","kjzxbn9rjq","""2024-11-13T18:51:19.113Z""","null","+","null","","","","","","",""
"","","","","","image-keyboard-response","211","236841","0.0-15.0-2.3-1.6","kjzxbn9rjq","","kjzxbn9rjq","""2024-11-13T18:51:19.113Z""","705","materials/imgs/D8.png","arrowright","","[""materials/imgs/D101.png"",""materials/imgs/D52.png""]","false","validation","","",""
"","","","","","html-keyboard-response","212","237343","0.0-15.0-2.3-0.7","kjzxbn9rjq","","kjzxbn9rjq","""2024-11-13T18:51:19.113Z""","null","+","null","","","","","","",""
"","","","","","image-keyboard-response","213","237898","0.0-15.0-2.3-1.7","kjzxbn9rjq","","kjzxbn9rjq","""2024-11-13T18:51:19.113Z""","553","materials/imgs/D105.png","arrowleft","","[""materials/imgs/D106.png"",""materials/imgs/D52.png""]","false","validation","","",""
"","","","","","html-keyboard-response","214","238399","0.0-15.0-0.4-0.28","kjzxbn9rjq","","kjzxbn9rjq","""2024-11-13T18:51:19.113Z""","null","+","null","","","","","","",""
"","","","","","image-keyboard-response","215","239197","0.0-15.0-0.4-1.28","kjzxbn9rjq","","kjzxbn9rjq","""2024-11-13T18:51:19.113Z""","795","materials/imgs/D25.png","arrowright","","[""materials/imgs/D77.png"",""materials/imgs/D55.png""]","false","random","","",""
"","","","","","html-keyboard-response","216","239698","0.0-15.0-0.4-0.29","kjzxbn9rjq","","kjzxbn9rjq","""2024-11-13T18:51:19.113Z""","null","+","null","","","","","","",""
"","","","","","image-keyboard-response","217","240357","0.0-15.0-0.4-1.29","kjzxbn9rjq","","kjzxbn9rjq","""2024-11-13T18:51:19.113Z""","656","materials/imgs/D17.png","arrowright","","[""materials/imgs/D18.png"",""materials/imgs/D78.png""]","false","random","","",""
"","","","","","html-keyboard-response","218","240859","0.0-15.0-0.4-0.30","kjzxbn9rjq","","kjzxbn9rjq","""2024-11-13T18:51:19.113Z""","null","+","null","","","","","","",""
"","","","","","image-keyboard-response","219","241901","0.0-15.0-0.4-1.30","kjzxbn9rjq","","kjzxbn9rjq","""2024-11-13T18:51:19.113Z""","1039","materials/imgs/D37.png","arrowright","","[""materials/imgs/D24.png"",""materials/imgs/D81.png""]","false","random","","",""
"","","","","","html-keyboard-response","220","242403","0.0-15.0-0.4-0.31","kjzxbn9rjq","","kjzxbn9rjq","""2024-11-13T18:51:19.113Z""","null","+","null","","","","","","",""
"","","","","","image-keyboard-response","221","243735","0.0-15.0-0.4-1.31","kjzxbn9rjq","","kjzxbn9rjq","""2024-11-13T18:51:19.113Z""","1330","materials/imgs/D4.png","arrowright","","[""materials/imgs/D20.png"",""materials/imgs/D22.png""]","false","random","","",""
"","","","","","html-keyboard-response","222","244237","0.0-15.0-0.4-0.32","kjzxbn9rjq","","kjzxbn9rjq","""2024-11-13T18:51:19.113Z""","null","+","null","","","","","","",""
"","","","","","image-keyboard-response","223","245477","0.0-15.0-0.4-1.32","kjzxbn9rjq","","kjzxbn9rjq","""2024-11-13T18:51:19.113Z""","1238","materials/imgs/D3.png","arrowright","","[""materials/imgs/D51.png"",""materials/imgs/D66.png""]","false","random","","",""
"","","","","","html-keyboard-response","224","245978","0.0-15.0-0.4-0.33","kjzxbn9rjq","","kjzxbn9rjq","""2024-11-13T18:51:19.113Z""","null","+","null","","","","","","",""
"","","","","","image-keyboard-response","225","247549","0.0-15.0-0.4-1.33","kjzxbn9rjq","","kjzxbn9rjq","""2024-11-13T18:51:19.113Z""","1568","materials/imgs/D78.png","arrowright","","[""materials/imgs/D77.png"",""materials/imgs/D49.png""]","false","random","","",""
"","","","","","html-keyboard-response","226","248050","0.0-15.0-0.4-0.34","kjzxbn9rjq","","kjzxbn9rjq","""2024-11-13T18:51:19.113Z""","null","+","null","","","","","","",""
"","","","","","image-keyboard-response","227","248920","0.0-15.0-0.4-1.34","kjzxbn9rjq","","kjzxbn9rjq","""2024-11-13T18:51:19.113Z""","867","materials/imgs/D103.png","arrowright","","[""materials/imgs/D16.png"",""materials/imgs/D55.png""]","false","random","","",""
"","","","","","html-keyboard-response","228","249421","0.0-15.0-1.4-0.4","kjzxbn9rjq","","kjzxbn9rjq","""2024-11-13T18:51:19.113Z""","null","+","null","","","","","","",""
"","","","","","image-keyboard-response","229","249975","0.0-15.0-1.4-1.4","kjzxbn9rjq","","kjzxbn9rjq","""2024-11-13T18:51:19.113Z""","552","materials/imgs/D106.png","arrowleft","","[""materials/imgs/D106.png"",""materials/imgs/D101.png""]","","check","materials/imgs/D106.png","0","true"
"","","","","","html-keyboard-response","230","250477","0.0-15.0-2.4-0.8","kjzxbn9rjq","","kjzxbn9rjq","""2024-11-13T18:51:19.113Z""","null","+","null","","","","","","",""
"","","","","","image-keyboard-response","231","252620","0.0-15.0-2.4-1.8","kjzxbn9rjq","","kjzxbn9rjq","""2024-11-13T18:51:19.113Z""","2141","materials/imgs/D46.png","arrowleft","","[""materials/imgs/D92.png"",""materials/imgs/D77.png""]","false","validation","","",""
"","","","","","html-keyboard-response","232","253121","0.0-15.0-2.4-0.9","kjzxbn9rjq","","kjzxbn9rjq","""2024-11-13T18:51:19.113Z""","null","+","null","","","","","","",""
"","","","","","image-keyboard-response","233","254030","0.0-15.0-2.4-1.9","kjzxbn9rjq","","kjzxbn9rjq","""2024-11-13T18:51:19.113Z""","907","materials/imgs/D18.png","arrowleft","","[""materials/imgs/D32.png"",""materials/imgs/D57.png""]","false","validation","","",""
"","","","","","html-button-response","234","255521","0.0-16.0","kjzxbn9rjq","","kjzxbn9rjq","""2024-11-13T18:51:19.113Z""","1490","You have completed 50% of the trials. Please click 'Continue' when you are ready proceed.","0","","","","","","",""
"","","","","","html-keyboard-response","235","256022","0.0-17.0-0.0-0.0","kjzxbn9rjq","","kjzxbn9rjq","""2024-11-13T18:51:19.113Z""","null","+","null","","","","","","",""
"","","","","","image-keyboard-response","236","256907","0.0-17.0-0.0-1.0","kjzxbn9rjq","","kjzxbn9rjq","""2024-11-13T18:51:19.113Z""","883","materials/imgs/D16.png","arrowright","","[""materials/imgs/D35.png"",""materials/imgs/D17.png""]","false","random","","",""
"","","","","","html-keyboard-response","237","257409","0.0-17.0-0.0-0.1","kjzxbn9rjq","","kjzxbn9rjq","""2024-11-13T18:51:19.113Z""","null","+","null","","","","","","",""
"","","","","","image-keyboard-response","238","258310","0.0-17.0-0.0-1.1","kjzxbn9rjq","","kjzxbn9rjq","""2024-11-13T18:51:19.113Z""","899","materials/imgs/D19.png","arrowright","","[""materials/imgs/D95.png"",""materials/imgs/D65.png""]","false","random","","",""
"","","","","","html-keyboard-response","239","258811","0.0-17.0-0.0-0.2","kjzxbn9rjq","","kjzxbn9rjq","""2024-11-13T18:51:19.113Z""","null","+","null","","","","","","",""
"","","","","","image-keyboard-response","240","259915","0.0-17.0-0.0-1.2","kjzxbn9rjq","","kjzxbn9rjq","""2024-11-13T18:51:19.113Z""","1101","materials/imgs/D92.png","arrowright","","[""materials/imgs/D24.png"",""materials/imgs/D36.png""]","false","random","","",""
"","","","","","html-keyboard-response","241","260416","0.0-17.0-0.0-0.3","kjzxbn9rjq","","kjzxbn9rjq","""2024-11-13T18:51:19.113Z""","null","+","null","","","","","","",""
"","","","","","image-keyboard-response","242","261501","0.0-17.0-0.0-1.3","kjzxbn9rjq","","kjzxbn9rjq","""2024-11-13T18:51:19.113Z""","1082","materials/imgs/D47.png","arrowright","","[""materials/imgs/D79.png"",""materials/imgs/D36.png""]","false","random","","",""
"","","","","","html-keyboard-response","243","262002","0.0-17.0-0.0-0.4","kjzxbn9rjq","","kjzxbn9rjq","""2024-11-13T18:51:19.113Z""","null","+","null","","","","","","",""
"","","","","","image-keyboard-response","244","262924","0.0-17.0-0.0-1.4","kjzxbn9rjq","","kjzxbn9rjq","""2024-11-13T18:51:19.113Z""","919","materials/imgs/D111.png","arrowright","","[""materials/imgs/D17.png"",""materials/imgs/D35.png""]","false","random","","",""
"","","","","","html-keyboard-response","245","263426","0.0-17.0-0.0-0.5","kjzxbn9rjq","","kjzxbn9rjq","""2024-11-13T18:51:19.113Z""","null","+","null","","","","","","",""
"","","","","","image-keyboard-response","246","264042","0.0-17.0-0.0-1.5","kjzxbn9rjq","","kjzxbn9rjq","""2024-11-13T18:51:19.113Z""","614","materials/imgs/D78.png","arrowleft","","[""materials/imgs/D79.png"",""materials/imgs/D6.png""]","false","random","","",""
"","","","","","html-keyboard-response","247","264543","0.0-17.0-0.0-0.6","kjzxbn9rjq","","kjzxbn9rjq","""2024-11-13T18:51:19.113Z""","null","+","null","","","","","","",""
"","","","","","image-keyboard-response","248","265845","0.0-17.0-0.0-1.6","kjzxbn9rjq","","kjzxbn9rjq","""2024-11-13T18:51:19.113Z""","1299","materials/imgs/D18.png","arrowleft","","[""materials/imgs/D80.png"",""materials/imgs/D21.png""]","false","random","","",""
"","","","","","html-keyboard-response","249","266346","0.0-17.0-1.0-0.0","kjzxbn9rjq","","kjzxbn9rjq","""2024-11-13T18:51:19.113Z""","null","+","null","","","","","","",""
"","","","","","image-keyboard-response","250","266999","0.0-17.0-1.0-1.0","kjzxbn9rjq","","kjzxbn9rjq","""2024-11-13T18:51:19.113Z""","651","materials/imgs/D53.png","arrowright","","[""materials/imgs/D64.png"",""materials/imgs/D53.png""]","","check","materials/imgs/D53.png","1","true"
"","","","","","html-keyboard-response","251","267500","0.0-17.0-2.0-0.0","kjzxbn9rjq","","kjzxbn9rjq","""2024-11-13T18:51:19.113Z""","null","+","null","","","","","","",""
"","","","","","image-keyboard-response","252","268672","0.0-17.0-2.0-1.0","kjzxbn9rjq","","kjzxbn9rjq","""2024-11-13T18:51:19.113Z""","1169","materials/imgs/D83.png","arrowright","","[""materials/imgs/D24.png"",""materials/imgs/D8.png""]","false","validation","","",""
"","","","","","html-keyboard-response","253","269173","0.0-17.0-2.0-0.1","kjzxbn9rjq","","kjzxbn9rjq","""2024-11-13T18:51:19.113Z""","null","+","null","","","","","","",""
"","","","","","image-keyboard-response","254","272002","0.0-17.0-2.0-1.1","kjzxbn9rjq","","kjzxbn9rjq","""2024-11-13T18:51:19.113Z""","2827","materials/imgs/D20.png","arrowleft","","[""materials/imgs/D84.png"",""materials/imgs/D85.png""]","false","validation","","",""
"","","","","","html-keyboard-response","255","272504","0.0-17.0-0.1-0.7","kjzxbn9rjq","","kjzxbn9rjq","""2024-11-13T18:51:19.113Z""","null","+","null","","","","","","",""
"","","","","","image-keyboard-response","256","273473","0.0-17.0-0.1-1.7","kjzxbn9rjq","","kjzxbn9rjq","""2024-11-13T18:51:19.113Z""","966","materials/imgs/D34.png","arrowright","","[""materials/imgs/D24.png"",""materials/imgs/D65.png""]","false","random","","",""
"","","","","","html-keyboard-response","257","273974","0.0-17.0-0.1-0.8","kjzxbn9rjq","","kjzxbn9rjq","""2024-11-13T18:51:19.113Z""","null","+","null","","","","","","",""
"","","","","","image-keyboard-response","258","274615","0.0-17.0-0.1-1.8","kjzxbn9rjq","","kjzxbn9rjq","""2024-11-13T18:51:19.113Z""","639","materials/imgs/D80.png","arrowleft","","[""materials/imgs/D82.png"",""materials/imgs/D20.png""]","false","random","","",""
"","","","","","html-keyboard-response","259","275116","0.0-17.0-0.1-0.9","kjzxbn9rjq","","kjzxbn9rjq","""2024-11-13T18:51:19.113Z""","null","+","null","","","","","","",""
"","","","","","image-keyboard-response","260","275674","0.0-17.0-0.1-1.9","kjzxbn9rjq","","kjzxbn9rjq","""2024-11-13T18:51:19.113Z""","556","materials/imgs/D18.png","arrowright","","[""materials/imgs/D77.png"",""materials/imgs/D46.png""]","false","random","","",""
"","","","","","html-keyboard-response","261","276175","0.0-17.0-0.1-0.10","kjzxbn9rjq","","kjzxbn9rjq","""2024-11-13T18:51:19.113Z""","null","+","null","","","","","","",""
"","","","","","image-keyboard-response","262","277065","0.0-17.0-0.1-1.10","kjzxbn9rjq","","kjzxbn9rjq","""2024-11-13T18:51:19.113Z""","887","materials/imgs/D102.png","arrowleft","","[""materials/imgs/D101.png"",""materials/imgs/D66.png""]","false","random","","",""
"","","","","","html-keyboard-response","263","277568","0.0-17.0-0.1-0.11","kjzxbn9rjq","","kjzxbn9rjq","""2024-11-13T18:51:19.113Z""","null","+","null","","","","","","",""
"","","","","","image-keyboard-response","264","279942","0.0-17.0-0.1-1.11","kjzxbn9rjq","","kjzxbn9rjq","""2024-11-13T18:51:19.113Z""","2371","materials/imgs/D21.png","arrowright","","[""materials/imgs/D83.png"",""materials/imgs/D20.png""]","false","random","","",""
"","","","","","html-keyboard-response","265","280443","0.0-17.0-0.1-0.12","kjzxbn9rjq","","kjzxbn9rjq","""2024-11-13T18:51:19.113Z""","null","+","null","","","","","","",""
"","","","","","image-keyboard-response","266","281017","0.0-17.0-0.1-1.12","kjzxbn9rjq","","kjzxbn9rjq","""2024-11-13T18:51:19.113Z""","564","materials/imgs/D106.png","arrowleft","","[""materials/imgs/D78.png"",""materials/imgs/D104.png""]","false","random","","",""
"","","","","","html-keyboard-response","267","281519","0.0-17.0-0.1-0.13","kjzxbn9rjq","","kjzxbn9rjq","""2024-11-13T18:51:19.113Z""","null","+","null","","","","","","",""
"","","","","","image-keyboard-response","268","282792","0.0-17.0-0.1-1.13","kjzxbn9rjq","","kjzxbn9rjq","""2024-11-13T18:51:19.113Z""","1271","materials/imgs/D24.png","arrowleft","","[""materials/imgs/D35.png"",""materials/imgs/D51.png""]","false","random","","",""
"","","","","","html-keyboard-response","269","283294","0.0-17.0-1.1-0.1","kjzxbn9rjq","","kjzxbn9rjq","""2024-11-13T18:51:19.113Z""","null","+","null","","","","","","",""
"","","","","","image-keyboard-response","270","283845","0.0-17.0-1.1-1.1","kjzxbn9rjq","","kjzxbn9rjq","""2024-11-13T18:51:19.113Z""","549","materials/imgs/D46.png","arrowleft","","[""materials/imgs/D46.png"",""materials/imgs/D26.png""]","","check","materials/imgs/D46.png","0","true"
"","","","","","html-keyboard-response","271","284346","0.0-17.0-2.1-0.2","kjzxbn9rjq","","kjzxbn9rjq","""2024-11-13T18:51:19.113Z""","null","+","null","","","","","","",""
"","","","","","image-keyboard-response","272","285701","0.0-17.0-2.1-1.2","kjzxbn9rjq","","kjzxbn9rjq","""2024-11-13T18:51:19.113Z""","1352","materials/imgs/D84.png","arrowleft","","[""materials/imgs/D106.png"",""materials/imgs/D37.png""]","false","validation","","",""
"","","","","","html-keyboard-response","273","286202","0.0-17.0-2.1-0.3","kjzxbn9rjq","","kjzxbn9rjq","""2024-11-13T18:51:19.113Z""","null","+","null","","","","","","",""
"","","","","","image-keyboard-response","274","297216","0.0-17.0-2.1-1.3","kjzxbn9rjq","","kjzxbn9rjq","""2024-11-13T18:51:19.113Z""","11012","materials/imgs/D77.png","arrowright","","[""materials/imgs/D102.png"",""materials/imgs/D65.png""]","false","validation","","",""
"","","","","","html-keyboard-response","275","297718","0.0-17.0-0.2-0.14","kjzxbn9rjq","","kjzxbn9rjq","""2024-11-13T18:51:19.113Z""","null","+","null","","","","","","",""
"","","","","","image-keyboard-response","276","298392","0.0-17.0-0.2-1.14","kjzxbn9rjq","","kjzxbn9rjq","""2024-11-13T18:51:19.113Z""","671","materials/imgs/D84.png","arrowleft","","[""materials/imgs/D22.png"",""materials/imgs/D4.png""]","false","random","","",""
"","","","","","html-keyboard-response","277","298893","0.0-17.0-0.2-0.15","kjzxbn9rjq","","kjzxbn9rjq","""2024-11-13T18:51:19.113Z""","null","+","null","","","","","","",""
"","","","","","image-keyboard-response","278","300205","0.0-17.0-0.2-1.15","kjzxbn9rjq","","kjzxbn9rjq","""2024-11-13T18:51:19.113Z""","1309","materials/imgs/D68.png","arrowright","","[""materials/imgs/D35.png"",""materials/imgs/D8.png""]","false","random","","",""
"","","","","","html-keyboard-response","279","300706","0.0-17.0-0.2-0.16","kjzxbn9rjq","","kjzxbn9rjq","""2024-11-13T18:51:19.113Z""","null","+","null","","","","","","",""
"","","","","","image-keyboard-response","280","301597","0.0-17.0-0.2-1.16","kjzxbn9rjq","","kjzxbn9rjq","""2024-11-13T18:51:19.113Z""","889","materials/imgs/D48.png","arrowright","","[""materials/imgs/D65.png"",""materials/imgs/D21.png""]","false","random","","",""
"","","","","","html-keyboard-response","281","302098","0.0-17.0-0.2-0.17","kjzxbn9rjq","","kjzxbn9rjq","""2024-11-13T18:51:19.113Z""","null","+","null","","","","","","",""
"","","","","","image-keyboard-response","282","302665","0.0-17.0-0.2-1.17","kjzxbn9rjq","","kjzxbn9rjq","""2024-11-13T18:51:19.113Z""","564","materials/imgs/D101.png","arrowright","","[""materials/imgs/D21.png"",""materials/imgs/D20.png""]","false","random","","",""
"","","","","","html-keyboard-response","283","303166","0.0-17.0-0.2-0.18","kjzxbn9rjq","","kjzxbn9rjq","""2024-11-13T18:51:19.113Z""","null","+","null","","","","","","",""
"","","","","","image-keyboard-response","284","307924","0.0-17.0-0.2-1.18","kjzxbn9rjq","","kjzxbn9rjq","""2024-11-13T18:51:19.113Z""","4756","materials/imgs/D92.png","arrowleft","","[""materials/imgs/D35.png"",""materials/imgs/D96.png""]","false","random","","",""
"","","","","","html-keyboard-response","285","308426","0.0-17.0-0.2-0.19","kjzxbn9rjq","","kjzxbn9rjq","""2024-11-13T18:51:19.113Z""","null","+","null","","","","","","",""
"","","","","","image-keyboard-response","286","309279","0.0-17.0-0.2-1.19","kjzxbn9rjq","","kjzxbn9rjq","""2024-11-13T18:51:19.113Z""","851","materials/imgs/D87.png","arrowleft","","[""materials/imgs/D111.png"",""materials/imgs/D79.png""]","false","random","","",""
"","","","","","html-keyboard-response","287","309781","0.0-17.0-0.2-0.20","kjzxbn9rjq","","kjzxbn9rjq","""2024-11-13T18:51:19.113Z""","null","+","null","","","","","","",""
"","","","","","image-keyboard-response","288","310525","0.0-17.0-0.2-1.20","kjzxbn9rjq","","kjzxbn9rjq","""2024-11-13T18:51:19.113Z""","741","materials/imgs/D26.png","arrowright","","[""materials/imgs/D8.png"",""materials/imgs/D94.png""]","false","random","","",""
"","","","","","html-keyboard-response","289","311026","0.0-17.0-1.2-0.2","kjzxbn9rjq","","kjzxbn9rjq","""2024-11-13T18:51:19.113Z""","null","+","null","","","","","","",""
"","","","","","image-keyboard-response","290","311534","0.0-17.0-1.2-1.2","kjzxbn9rjq","","kjzxbn9rjq","""2024-11-13T18:51:19.113Z""","506","materials/imgs/D26.png","arrowleft","","[""materials/imgs/D26.png"",""materials/imgs/D46.png""]","","check","materials/imgs/D26.png","0","true"
"","","","","","html-keyboard-response","291","312035","0.0-17.0-2.2-0.4","kjzxbn9rjq","","kjzxbn9rjq","""2024-11-13T18:51:19.113Z""","null","+","null","","","","","","",""
"","","","","","image-keyboard-response","292","313057","0.0-17.0-2.2-1.4","kjzxbn9rjq","","kjzxbn9rjq","""2024-11-13T18:51:19.113Z""","1019","materials/imgs/D19.png","arrowleft","","[""materials/imgs/D111.png"",""materials/imgs/D56.png""]","false","validation","","",""
"","","","","","html-keyboard-response","293","313558","0.0-17.0-2.2-0.5","kjzxbn9rjq","","kjzxbn9rjq","""2024-11-13T18:51:19.113Z""","null","+","null","","","","","","",""
"","","","","","image-keyboard-response","294","314440","0.0-17.0-2.2-1.5","kjzxbn9rjq","","kjzxbn9rjq","""2024-11-13T18:51:19.113Z""","880","materials/imgs/D16.png","arrowleft","","[""materials/imgs/D52.png"",""materials/imgs/D25.png""]","false","validation","","",""
"","","","","","html-keyboard-response","295","314942","0.0-17.0-0.3-0.21","kjzxbn9rjq","","kjzxbn9rjq","""2024-11-13T18:51:19.113Z""","null","+","null","","","","","","",""
"","","","","","image-keyboard-response","296","315619","0.0-17.0-0.3-1.21","kjzxbn9rjq","","kjzxbn9rjq","""2024-11-13T18:51:19.113Z""","674","materials/imgs/D9.png","arrowleft","","[""materials/imgs/D14.png"",""materials/imgs/D8.png""]","false","random","","",""
"","","","","","html-keyboard-response","297","316120","0.0-17.0-0.3-0.22","kjzxbn9rjq","","kjzxbn9rjq","""2024-11-13T18:51:19.113Z""","null","+","null","","","","","","",""
"","","","","","image-keyboard-response","298","316882","0.0-17.0-0.3-1.22","kjzxbn9rjq","","kjzxbn9rjq","""2024-11-13T18:51:19.113Z""","759","materials/imgs/D49.png","arrowright","","[""materials/imgs/D84.png"",""materials/imgs/D103.png""]","false","random","","",""
"","","","","","html-keyboard-response","299","317383","0.0-17.0-0.3-0.23","kjzxbn9rjq","","kjzxbn9rjq","""2024-11-13T18:51:19.113Z""","null","+","null","","","","","","",""
"","","","","","image-keyboard-response","300","318629","0.0-17.0-0.3-1.23","kjzxbn9rjq","","kjzxbn9rjq","""2024-11-13T18:51:19.113Z""","1242","materials/imgs/D103.png","arrowleft","","[""materials/imgs/D78.png"",""materials/imgs/D95.png""]","false","random","","",""
"","","","","","html-keyboard-response","301","319130","0.0-17.0-0.3-0.24","kjzxbn9rjq","","kjzxbn9rjq","""2024-11-13T18:51:19.113Z""","null","+","null","","","","","","",""
"","","","","","image-keyboard-response","302","320005","0.0-17.0-0.3-1.24","kjzxbn9rjq","","kjzxbn9rjq","""2024-11-13T18:51:19.113Z""","872","materials/imgs/D22.png","arrowright","","[""materials/imgs/D49.png"",""materials/imgs/D9.png""]","false","random","","",""
"","","","","","html-keyboard-response","303","320507","0.0-17.0-0.3-0.25","kjzxbn9rjq","","kjzxbn9rjq","""2024-11-13T18:51:19.113Z""","null","+","null","","","","","","",""
"","","","","","image-keyboard-response","304","321278","0.0-17.0-0.3-1.25","kjzxbn9rjq","","kjzxbn9rjq","""2024-11-13T18:51:19.113Z""","769","materials/imgs/D75.png","arrowleft","","[""materials/imgs/D22.png"",""materials/imgs/D16.png""]","false","random","","",""
"","","","","","html-keyboard-response","305","321779","0.0-17.0-0.3-0.26","kjzxbn9rjq","","kjzxbn9rjq","""2024-11-13T18:51:19.113Z""","null","+","null","","","","","","",""
"","","","","","image-keyboard-response","306","322841","0.0-17.0-0.3-1.26","kjzxbn9rjq","","kjzxbn9rjq","""2024-11-13T18:51:19.113Z""","1059","materials/imgs/D53.png","arrowleft","","[""materials/imgs/D79.png"",""materials/imgs/D25.png""]","false","random","","",""
"","","","","","html-keyboard-response","307","323342","0.0-17.0-0.3-0.27","kjzxbn9rjq","","kjzxbn9rjq","""2024-11-13T18:51:19.113Z""","null","+","null","","","","","","",""
"","","","","","image-keyboard-response","308","324758","0.0-17.0-0.3-1.27","kjzxbn9rjq","","kjzxbn9rjq","""2024-11-13T18:51:19.113Z""","1414","materials/imgs/D106.png","arrowleft","","[""materials/imgs/D19.png"",""materials/imgs/D74.png""]","false","random","","",""
"","","","","","html-keyboard-response","309","325259","0.0-17.0-1.3-0.3","kjzxbn9rjq","","kjzxbn9rjq","""2024-11-13T18:51:19.113Z""","null","+","null","","","","","","",""
"","","","","","image-keyboard-response","310","325745","0.0-17.0-1.3-1.3","kjzxbn9rjq","","kjzxbn9rjq","""2024-11-13T18:51:19.113Z""","484","materials/imgs/D106.png","arrowleft","","[""materials/imgs/D106.png"",""materials/imgs/D101.png""]","","check","materials/imgs/D106.png","0","true"
"","","","","","html-keyboard-response","311","326246","0.0-17.0-2.3-0.6","kjzxbn9rjq","","kjzxbn9rjq","""2024-11-13T18:51:19.113Z""","null","+","null","","","","","","",""
"","","","","","image-keyboard-response","312","327069","0.0-17.0-2.3-1.6","kjzxbn9rjq","","kjzxbn9rjq","""2024-11-13T18:51:19.113Z""","821","materials/imgs/D35.png","arrowright","","[""materials/imgs/D83.png"",""materials/imgs/D24.png""]","false","validation","","",""
"","","","","","html-keyboard-response","313","327570","0.0-17.0-2.3-0.7","kjzxbn9rjq","","kjzxbn9rjq","""2024-11-13T18:51:19.113Z""","null","+","null","","","","","","",""
"","","","","","image-keyboard-response","314","328804","0.0-17.0-2.3-1.7","kjzxbn9rjq","","kjzxbn9rjq","""2024-11-13T18:51:19.113Z""","1231","materials/imgs/D77.png","arrowleft","","[""materials/imgs/D102.png"",""materials/imgs/D65.png""]","false","validation","","",""
"","","","","","html-keyboard-response","315","329305","0.0-17.0-0.4-0.28","kjzxbn9rjq","","kjzxbn9rjq","""2024-11-13T18:51:19.113Z""","null","+","null","","","","","","",""
"","","","","","image-keyboard-response","316","331074","0.0-17.0-0.4-1.28","kjzxbn9rjq","","kjzxbn9rjq","""2024-11-13T18:51:19.113Z""","1767","materials/imgs/D36.png","arrowright","","[""materials/imgs/D102.png"",""materials/imgs/D6.png""]","false","random","","",""
"","","","","","html-keyboard-response","317","331576","0.0-17.0-0.4-0.29","kjzxbn9rjq","","kjzxbn9rjq","""2024-11-13T18:51:19.113Z""","null","+","null","","","","","","",""
"","","","","","image-keyboard-response","318","333992","0.0-17.0-0.4-1.29","kjzxbn9rjq","","kjzxbn9rjq","""2024-11-13T18:51:19.113Z""","2413","materials/imgs/D84.png","arrowright","","[""materials/imgs/D8.png"",""materials/imgs/D35.png""]","false","random","","",""
"","","","","","html-keyboard-response","319","334493","0.0-17.0-0.4-0.30","kjzxbn9rjq","","kjzxbn9rjq","""2024-11-13T18:51:19.113Z""","null","+","null","","","","","","",""
"","","","","","image-keyboard-response","320","335296","0.0-17.0-0.4-1.30","kjzxbn9rjq","","kjzxbn9rjq","""2024-11-13T18:51:19.113Z""","801","materials/imgs/D79.png","arrowright","","[""materials/imgs/D82.png"",""materials/imgs/D104.png""]","false","random","","",""
"","","","","","html-keyboard-response","321","335797","0.0-17.0-0.4-0.31","kjzxbn9rjq","","kjzxbn9rjq","""2024-11-13T18:51:19.113Z""","null","+","null","","","","","","",""
"","","","","","image-keyboard-response","322","336846","0.0-17.0-0.4-1.31","kjzxbn9rjq","","kjzxbn9rjq","""2024-11-13T18:51:19.113Z""","1046","materials/imgs/D8.png","arrowleft","","[""materials/imgs/D76.png"",""materials/imgs/D9.png""]","false","random","","",""
"","","","","","html-keyboard-response","323","337348","0.0-17.0-0.4-0.32","kjzxbn9rjq","","kjzxbn9rjq","""2024-11-13T18:51:19.113Z""","null","+","null","","","","","","",""
"","","","","","image-keyboard-response","324","338812","0.0-17.0-0.4-1.32","kjzxbn9rjq","","kjzxbn9rjq","""2024-11-13T18:51:19.113Z""","1461","materials/imgs/D92.png","arrowright","","[""materials/imgs/D20.png"",""materials/imgs/D29.png""]","false","random","","",""
"","","","","","html-keyboard-response","325","339313","0.0-17.0-0.4-0.33","kjzxbn9rjq","","kjzxbn9rjq","""2024-11-13T18:51:19.113Z""","null","+","null","","","","","","",""
"","","","","","image-keyboard-response","326","340138","0.0-17.0-0.4-1.33","kjzxbn9rjq","","kjzxbn9rjq","""2024-11-13T18:51:19.113Z""","822","materials/imgs/D24.png","arrowleft","","[""materials/imgs/D35.png"",""materials/imgs/D77.png""]","false","random","","",""
"","","","","","html-keyboard-response","327","340639","0.0-17.0-0.4-0.34","kjzxbn9rjq","","kjzxbn9rjq","""2024-11-13T18:51:19.113Z""","null","+","null","","","","","","",""
"","","","","","image-keyboard-response","328","341747","0.0-17.0-0.4-1.34","kjzxbn9rjq","","kjzxbn9rjq","""2024-11-13T18:51:19.113Z""","1106","materials/imgs/D3.png","arrowleft","","[""materials/imgs/D80.png"",""materials/imgs/D11.png""]","false","random","","",""
"","","","","","html-keyboard-response","329","342248","0.0-17.0-1.4-0.4","kjzxbn9rjq","","kjzxbn9rjq","""2024-11-13T18:51:19.113Z""","null","+","null","","","","","","",""
"","","","","","image-keyboard-response","330","342814","0.0-17.0-1.4-1.4","kjzxbn9rjq","","kjzxbn9rjq","""2024-11-13T18:51:19.113Z""","564","materials/imgs/D64.png","arrowleft","","[""materials/imgs/D64.png"",""materials/imgs/D53.png""]","","check","materials/imgs/D64.png","0","true"
"","","","","","html-keyboard-response","331","343315","0.0-17.0-2.4-0.8","kjzxbn9rjq","","kjzxbn9rjq","""2024-11-13T18:51:19.113Z""","null","+","null","","","","","","",""
"","","","","","image-keyboard-response","332","345336","0.0-17.0-2.4-1.8","kjzxbn9rjq","","kjzxbn9rjq","""2024-11-13T18:51:19.113Z""","2018","materials/imgs/D16.png","arrowright","","[""materials/imgs/D52.png"",""materials/imgs/D25.png""]","false","validation","","",""
"","","","","","html-keyboard-response","333","345837","0.0-17.0-2.4-0.9","kjzxbn9rjq","","kjzxbn9rjq","""2024-11-13T18:51:19.113Z""","null","+","null","","","","","","",""
"","","","","","image-keyboard-response","334","346514","0.0-17.0-2.4-1.9","kjzxbn9rjq","","kjzxbn9rjq","""2024-11-13T18:51:19.113Z""","675","materials/imgs/D47.png","arrowleft","","[""materials/imgs/D1.png"",""materials/imgs/D52.png""]","false","validation","","",""
"","","","","","html-button-response","335","347736","0.0-18.0","kjzxbn9rjq","","kjzxbn9rjq","""2024-11-13T18:51:19.113Z""","1221","You have completed 75% of the trials. Please click 'Continue' when you are ready proceed.","0","","","","","","",""
"","","","","","html-keyboard-response","336","348237","0.0-19.0-0.0-0.0","kjzxbn9rjq","","kjzxbn9rjq","""2024-11-13T18:51:19.113Z""","null","+","null","","","","","","",""
"","","","","","image-keyboard-response","337","349029","0.0-19.0-0.0-1.0","kjzxbn9rjq","","kjzxbn9rjq","""2024-11-13T18:51:19.113Z""","790","materials/imgs/D36.png","arrowright","","[""materials/imgs/D101.png"",""materials/imgs/D111.png""]","false","random","","",""
"","","","","","html-keyboard-response","338","349530","0.0-19.0-0.0-0.1","kjzxbn9rjq","","kjzxbn9rjq","""2024-11-13T18:51:19.113Z""","null","+","null","","","","","","",""
"","","","","","image-keyboard-response","339","350191","0.0-19.0-0.0-1.1","kjzxbn9rjq","","kjzxbn9rjq","""2024-11-13T18:51:19.113Z""","658","materials/imgs/D64.png","arrowright","","[""materials/imgs/D24.png"",""materials/imgs/D111.png""]","false","random","","",""
"","","","","","html-keyboard-response","340","350692","0.0-19.0-0.0-0.2","kjzxbn9rjq","","kjzxbn9rjq","""2024-11-13T18:51:19.113Z""","null","+","null","","","","","","",""
"","","","","","image-keyboard-response","341","351381","0.0-19.0-0.0-1.2","kjzxbn9rjq","","kjzxbn9rjq","""2024-11-13T18:51:19.113Z""","686","materials/imgs/D1.png","arrowleft","","[""materials/imgs/D105.png"",""materials/imgs/D21.png""]","false","random","","",""
"","","","","","html-keyboard-response","342","351882","0.0-19.0-0.0-0.3","kjzxbn9rjq","","kjzxbn9rjq","""2024-11-13T18:51:19.113Z""","null","+","null","","","","","","",""
"","","","","","image-keyboard-response","343","352796","0.0-19.0-0.0-1.3","kjzxbn9rjq","","kjzxbn9rjq","""2024-11-13T18:51:19.113Z""","911","materials/imgs/D102.png","arrowright","","[""materials/imgs/D85.png"",""materials/imgs/D35.png""]","false","random","","",""
"","","","","","html-keyboard-response","344","353297","0.0-19.0-0.0-0.4","kjzxbn9rjq","","kjzxbn9rjq","""2024-11-13T18:51:19.113Z""","null","+","null","","","","","","",""
"","","","","","image-keyboard-response","345","354008","0.0-19.0-0.0-1.4","kjzxbn9rjq","","kjzxbn9rjq","""2024-11-13T18:51:19.113Z""","709","materials/imgs/D14.png","arrowright","","[""materials/imgs/D68.png"",""materials/imgs/D11.png""]","false","random","","",""
"","","","","","html-keyboard-response","346","354510","0.0-19.0-0.0-0.5","kjzxbn9rjq","","kjzxbn9rjq","""2024-11-13T18:51:19.113Z""","null","+","null","","","","","","",""
"","","","","","image-keyboard-response","347","355539","0.0-19.0-0.0-1.5","kjzxbn9rjq","","kjzxbn9rjq","""2024-11-13T18:51:19.113Z""","1026","materials/imgs/D101.png","arrowright","","[""materials/imgs/D81.png"",""materials/imgs/D6.png""]","false","random","","",""
"","","","","","html-keyboard-response","348","356040","0.0-19.0-0.0-0.6","kjzxbn9rjq","","kjzxbn9rjq","""2024-11-13T18:51:19.113Z""","null","+","null","","","","","","",""
"","","","","","image-keyboard-response","349","356842","0.0-19.0-0.0-1.6","kjzxbn9rjq","","kjzxbn9rjq","""2024-11-13T18:51:19.113Z""","800","materials/imgs/D14.png","arrowright","","[""materials/imgs/D66.png"",""materials/imgs/D22.png""]","false","random","","",""
"","","","","","html-keyboard-response","350","357343","0.0-19.0-1.0-0.0","kjzxbn9rjq","","kjzxbn9rjq","""2024-11-13T18:51:19.113Z""","null","+","null","","","","","","",""
"","","","","","image-keyboard-response","351","358031","0.0-19.0-1.0-1.0","kjzxbn9rjq","","kjzxbn9rjq","""2024-11-13T18:51:19.113Z""","686","materials/imgs/D18.png","arrowright","","[""materials/imgs/D8.png"",""materials/imgs/D18.png""]","","check","materials/imgs/D18.png","1","true"
"","","","","","html-keyboard-response","352","358532","0.0-19.0-2.0-0.0","kjzxbn9rjq","","kjzxbn9rjq","""2024-11-13T18:51:19.113Z""","null","+","null","","","","","","",""
"","","","","","image-keyboard-response","353","359379","0.0-19.0-2.0-1.0","kjzxbn9rjq","","kjzxbn9rjq","""2024-11-13T18:51:19.113Z""","845","materials/imgs/D49.png","arrowleft","","[""materials/imgs/D8.png"",""materials/imgs/D101.png""]","false","validation","","",""
"","","","","","html-keyboard-response","354","359881","0.0-19.0-2.0-0.1","kjzxbn9rjq","","kjzxbn9rjq","""2024-11-13T18:51:19.113Z""","null","+","null","","","","","","",""
"","","","","","image-keyboard-response","355","360932","0.0-19.0-2.0-1.1","kjzxbn9rjq","","kjzxbn9rjq","""2024-11-13T18:51:19.113Z""","1049","materials/imgs/D102.png","arrowright","","[""materials/imgs/D32.png"",""materials/imgs/D111.png""]","false","validation","","",""
"","","","","","html-keyboard-response","356","361434","0.0-19.0-0.1-0.7","kjzxbn9rjq","","kjzxbn9rjq","""2024-11-13T18:51:19.113Z""","null","+","null","","","","","","",""
"","","","","","image-keyboard-response","357","362441","0.0-19.0-0.1-1.7","kjzxbn9rjq","","kjzxbn9rjq","""2024-11-13T18:51:19.113Z""","1005","materials/imgs/D101.png","arrowright","","[""materials/imgs/D87.png"",""materials/imgs/D18.png""]","false","random","","",""
"","","","","","html-keyboard-response","358","362943","0.0-19.0-0.1-0.8","kjzxbn9rjq","","kjzxbn9rjq","""2024-11-13T18:51:19.113Z""","null","+","null","","","","","","",""
"","","","","","image-keyboard-response","359","363959","0.0-19.0-0.1-1.8","kjzxbn9rjq","","kjzxbn9rjq","""2024-11-13T18:51:19.113Z""","1013","materials/imgs/D94.png","arrowright","","[""materials/imgs/D87.png"",""materials/imgs/D55.png""]","false","random","","",""
"","","","","","html-keyboard-response","360","364460","0.0-19.0-0.1-0.9","kjzxbn9rjq","","kjzxbn9rjq","""2024-11-13T18:51:19.113Z""","null","+","null","","","","","","",""
"","","","","","image-keyboard-response","361","365842","0.0-19.0-0.1-1.9","kjzxbn9rjq","","kjzxbn9rjq","""2024-11-13T18:51:19.113Z""","1379","materials/imgs/D96.png","arrowright","","[""materials/imgs/D20.png"",""materials/imgs/D14.png""]","false","random","","",""
"","","","","","html-keyboard-response","362","366343","0.0-19.0-0.1-0.10","kjzxbn9rjq","","kjzxbn9rjq","""2024-11-13T18:51:19.113Z""","null","+","null","","","","","","",""
"","","","","","image-keyboard-response","363","367493","0.0-19.0-0.1-1.10","kjzxbn9rjq","","kjzxbn9rjq","""2024-11-13T18:51:19.113Z""","1147","materials/imgs/D111.png","arrowleft","","[""materials/imgs/D80.png"",""materials/imgs/D82.png""]","false","random","","",""
"","","","","","html-keyboard-response","364","367995","0.0-19.0-0.1-0.11","kjzxbn9rjq","","kjzxbn9rjq","""2024-11-13T18:51:19.113Z""","null","+","null","","","","","","",""
"","","","","","image-keyboard-response","365","370411","0.0-19.0-0.1-1.11","kjzxbn9rjq","","kjzxbn9rjq","""2024-11-13T18:51:19.113Z""","2414","materials/imgs/D46.png","arrowleft","","[""materials/imgs/D76.png"",""materials/imgs/D85.png""]","false","random","","",""
"","","","","","html-keyboard-response","366","370913","0.0-19.0-0.1-0.12","kjzxbn9rjq","","kjzxbn9rjq","""2024-11-13T18:51:19.113Z""","null","+","null","","","","","","",""
"","","","","","image-keyboard-response","367","373062","0.0-19.0-0.1-1.12","kjzxbn9rjq","","kjzxbn9rjq","""2024-11-13T18:51:19.113Z""","2147","materials/imgs/D17.png","arrowright","","[""materials/imgs/D21.png"",""materials/imgs/D106.png""]","false","random","","",""
"","","","","","html-keyboard-response","368","373564","0.0-19.0-0.1-0.13","kjzxbn9rjq","","kjzxbn9rjq","""2024-11-13T18:51:19.113Z""","null","+","null","","","","","","",""
"","","","","","image-keyboard-response","369","375531","0.0-19.0-0.1-1.13","kjzxbn9rjq","","kjzxbn9rjq","""2024-11-13T18:51:19.113Z""","1965","materials/imgs/D19.png","arrowleft","","[""materials/imgs/D79.png"",""materials/imgs/D106.png""]","false","random","","",""
"","","","","","html-keyboard-response","370","376033","0.0-19.0-1.1-0.1","kjzxbn9rjq","","kjzxbn9rjq","""2024-11-13T18:51:19.113Z""","null","+","null","","","","","","",""
"","","","","","image-keyboard-response","371","376702","0.0-19.0-1.1-1.1","kjzxbn9rjq","","kjzxbn9rjq","""2024-11-13T18:51:19.113Z""","666","materials/imgs/D26.png","arrowleft","","[""materials/imgs/D26.png"",""materials/imgs/D46.png""]","","check","materials/imgs/D26.png","0","true"
"","","","","","html-keyboard-response","372","377203","0.0-19.0-2.1-0.2","kjzxbn9rjq","","kjzxbn9rjq","""2024-11-13T18:51:19.113Z""","null","+","null","","","","","","",""
"","","","","","image-keyboard-response","373","378201","0.0-19.0-2.1-1.2","kjzxbn9rjq","","kjzxbn9rjq","""2024-11-13T18:51:19.113Z""","995","materials/imgs/D75.png","arrowright","","[""materials/imgs/D96.png"",""materials/imgs/D4.png""]","false","validation","","",""
"","","","","","html-keyboard-response","374","378702","0.0-19.0-2.1-0.3","kjzxbn9rjq","","kjzxbn9rjq","""2024-11-13T18:51:19.113Z""","null","+","null","","","","","","",""
"","","","","","image-keyboard-response","375","379852","0.0-19.0-2.1-1.3","kjzxbn9rjq","","kjzxbn9rjq","""2024-11-13T18:51:19.113Z""","1148","materials/imgs/D65.png","arrowright","","[""materials/imgs/D4.png"",""materials/imgs/D16.png""]","false","validation","","",""
"","","","","","html-keyboard-response","376","380354","0.0-19.0-0.2-0.14","kjzxbn9rjq","","kjzxbn9rjq","""2024-11-13T18:51:19.113Z""","null","+","null","","","","","","",""
"","","","","","image-keyboard-response","377","381462","0.0-19.0-0.2-1.14","kjzxbn9rjq","","kjzxbn9rjq","""2024-11-13T18:51:19.113Z""","1106","materials/imgs/D9.png","arrowright","","[""materials/imgs/D106.png"",""materials/imgs/D68.png""]","false","random","","",""
"","","","","","html-keyboard-response","378","381964","0.0-19.0-0.2-0.15","kjzxbn9rjq","","kjzxbn9rjq","""2024-11-13T18:51:19.113Z""","null","+","null","","","","","","",""
"","","","","","image-keyboard-response","379","382971","0.0-19.0-0.2-1.15","kjzxbn9rjq","","kjzxbn9rjq","""2024-11-13T18:51:19.113Z""","1004","materials/imgs/D19.png","arrowleft","","[""materials/imgs/D36.png"",""materials/imgs/D101.png""]","false","random","","",""
"","","","","","html-keyboard-response","380","383472","0.0-19.0-0.2-0.16","kjzxbn9rjq","","kjzxbn9rjq","""2024-11-13T18:51:19.113Z""","null","+","null","","","","","","",""
"","","","","","image-keyboard-response","381","384869","0.0-19.0-0.2-1.16","kjzxbn9rjq","","kjzxbn9rjq","""2024-11-13T18:51:19.113Z""","1394","materials/imgs/D103.png","arrowright","","[""materials/imgs/D25.png"",""materials/imgs/D66.png""]","false","random","","",""
"","","","","","html-keyboard-response","382","385370","0.0-19.0-0.2-0.17","kjzxbn9rjq","","kjzxbn9rjq","""2024-11-13T18:51:19.113Z""","null","+","null","","","","","","",""
"","","","","","image-keyboard-response","383","388113","0.0-19.0-0.2-1.17","kjzxbn9rjq","","kjzxbn9rjq","""2024-11-13T18:51:19.113Z""","2741","materials/imgs/D6.png","arrowleft","","[""materials/imgs/D103.png"",""materials/imgs/D83.png""]","false","random","","",""
"","","","","","html-keyboard-response","384","388614","0.0-19.0-0.2-0.18","kjzxbn9rjq","","kjzxbn9rjq","""2024-11-13T18:51:19.113Z""","null","+","null","","","","","","",""
"","","","","","image-keyboard-response","385","389495","0.0-19.0-0.2-1.18","kjzxbn9rjq","","kjzxbn9rjq","""2024-11-13T18:51:19.113Z""","878","materials/imgs/D79.png","arrowright","","[""materials/imgs/D64.png"",""materials/imgs/D103.png""]","false","random","","",""
"","","","","","html-keyboard-response","386","389996","0.0-19.0-0.2-0.19","kjzxbn9rjq","","kjzxbn9rjq","""2024-11-13T18:51:19.113Z""","null","+","null","","","","","","",""
"","","","","","image-keyboard-response","387","391391","0.0-19.0-0.2-1.19","kjzxbn9rjq","","kjzxbn9rjq","""2024-11-13T18:51:19.113Z""","1392","materials/imgs/D29.png","arrowleft","","[""materials/imgs/D96.png"",""materials/imgs/D103.png""]","false","random","","",""
"","","","","","html-keyboard-response","388","391894","0.0-19.0-0.2-0.20","kjzxbn9rjq","","kjzxbn9rjq","""2024-11-13T18:51:19.113Z""","null","+","null","","","","","","",""
"","","","","","image-keyboard-response","389","392830","0.0-19.0-0.2-1.20","kjzxbn9rjq","","kjzxbn9rjq","""2024-11-13T18:51:19.113Z""","934","materials/imgs/D3.png","arrowleft","","[""materials/imgs/D36.png"",""materials/imgs/D83.png""]","false","random","","",""
"","","","","","html-keyboard-response","390","393332","0.0-19.0-1.2-0.2","kjzxbn9rjq","","kjzxbn9rjq","""2024-11-13T18:51:19.113Z""","null","+","null","","","","","","",""
"","","","","","image-keyboard-response","391","393955","0.0-19.0-1.2-1.2","kjzxbn9rjq","","kjzxbn9rjq","""2024-11-13T18:51:19.113Z""","622","materials/imgs/D46.png","arrowleft","","[""materials/imgs/D46.png"",""materials/imgs/D26.png""]","","check","materials/imgs/D46.png","0","true"
"","","","","","html-keyboard-response","392","394456","0.0-19.0-2.2-0.4","kjzxbn9rjq","","kjzxbn9rjq","""2024-11-13T18:51:19.113Z""","null","+","null","","","","","","",""
"","","","","","image-keyboard-response","393","395386","0.0-19.0-2.2-1.4","kjzxbn9rjq","","kjzxbn9rjq","""2024-11-13T18:51:19.113Z""","921","materials/imgs/D52.png","arrowright","","[""materials/imgs/D9.png"",""materials/imgs/D19.png""]","false","validation","","",""
"","","","","","html-keyboard-response","394","395887","0.0-19.0-2.2-0.5","kjzxbn9rjq","","kjzxbn9rjq","""2024-11-13T18:51:19.113Z""","null","+","null","","","","","","",""
"","","","","","image-keyboard-response","395","397024","0.0-19.0-2.2-1.5","kjzxbn9rjq","","kjzxbn9rjq","""2024-11-13T18:51:19.113Z""","1135","materials/imgs/D4.png","arrowright","","[""materials/imgs/D52.png"",""materials/imgs/D83.png""]","false","validation","","",""
"","","","","","html-keyboard-response","396","397525","0.0-19.0-0.3-0.21","kjzxbn9rjq","","kjzxbn9rjq","""2024-11-13T18:51:19.113Z""","null","+","null","","","","","","",""
"","","","","","image-keyboard-response","397","398129","0.0-19.0-0.3-1.21","kjzxbn9rjq","","kjzxbn9rjq","""2024-11-13T18:51:19.113Z""","601","materials/imgs/D14.png","arrowleft","","[""materials/imgs/D16.png"",""materials/imgs/D76.png""]","false","random","","",""
"","","","","","html-keyboard-response","398","398631","0.0-19.0-0.3-0.22","kjzxbn9rjq","","kjzxbn9rjq","""2024-11-13T18:51:19.113Z""","null","+","null","","","","","","",""
"","","","","","image-keyboard-response","399","402464","0.0-19.0-0.3-1.22","kjzxbn9rjq","","kjzxbn9rjq","""2024-11-13T18:51:19.113Z""","3831","materials/imgs/D32.png","arrowleft","","[""materials/imgs/D11.png"",""materials/imgs/D53.png""]","false","random","","",""
"","","","","","html-keyboard-response","400","402966","0.0-19.0-0.3-0.23","kjzxbn9rjq","","kjzxbn9rjq","""2024-11-13T18:51:19.113Z""","null","+","null","","","","","","",""
"","","","","","image-keyboard-response","401","404195","0.0-19.0-0.3-1.23","kjzxbn9rjq","","kjzxbn9rjq","""2024-11-13T18:51:19.113Z""","1227","materials/imgs/D75.png","arrowleft","","[""materials/imgs/D106.png"",""materials/imgs/D17.png""]","false","random","","",""
"","","","","","html-keyboard-response","402","404697","0.0-19.0-0.3-0.24","kjzxbn9rjq","","kjzxbn9rjq","""2024-11-13T18:51:19.113Z""","null","+","null","","","","","","",""
"","","","","","image-keyboard-response","403","406470","0.0-19.0-0.3-1.24","kjzxbn9rjq","","kjzxbn9rjq","""2024-11-13T18:51:19.113Z""","1770","materials/imgs/D19.png","arrowright","","[""materials/imgs/D25.png"",""materials/imgs/D76.png""]","false","random","","",""
"","","","","","html-keyboard-response","404","406971","0.0-19.0-0.3-0.25","kjzxbn9rjq","","kjzxbn9rjq","""2024-11-13T18:51:19.113Z""","null","+","null","","","","","","",""
"","","","","","image-keyboard-response","405","409696","0.0-19.0-0.3-1.25","kjzxbn9rjq","","kjzxbn9rjq","""2024-11-13T18:51:19.113Z""","2723","materials/imgs/D24.png","arrowright","","[""materials/imgs/D19.png"",""materials/imgs/D17.png""]","false","random","","",""
"","","","","","html-keyboard-response","406","410197","0.0-19.0-0.3-0.26","kjzxbn9rjq","","kjzxbn9rjq","""2024-11-13T18:51:19.113Z""","null","+","null","","","","","","",""
"","","","","","image-keyboard-response","407","414698","0.0-19.0-0.3-1.26","kjzxbn9rjq","","kjzxbn9rjq","""2024-11-13T18:51:19.113Z""","4499","materials/imgs/D21.png","arrowleft","","[""materials/imgs/D85.png"",""materials/imgs/D95.png""]","false","random","","",""
"","","","","","html-keyboard-response","408","415199","0.0-19.0-0.3-0.27","kjzxbn9rjq","","kjzxbn9rjq","""2024-11-13T18:51:19.113Z""","null","+","null","","","","","","",""
"","","","","","image-keyboard-response","409","416571","0.0-19.0-0.3-1.27","kjzxbn9rjq","","kjzxbn9rjq","""2024-11-13T18:51:19.113Z""","1369","materials/imgs/D46.png","arrowright","","[""materials/imgs/D76.png"",""materials/imgs/D66.png""]","false","random","","",""
"","","","","","html-keyboard-response","410","417073","0.0-19.0-1.3-0.3","kjzxbn9rjq","","kjzxbn9rjq","""2024-11-13T18:51:19.113Z""","null","+","null","","","","","","",""
"","","","","","image-keyboard-response","411","417792","0.0-19.0-1.3-1.3","kjzxbn9rjq","","kjzxbn9rjq","""2024-11-13T18:51:19.113Z""","717","materials/imgs/D64.png","arrowleft","","[""materials/imgs/D64.png"",""materials/imgs/D53.png""]","","check","materials/imgs/D64.png","0","true"
"","","","","","html-keyboard-response","412","418294","0.0-19.0-2.3-0.6","kjzxbn9rjq","","kjzxbn9rjq","""2024-11-13T18:51:19.113Z""","null","+","null","","","","","","",""
"","","","","","image-keyboard-response","413","419567","0.0-19.0-2.3-1.6","kjzxbn9rjq","","kjzxbn9rjq","""2024-11-13T18:51:19.113Z""","1272","materials/imgs/D56.png","arrowright","","[""materials/imgs/D25.png"",""materials/imgs/D105.png""]","false","validation","","",""
"","","","","","html-keyboard-response","414","420069","0.0-19.0-2.3-0.7","kjzxbn9rjq","","kjzxbn9rjq","""2024-11-13T18:51:19.113Z""","null","+","null","","","","","","",""
"","","","","","image-keyboard-response","415","421766","0.0-19.0-2.3-1.7","kjzxbn9rjq","","kjzxbn9rjq","""2024-11-13T18:51:19.113Z""","1696","materials/imgs/D95.png","arrowright","","[""materials/imgs/D36.png"",""materials/imgs/D4.png""]","false","validation","","",""
"","","","","","html-keyboard-response","416","422268","0.0-19.0-0.4-0.28","kjzxbn9rjq","","kjzxbn9rjq","""2024-11-13T18:51:19.113Z""","null","+","null","","","","","","",""
"","","","","","image-keyboard-response","417","423251","0.0-19.0-0.4-1.28","kjzxbn9rjq","","kjzxbn9rjq","""2024-11-13T18:51:19.113Z""","980","materials/imgs/D19.png","arrowleft","","[""materials/imgs/D78.png"",""materials/imgs/D11.png""]","false","random","","",""
"","","","","","html-keyboard-response","418","423752","0.0-19.0-0.4-0.29","kjzxbn9rjq","","kjzxbn9rjq","""2024-11-13T18:51:19.113Z""","null","+","null","","","","","","",""
"","","","","","image-keyboard-response","419","424794","0.0-19.0-0.4-1.29","kjzxbn9rjq","","kjzxbn9rjq","""2024-11-13T18:51:19.113Z""","1040","materials/imgs/D105.png","arrowright","","[""materials/imgs/D34.png"",""materials/imgs/D32.png""]","false","random","","",""
"","","","","","html-keyboard-response","420","425296","0.0-19.0-0.4-0.30","kjzxbn9rjq","","kjzxbn9rjq","""2024-11-13T18:51:19.113Z""","null","+","null","","","","","","",""
"","","","","","image-keyboard-response","421","426061","0.0-19.0-0.4-1.30","kjzxbn9rjq","","kjzxbn9rjq","""2024-11-13T18:51:19.113Z""","763","materials/imgs/D82.png","arrowleft","","[""materials/imgs/D103.png"",""materials/imgs/D75.png""]","false","random","","",""
"","","","","","html-keyboard-response","422","426562","0.0-19.0-0.4-0.31","kjzxbn9rjq","","kjzxbn9rjq","""2024-11-13T18:51:19.113Z""","null","+","null","","","","","","",""
"","","","","","image-keyboard-response","423","427163","0.0-19.0-0.4-1.31","kjzxbn9rjq","","kjzxbn9rjq","""2024-11-13T18:51:19.113Z""","598","materials/imgs/D36.png","arrowleft","","[""materials/imgs/D14.png"",""materials/imgs/D47.png""]","false","random","","",""
"","","","","","html-keyboard-response","424","427664","0.0-19.0-0.4-0.32","kjzxbn9rjq","","kjzxbn9rjq","""2024-11-13T18:51:19.113Z""","null","+","null","","","","","","",""
"","","","","","image-keyboard-response","425","428450","0.0-19.0-0.4-1.32","kjzxbn9rjq","","kjzxbn9rjq","""2024-11-13T18:51:19.113Z""","784","materials/imgs/D8.png","arrowright","","[""materials/imgs/D11.png"",""materials/imgs/D68.png""]","false","random","","",""
"","","","","","html-keyboard-response","426","428951","0.0-19.0-0.4-0.33","kjzxbn9rjq","","kjzxbn9rjq","""2024-11-13T18:51:19.113Z""","null","+","null","","","","","","",""
"","","","","","image-keyboard-response","427","429732","0.0-19.0-0.4-1.33","kjzxbn9rjq","","kjzxbn9rjq","""2024-11-13T18:51:19.113Z""","778","materials/imgs/D47.png","arrowright","","[""materials/imgs/D6.png"",""materials/imgs/D103.png""]","false","random","","",""
"","","","","","html-keyboard-response","428","430233","0.0-19.0-0.4-0.34","kjzxbn9rjq","","kjzxbn9rjq","""2024-11-13T18:51:19.113Z""","null","+","null","","","","","","",""
"","","","","","image-keyboard-response","429","431048","0.0-19.0-0.4-1.34","kjzxbn9rjq","","kjzxbn9rjq","""2024-11-13T18:51:19.113Z""","812","materials/imgs/D22.png","arrowright","","[""materials/imgs/D68.png"",""materials/imgs/D96.png""]","false","random","","",""
"","","","","","html-keyboard-response","430","431549","0.0-19.0-1.4-0.4","kjzxbn9rjq","","kjzxbn9rjq","""2024-11-13T18:51:19.113Z""","null","+","null","","","","","","",""
"","","","","","image-keyboard-response","431","432117","0.0-19.0-1.4-1.4","kjzxbn9rjq","","kjzxbn9rjq","""2024-11-13T18:51:19.113Z""","566","materials/imgs/D76.png","arrowleft","","[""materials/imgs/D76.png"",""materials/imgs/D78.png""]","","check","materials/imgs/D76.png","0","true"
"","","","","","html-keyboard-response","432","432619","0.0-19.0-2.4-0.8","kjzxbn9rjq","","kjzxbn9rjq","""2024-11-13T18:51:19.113Z""","null","+","null","","","","","","",""
"","","","","","image-keyboard-response","433","433925","0.0-19.0-2.4-1.8","kjzxbn9rjq","","kjzxbn9rjq","""2024-11-13T18:51:19.113Z""","1304","materials/imgs/D76.png","arrowleft","","[""materials/imgs/D83.png"",""materials/imgs/D6.png""]","false","validation","","",""
"","","","","","html-keyboard-response","434","434427","0.0-19.0-2.4-0.9","kjzxbn9rjq","","kjzxbn9rjq","""2024-11-13T18:51:19.113Z""","null","+","null","","","","","","",""
"","","","","","image-keyboard-response","435","435834","0.0-19.0-2.4-1.9","kjzxbn9rjq","","kjzxbn9rjq","""2024-11-13T18:51:19.113Z""","1405","materials/imgs/D3.png","arrowleft","","[""materials/imgs/D79.png"",""materials/imgs/D48.png""]","false","validation","","",""
