"success","timeout","failed_images","failed_audio","failed_video","trial_type","trial_index","time_elapsed","internal_node_id","subject_id","sona_id","subjectID","dateInfo","rt","stimulus","response","question_order","choices","speedy","sampleAlg","selected_image","selected_index","correct"
"true","false","[]","[]","[]","preload","0","999","0.0-0.0","lnw4qfbzbv","","lnw4qfbzbv","""2024-11-13T14:59:32.861Z""","","","","","","","","","",""
"true","","","","","fullscreen","1","5082","0.0-1.0","lnw4qfbzbv","","lnw4qfbzbv","""2024-11-13T14:59:32.861Z""","","","","","","","","","",""
"","","","","","html-keyboard-response","2","5099","0.0-2.0","lnw4qfbzbv","","lnw4qfbzbv","""2024-11-13T14:59:32.861Z""","null","","null","","","","","","",""
"","","","","","html-button-response","3","10034","0.0-3.0","lnw4qfbzbv","","lnw4qfbzbv","""2024-11-13T14:59:32.861Z""","4933","<div style='text-align:center; font-size:20px; line-height:25px; width: 1200px;'>
                Welcome to our experiment! <br>
                <br>At the bottom of this screen, you will see a button that says 'Begin Experiment.
                <br>Please only click that button when you are ready to complete the 25 minute experiment in one sitting. <br>
                <br> Once you click that button, it will not be possible to restart the experiment. <br><br>","0","","","","","","",""
"true","","","","","fullscreen","4","12484","0.0-4.0","lnw4qfbzbv","","lnw4qfbzbv","""2024-11-13T14:59:32.861Z""","","","","","","","","","",""
"","","","","","survey-multi-select","5","27870","0.0-5.0","lnw4qfbzbv","","lnw4qfbzbv","""2024-11-13T14:59:32.861Z""","15382","","{""Consent"":[""<strong>I consent</strong>""]}","[0]","","","","","",""
"","","","","","html-button-response","6","31249","0.0-6.0","lnw4qfbzbv","","lnw4qfbzbv","""2024-11-13T14:59:32.861Z""","3377","Welcome! <p> This experiment involves two parts: demographic information, followed by the experimental task.<p> It will take about 25 minutes to complete both parts.","0","","","","","","",""
"","","","","","survey-text","7","54383","0.0-7.0","lnw4qfbzbv","","lnw4qfbzbv","""2024-11-13T14:59:32.861Z""","23128","","{""Age"":""19"",""Gender"":""Male"",""Race/ethnicity"":""White""}","","","","","","",""
"","","","","","html-button-response","8","82975","0.0-8.0","lnw4qfbzbv","","lnw4qfbzbv","""2024-11-13T14:59:32.861Z""","28589","<div style='text-align: center;'>
      <p>In each trial of this task, you will see three texture images: one target item on top, and two choices beneath the target item.</p>
      <p><strong>Please select the item that is most like the target item.</strong></p>
      <p>To select the option on the <strong>LEFT</strong>, press the <strong>LEFT ARROW</strong> key. 
      To select the option on the <strong>RIGHT</strong>, press the <strong>RIGHT ARROW</strong> key.</p>
                  <!-- Target Image at the Top -->
      <div style='margin: 20px;'>
        <img src='materials/imgs/instruction_images/InstructionImg1D78.png' alt='Target Image' style='width:200px; height:auto;' />
        <p><em>Target Image</em></p>
      </div>

      <!-- Two Choice Images Below -->
      <div style='display: flex; justify-content: center;'>
        <div style='margin-right: 50px;'>
          <img src='materials/imgs/instruction_images/InstructionImg2D34.png' alt='Choice Image 1' style='width:150px; height:auto;' />
          <p><em><strong>LEFT ARROW</strong></em></p>
        </div>
        <div style='margin-left: 50px;'>
          <img src='materials/imgs/instruction_images/InstructionImg3D80.png' alt='Choice Image 2' style='width:150px; height:auto;' />
          <p><em><strong>RIGHT ARROW</strong></em></p>
        </div>
      </div>
    </div>

      <p>When you are ready to proceed, please click 'Continue' to begin practice.</p>","0","","","","","","",""
"","","","","","html-keyboard-response","9","85499","0.0-9.0","lnw4qfbzbv","","lnw4qfbzbv","""2024-11-13T14:59:32.861Z""","null","+","null","","","","","","",""
"","","","","","html-keyboard-response","10","86000","0.0-10.0-0.0-0.0","lnw4qfbzbv","","lnw4qfbzbv","""2024-11-13T14:59:32.861Z""","null","+","null","","","","","","",""
"","","","","","image-keyboard-response","11","95260","0.0-10.0-0.0-1.0","lnw4qfbzbv","","lnw4qfbzbv","""2024-11-13T14:59:32.861Z""","9256","materials/imgs/D76.png","arrowleft","","[""materials/imgs/D92.png"",""materials/imgs/D77.png""]","false","random","","",""
"","","","","","html-keyboard-response","12","95764","0.0-10.0-0.0-0.1","lnw4qfbzbv","","lnw4qfbzbv","""2024-11-13T14:59:32.861Z""","null","+","null","","","","","","",""
"","","","","","image-keyboard-response","13","104101","0.0-10.0-0.0-1.1","lnw4qfbzbv","","lnw4qfbzbv","""2024-11-13T14:59:32.861Z""","8334","materials/imgs/D96.png","arrowleft","","[""materials/imgs/D106.png"",""materials/imgs/D9.png""]","false","random","","",""
"","","","","","html-keyboard-response","14","104608","0.0-10.0-0.0-0.2","lnw4qfbzbv","","lnw4qfbzbv","""2024-11-13T14:59:32.861Z""","null","+","null","","","","","","",""
"","","","","","image-keyboard-response","15","111087","0.0-10.0-0.0-1.2","lnw4qfbzbv","","lnw4qfbzbv","""2024-11-13T14:59:32.861Z""","6477","materials/imgs/D52.png","arrowright","","[""materials/imgs/D92.png"",""materials/imgs/D82.png""]","false","random","","",""
"","","","","","html-keyboard-response","16","111598","0.0-10.0-0.0-0.3","lnw4qfbzbv","","lnw4qfbzbv","""2024-11-13T14:59:32.861Z""","null","+","null","","","","","","",""
"","","","","","image-keyboard-response","17","113199","0.0-10.0-0.0-1.3","lnw4qfbzbv","","lnw4qfbzbv","""2024-11-13T14:59:32.861Z""","1598","materials/imgs/D22.png","arrowright","","[""materials/imgs/D105.png"",""materials/imgs/D3.png""]","false","random","","",""
"","","","","","html-keyboard-response","18","113707","0.0-10.0-0.0-0.4","lnw4qfbzbv","","lnw4qfbzbv","""2024-11-13T14:59:32.861Z""","null","+","null","","","","","","",""
"","","","","","image-keyboard-response","19","117384","0.0-10.0-0.0-1.4","lnw4qfbzbv","","lnw4qfbzbv","""2024-11-13T14:59:32.861Z""","3675","materials/imgs/D74.png","arrowright","","[""materials/imgs/D77.png"",""materials/imgs/D3.png""]","false","random","","",""
"","","","","","html-keyboard-response","20","117887","0.0-10.0-0.0-0.5","lnw4qfbzbv","","lnw4qfbzbv","""2024-11-13T14:59:32.861Z""","null","+","null","","","","","","",""
"","","","","","image-keyboard-response","21","121584","0.0-10.0-0.0-1.5","lnw4qfbzbv","","lnw4qfbzbv","""2024-11-13T14:59:32.861Z""","3693","materials/imgs/D76.png","arrowright","","[""materials/imgs/D52.png"",""materials/imgs/D37.png""]","false","random","","",""
"","","","","","html-keyboard-response","22","122091","0.0-10.0-0.0-0.6","lnw4qfbzbv","","lnw4qfbzbv","""2024-11-13T14:59:32.861Z""","null","+","null","","","","","","",""
"","","","","","image-keyboard-response","23","126279","0.0-10.0-0.0-1.6","lnw4qfbzbv","","lnw4qfbzbv","""2024-11-13T14:59:32.861Z""","4186","materials/imgs/D16.png","arrowright","","[""materials/imgs/D68.png"",""materials/imgs/D17.png""]","false","random","","",""
"","","","","","html-keyboard-response","24","126794","0.0-10.0-0.0-0.7","lnw4qfbzbv","","lnw4qfbzbv","""2024-11-13T14:59:32.861Z""","null","+","null","","","","","","",""
"","","","","","image-keyboard-response","25","138930","0.0-10.0-0.0-1.7","lnw4qfbzbv","","lnw4qfbzbv","""2024-11-13T14:59:32.861Z""","12131","materials/imgs/D95.png","arrowleft","","[""materials/imgs/D17.png"",""materials/imgs/D35.png""]","false","random","","",""
"","","","","","html-keyboard-response","26","139434","0.0-10.0-0.0-0.8","lnw4qfbzbv","","lnw4qfbzbv","""2024-11-13T14:59:32.861Z""","null","+","null","","","","","","",""
"","","","","","image-keyboard-response","27","143743","0.0-10.0-0.0-1.8","lnw4qfbzbv","","lnw4qfbzbv","""2024-11-13T14:59:32.861Z""","4305","materials/imgs/D3.png","arrowleft","","[""materials/imgs/D85.png"",""materials/imgs/D64.png""]","false","random","","",""
"","","","","","html-keyboard-response","28","144259","0.0-10.0-0.0-0.9","lnw4qfbzbv","","lnw4qfbzbv","""2024-11-13T14:59:32.861Z""","null","+","null","","","","","","",""
"","","","","","image-keyboard-response","29","149505","0.0-10.0-0.0-1.9","lnw4qfbzbv","","lnw4qfbzbv","""2024-11-13T14:59:32.861Z""","5244","materials/imgs/D34.png","arrowleft","","[""materials/imgs/D85.png"",""materials/imgs/D18.png""]","false","random","","",""
"","","","","","html-button-response","30","156293","0.0-11.0","lnw4qfbzbv","","lnw4qfbzbv","""2024-11-13T14:59:32.861Z""","6786","<p>Great job!</p>
      <p>You are now ready to begin the experiment.</p>
      <p>There will be around 200 trials. You will have opportunities to take breaks at three stages of the trials.</p>
      <p>When you are ready to begin please click 'Continue'.</p>","0","","","","","","",""
"","","","","","html-keyboard-response","31","158798","0.0-12.0","lnw4qfbzbv","","lnw4qfbzbv","""2024-11-13T14:59:32.861Z""","null","+","null","","","","","","",""
"","","","","","html-keyboard-response","32","159308","0.0-13.0-0.0-0.0","lnw4qfbzbv","","lnw4qfbzbv","""2024-11-13T14:59:32.861Z""","null","+","null","","","","","","",""
"","","","","","image-keyboard-response","33","161450","0.0-13.0-0.0-1.0","lnw4qfbzbv","","lnw4qfbzbv","""2024-11-13T14:59:32.861Z""","2139","materials/imgs/D83.png","arrowright","","[""materials/imgs/D19.png"",""materials/imgs/D68.png""]","false","random","","",""
"","","","","","html-keyboard-response","34","161952","0.0-13.0-0.0-0.1","lnw4qfbzbv","","lnw4qfbzbv","""2024-11-13T14:59:32.861Z""","null","+","null","","","","","","",""
"","","","","","image-keyboard-response","35","173464","0.0-13.0-0.0-1.1","lnw4qfbzbv","","lnw4qfbzbv","""2024-11-13T14:59:32.861Z""","11510","materials/imgs/D48.png","arrowright","","[""materials/imgs/D65.png"",""materials/imgs/D82.png""]","false","random","","",""
"","","","","","html-keyboard-response","36","173965","0.0-13.0-0.0-0.2","lnw4qfbzbv","","lnw4qfbzbv","""2024-11-13T14:59:32.861Z""","null","+","null","","","","","","",""
"","","","","","image-keyboard-response","37","178601","0.0-13.0-0.0-1.2","lnw4qfbzbv","","lnw4qfbzbv","""2024-11-13T14:59:32.861Z""","4635","materials/imgs/D81.png","arrowleft","","[""materials/imgs/D35.png"",""materials/imgs/D95.png""]","false","random","","",""
"","","","","","html-keyboard-response","38","179108","0.0-13.0-0.0-0.3","lnw4qfbzbv","","lnw4qfbzbv","""2024-11-13T14:59:32.861Z""","null","+","null","","","","","","",""
"","","","","","image-keyboard-response","39","186741","0.0-13.0-0.0-1.3","lnw4qfbzbv","","lnw4qfbzbv","""2024-11-13T14:59:32.861Z""","7630","materials/imgs/D35.png","arrowright","","[""materials/imgs/D92.png"",""materials/imgs/D14.png""]","false","random","","",""
"","","","","","html-keyboard-response","40","187246","0.0-13.0-0.0-0.4","lnw4qfbzbv","","lnw4qfbzbv","""2024-11-13T14:59:32.861Z""","null","+","null","","","","","","",""
"","","","","","image-keyboard-response","41","194717","0.0-13.0-0.0-1.4","lnw4qfbzbv","","lnw4qfbzbv","""2024-11-13T14:59:32.861Z""","7470","materials/imgs/D49.png","arrowleft","","[""materials/imgs/D56.png"",""materials/imgs/D6.png""]","false","random","","",""
"","","","","","html-keyboard-response","42","195219","0.0-13.0-0.0-0.5","lnw4qfbzbv","","lnw4qfbzbv","""2024-11-13T14:59:32.861Z""","null","+","null","","","","","","",""
"","","","","","image-keyboard-response","43","197816","0.0-13.0-0.0-1.5","lnw4qfbzbv","","lnw4qfbzbv","""2024-11-13T14:59:32.861Z""","2595","materials/imgs/D78.png","arrowleft","","[""materials/imgs/D14.png"",""materials/imgs/D104.png""]","false","random","","",""
"","","","","","html-keyboard-response","44","198321","0.0-13.0-0.0-0.6","lnw4qfbzbv","","lnw4qfbzbv","""2024-11-13T14:59:32.861Z""","null","+","null","","","","","","",""
"","","","","","image-keyboard-response","45","202639","0.0-13.0-0.0-1.6","lnw4qfbzbv","","lnw4qfbzbv","""2024-11-13T14:59:32.861Z""","4316","materials/imgs/D68.png","arrowleft","","[""materials/imgs/D3.png"",""materials/imgs/D8.png""]","false","random","","",""
"","","","","","html-keyboard-response","46","203151","0.0-13.0-1.0-0.0","lnw4qfbzbv","","lnw4qfbzbv","""2024-11-13T14:59:32.861Z""","null","+","null","","","","","","",""
"","","","","","image-keyboard-response","47","204316","0.0-13.0-1.0-1.0","lnw4qfbzbv","","lnw4qfbzbv","""2024-11-13T14:59:32.861Z""","1163","materials/imgs/D78.png","arrowright","","[""materials/imgs/D76.png"",""materials/imgs/D78.png""]","","check","materials/imgs/D78.png","1","true"
"","","","","","html-keyboard-response","48","204826","0.0-13.0-2.0-0.0","lnw4qfbzbv","","lnw4qfbzbv","""2024-11-13T14:59:32.861Z""","null","+","null","","","","","","",""
"","","","","","image-keyboard-response","49","209697","0.0-13.0-2.0-1.0","lnw4qfbzbv","","lnw4qfbzbv","""2024-11-13T14:59:32.861Z""","4869","materials/imgs/D84.png","arrowleft","","[""materials/imgs/D106.png"",""materials/imgs/D37.png""]","false","validation","","",""
"","","","","","html-keyboard-response","50","210214","0.0-13.0-2.0-0.1","lnw4qfbzbv","","lnw4qfbzbv","""2024-11-13T14:59:32.861Z""","null","+","null","","","","","","",""
"","","","","","image-keyboard-response","51","212422","0.0-13.0-2.0-1.1","lnw4qfbzbv","","lnw4qfbzbv","""2024-11-13T14:59:32.861Z""","2206","materials/imgs/D25.png","arrowright","","[""materials/imgs/D103.png"",""materials/imgs/D64.png""]","false","validation","","",""
"","","","","","html-keyboard-response","52","212936","0.0-13.0-0.1-0.7","lnw4qfbzbv","","lnw4qfbzbv","""2024-11-13T14:59:32.861Z""","null","+","null","","","","","","",""
"","","","","","image-keyboard-response","53","217722","0.0-13.0-0.1-1.7","lnw4qfbzbv","","lnw4qfbzbv","""2024-11-13T14:59:32.861Z""","4784","materials/imgs/D26.png","arrowleft","","[""materials/imgs/D52.png"",""materials/imgs/D36.png""]","false","random","","",""
"","","","","","html-keyboard-response","54","218227","0.0-13.0-0.1-0.8","lnw4qfbzbv","","lnw4qfbzbv","""2024-11-13T14:59:32.861Z""","null","+","null","","","","","","",""
"","","","","","image-keyboard-response","55","226079","0.0-13.0-0.1-1.8","lnw4qfbzbv","","lnw4qfbzbv","""2024-11-13T14:59:32.861Z""","7848","materials/imgs/D83.png","arrowright","","[""materials/imgs/D19.png"",""materials/imgs/D4.png""]","false","random","","",""
"","","","","","html-keyboard-response","56","226588","0.0-13.0-0.1-0.9","lnw4qfbzbv","","lnw4qfbzbv","""2024-11-13T14:59:32.861Z""","null","+","null","","","","","","",""
"","","","","","image-keyboard-response","57","232248","0.0-13.0-0.1-1.9","lnw4qfbzbv","","lnw4qfbzbv","""2024-11-13T14:59:32.861Z""","5658","materials/imgs/D51.png","arrowleft","","[""materials/imgs/D103.png"",""materials/imgs/D29.png""]","false","random","","",""
"","","","","","html-keyboard-response","58","232759","0.0-13.0-0.1-0.10","lnw4qfbzbv","","lnw4qfbzbv","""2024-11-13T14:59:32.861Z""","null","+","null","","","","","","",""
"","","","","","image-keyboard-response","59","234317","0.0-13.0-0.1-1.10","lnw4qfbzbv","","lnw4qfbzbv","""2024-11-13T14:59:32.861Z""","1557","materials/imgs/D74.png","arrowright","","[""materials/imgs/D95.png"",""materials/imgs/D75.png""]","false","random","","",""
"","","","","","html-keyboard-response","60","234818","0.0-13.0-0.1-0.11","lnw4qfbzbv","","lnw4qfbzbv","""2024-11-13T14:59:32.861Z""","null","+","null","","","","","","",""
"","","","","","image-keyboard-response","61","236853","0.0-13.0-0.1-1.11","lnw4qfbzbv","","lnw4qfbzbv","""2024-11-13T14:59:32.861Z""","2033","materials/imgs/D34.png","arrowleft","","[""materials/imgs/D35.png"",""materials/imgs/D75.png""]","false","random","","",""
"","","","","","html-keyboard-response","62","237364","0.0-13.0-0.1-0.12","lnw4qfbzbv","","lnw4qfbzbv","""2024-11-13T14:59:32.861Z""","null","+","null","","","","","","",""
"","","","","","image-keyboard-response","63","240813","0.0-13.0-0.1-1.12","lnw4qfbzbv","","lnw4qfbzbv","""2024-11-13T14:59:32.861Z""","3446","materials/imgs/D48.png","arrowright","","[""materials/imgs/D21.png"",""materials/imgs/D77.png""]","false","random","","",""
"","","","","","html-keyboard-response","64","241319","0.0-13.0-0.1-0.13","lnw4qfbzbv","","lnw4qfbzbv","""2024-11-13T14:59:32.861Z""","null","+","null","","","","","","",""
"","","","","","image-keyboard-response","65","246452","0.0-13.0-0.1-1.13","lnw4qfbzbv","","lnw4qfbzbv","""2024-11-13T14:59:32.861Z""","5131","materials/imgs/D8.png","arrowright","","[""materials/imgs/D6.png"",""materials/imgs/D1.png""]","false","random","","",""
"","","","","","html-keyboard-response","66","246958","0.0-13.0-1.1-0.1","lnw4qfbzbv","","lnw4qfbzbv","""2024-11-13T14:59:32.861Z""","null","+","null","","","","","","",""
"","","","","","image-keyboard-response","67","248276","0.0-13.0-1.1-1.1","lnw4qfbzbv","","lnw4qfbzbv","""2024-11-13T14:59:32.861Z""","1315","materials/imgs/D26.png","arrowleft","","[""materials/imgs/D26.png"",""materials/imgs/D46.png""]","","check","materials/imgs/D26.png","0","true"
"","","","","","html-keyboard-response","68","248789","0.0-13.0-2.1-0.2","lnw4qfbzbv","","lnw4qfbzbv","""2024-11-13T14:59:32.861Z""","null","+","null","","","","","","",""
"","","","","","image-keyboard-response","69","252455","0.0-13.0-2.1-1.2","lnw4qfbzbv","","lnw4qfbzbv","""2024-11-13T14:59:32.861Z""","3664","materials/imgs/D51.png","arrowright","","[""materials/imgs/D92.png"",""materials/imgs/D20.png""]","false","validation","","",""
"","","","","","html-keyboard-response","70","252963","0.0-13.0-2.1-0.3","lnw4qfbzbv","","lnw4qfbzbv","""2024-11-13T14:59:32.861Z""","null","+","null","","","","","","",""
"","","","","","image-keyboard-response","71","254955","0.0-13.0-2.1-1.3","lnw4qfbzbv","","lnw4qfbzbv","""2024-11-13T14:59:32.861Z""","1990","materials/imgs/D20.png","arrowright","","[""materials/imgs/D84.png"",""materials/imgs/D85.png""]","false","validation","","",""
"","","","","","html-keyboard-response","72","255460","0.0-13.0-0.2-0.14","lnw4qfbzbv","","lnw4qfbzbv","""2024-11-13T14:59:32.861Z""","null","+","null","","","","","","",""
"","","","","","image-keyboard-response","73","257930","0.0-13.0-0.2-1.14","lnw4qfbzbv","","lnw4qfbzbv","""2024-11-13T14:59:32.861Z""","2466","materials/imgs/D20.png","arrowright","","[""materials/imgs/D35.png"",""materials/imgs/D26.png""]","false","random","","",""
"","","","","","html-keyboard-response","74","258434","0.0-13.0-0.2-0.15","lnw4qfbzbv","","lnw4qfbzbv","""2024-11-13T14:59:32.861Z""","null","+","null","","","","","","",""
"","","","","","image-keyboard-response","75","262786","0.0-13.0-0.2-1.15","lnw4qfbzbv","","lnw4qfbzbv","""2024-11-13T14:59:32.861Z""","4349","materials/imgs/D37.png","arrowright","","[""materials/imgs/D103.png"",""materials/imgs/D56.png""]","false","random","","",""
"","","","","","html-keyboard-response","76","263301","0.0-13.0-0.2-0.16","lnw4qfbzbv","","lnw4qfbzbv","""2024-11-13T14:59:32.861Z""","null","+","null","","","","","","",""
"","","","","","image-keyboard-response","77","270656","0.0-13.0-0.2-1.16","lnw4qfbzbv","","lnw4qfbzbv","""2024-11-13T14:59:32.861Z""","7354","materials/imgs/D101.png","arrowright","","[""materials/imgs/D18.png"",""materials/imgs/D51.png""]","false","random","","",""
"","","","","","html-keyboard-response","78","271166","0.0-13.0-0.2-0.17","lnw4qfbzbv","","lnw4qfbzbv","""2024-11-13T14:59:32.861Z""","null","+","null","","","","","","",""
"","","","","","image-keyboard-response","79","272749","0.0-13.0-0.2-1.17","lnw4qfbzbv","","lnw4qfbzbv","""2024-11-13T14:59:32.861Z""","1580","materials/imgs/D51.png","arrowleft","","[""materials/imgs/D17.png"",""materials/imgs/D95.png""]","false","random","","",""
"","","","","","html-keyboard-response","80","273260","0.0-13.0-0.2-0.18","lnw4qfbzbv","","lnw4qfbzbv","""2024-11-13T14:59:32.861Z""","null","+","null","","","","","","",""
"","","","","","image-keyboard-response","81","278691","0.0-13.0-0.2-1.18","lnw4qfbzbv","","lnw4qfbzbv","""2024-11-13T14:59:32.861Z""","5428","materials/imgs/D48.png","arrowleft","","[""materials/imgs/D94.png"",""materials/imgs/D87.png""]","false","random","","",""
"","","","","","html-keyboard-response","82","279214","0.0-13.0-0.2-0.19","lnw4qfbzbv","","lnw4qfbzbv","""2024-11-13T14:59:32.861Z""","null","+","null","","","","","","",""
"","","","","","image-keyboard-response","83","282153","0.0-13.0-0.2-1.19","lnw4qfbzbv","","lnw4qfbzbv","""2024-11-13T14:59:32.861Z""","2937","materials/imgs/D35.png","arrowleft","","[""materials/imgs/D6.png"",""materials/imgs/D85.png""]","false","random","","",""
"","","","","","html-keyboard-response","84","282667","0.0-13.0-0.2-0.20","lnw4qfbzbv","","lnw4qfbzbv","""2024-11-13T14:59:32.861Z""","null","+","null","","","","","","",""
"","","","","","image-keyboard-response","85","284628","0.0-13.0-0.2-1.20","lnw4qfbzbv","","lnw4qfbzbv","""2024-11-13T14:59:32.861Z""","1959","materials/imgs/D95.png","arrowright","","[""materials/imgs/D82.png"",""materials/imgs/D65.png""]","false","random","","",""
"","","","","","html-keyboard-response","86","285132","0.0-13.0-1.2-0.2","lnw4qfbzbv","","lnw4qfbzbv","""2024-11-13T14:59:32.861Z""","null","+","null","","","","","","",""
"","","","","","image-keyboard-response","87","286111","0.0-13.0-1.2-1.2","lnw4qfbzbv","","lnw4qfbzbv","""2024-11-13T14:59:32.861Z""","977","materials/imgs/D26.png","arrowleft","","[""materials/imgs/D26.png"",""materials/imgs/D46.png""]","","check","materials/imgs/D26.png","0","true"
"","","","","","html-keyboard-response","88","286614","0.0-13.0-2.2-0.4","lnw4qfbzbv","","lnw4qfbzbv","""2024-11-13T14:59:32.861Z""","null","+","null","","","","","","",""
"","","","","","image-keyboard-response","89","317094","0.0-13.0-2.2-1.4","lnw4qfbzbv","","lnw4qfbzbv","""2024-11-13T14:59:32.861Z""","30479","materials/imgs/D6.png","arrowleft","","[""materials/imgs/D26.png"",""materials/imgs/D76.png""]","false","validation","","",""
"","","","","","html-keyboard-response","90","317598","0.0-13.0-2.2-0.5","lnw4qfbzbv","","lnw4qfbzbv","""2024-11-13T14:59:32.861Z""","null","+","null","","","","","","",""
"","","","","","image-keyboard-response","91","321025","0.0-13.0-2.2-1.5","lnw4qfbzbv","","lnw4qfbzbv","""2024-11-13T14:59:32.861Z""","3426","materials/imgs/D111.png","arrowleft","","[""materials/imgs/D82.png"",""materials/imgs/D95.png""]","false","validation","","",""
"","","","","","html-keyboard-response","92","321539","0.0-13.0-0.3-0.21","lnw4qfbzbv","","lnw4qfbzbv","""2024-11-13T14:59:32.861Z""","null","+","null","","","","","","",""
"","","","","","image-keyboard-response","93","324730","0.0-13.0-0.3-1.21","lnw4qfbzbv","","lnw4qfbzbv","""2024-11-13T14:59:32.861Z""","3190","materials/imgs/D55.png","arrowleft","","[""materials/imgs/D85.png"",""materials/imgs/D18.png""]","false","random","","",""
"","","","","","html-keyboard-response","94","325244","0.0-13.0-0.3-0.22","lnw4qfbzbv","","lnw4qfbzbv","""2024-11-13T14:59:32.861Z""","null","+","null","","","","","","",""
"","","","","","image-keyboard-response","95","328744","0.0-13.0-0.3-1.22","lnw4qfbzbv","","lnw4qfbzbv","""2024-11-13T14:59:32.861Z""","3498","materials/imgs/D111.png","arrowleft","","[""materials/imgs/D66.png"",""materials/imgs/D82.png""]","false","random","","",""
"","","","","","html-keyboard-response","96","329248","0.0-13.0-0.3-0.23","lnw4qfbzbv","","lnw4qfbzbv","""2024-11-13T14:59:32.861Z""","null","+","null","","","","","","",""
"","","","","","image-keyboard-response","97","333872","0.0-13.0-0.3-1.23","lnw4qfbzbv","","lnw4qfbzbv","""2024-11-13T14:59:32.861Z""","4622","materials/imgs/D66.png","arrowleft","","[""materials/imgs/D36.png"",""materials/imgs/D104.png""]","false","random","","",""
"","","","","","html-keyboard-response","98","334377","0.0-13.0-0.3-0.24","lnw4qfbzbv","","lnw4qfbzbv","""2024-11-13T14:59:32.861Z""","null","+","null","","","","","","",""
"","","","","","image-keyboard-response","99","348415","0.0-13.0-0.3-1.24","lnw4qfbzbv","","lnw4qfbzbv","""2024-11-13T14:59:32.861Z""","14037","materials/imgs/D64.png","arrowright","","[""materials/imgs/D48.png"",""materials/imgs/D11.png""]","false","random","","",""
"","","","","","html-keyboard-response","100","348928","0.0-13.0-0.3-0.25","lnw4qfbzbv","","lnw4qfbzbv","""2024-11-13T14:59:32.861Z""","null","+","null","","","","","","",""
"","","","","","image-keyboard-response","101","351960","0.0-13.0-0.3-1.25","lnw4qfbzbv","","lnw4qfbzbv","""2024-11-13T14:59:32.861Z""","3030","materials/imgs/D14.png","arrowleft","","[""materials/imgs/D111.png"",""materials/imgs/D75.png""]","false","random","","",""
"","","","","","html-keyboard-response","102","352468","0.0-13.0-0.3-0.26","lnw4qfbzbv","","lnw4qfbzbv","""2024-11-13T14:59:32.861Z""","null","+","null","","","","","","",""
"","","","","","image-keyboard-response","103","356087","0.0-13.0-0.3-1.26","lnw4qfbzbv","","lnw4qfbzbv","""2024-11-13T14:59:32.861Z""","3617","materials/imgs/D6.png","arrowleft","","[""materials/imgs/D81.png"",""materials/imgs/D79.png""]","false","random","","",""
"","","","","","html-keyboard-response","104","356592","0.0-13.0-0.3-0.27","lnw4qfbzbv","","lnw4qfbzbv","""2024-11-13T14:59:32.861Z""","null","+","null","","","","","","",""
"","","","","","image-keyboard-response","105","358777","0.0-13.0-0.3-1.27","lnw4qfbzbv","","lnw4qfbzbv","""2024-11-13T14:59:32.861Z""","2184","materials/imgs/D25.png","arrowleft","","[""materials/imgs/D65.png"",""materials/imgs/D37.png""]","false","random","","",""
"","","","","","html-keyboard-response","106","359285","0.0-13.0-1.3-0.3","lnw4qfbzbv","","lnw4qfbzbv","""2024-11-13T14:59:32.861Z""","null","+","null","","","","","","",""
"","","","","","image-keyboard-response","107","360671","0.0-13.0-1.3-1.3","lnw4qfbzbv","","lnw4qfbzbv","""2024-11-13T14:59:32.861Z""","1385","materials/imgs/D18.png","arrowright","","[""materials/imgs/D8.png"",""materials/imgs/D18.png""]","","check","materials/imgs/D18.png","1","true"
"","","","","","html-keyboard-response","108","361189","0.0-13.0-2.3-0.6","lnw4qfbzbv","","lnw4qfbzbv","""2024-11-13T14:59:32.861Z""","null","+","null","","","","","","",""
"","","","","","image-keyboard-response","109","366146","0.0-13.0-2.3-1.6","lnw4qfbzbv","","lnw4qfbzbv","""2024-11-13T14:59:32.861Z""","4956","materials/imgs/D16.png","arrowleft","","[""materials/imgs/D52.png"",""materials/imgs/D25.png""]","false","validation","","",""
"","","","","","html-keyboard-response","110","366659","0.0-13.0-2.3-0.7","lnw4qfbzbv","","lnw4qfbzbv","""2024-11-13T14:59:32.861Z""","null","+","null","","","","","","",""
"","","","","","image-keyboard-response","111","369450","0.0-13.0-2.3-1.7","lnw4qfbzbv","","lnw4qfbzbv","""2024-11-13T14:59:32.861Z""","2790","materials/imgs/D4.png","arrowleft","","[""materials/imgs/D52.png"",""materials/imgs/D83.png""]","false","validation","","",""
"","","","","","html-keyboard-response","112","369964","0.0-13.0-0.4-0.28","lnw4qfbzbv","","lnw4qfbzbv","""2024-11-13T14:59:32.861Z""","null","+","null","","","","","","",""
"","","","","","image-keyboard-response","113","371760","0.0-13.0-0.4-1.28","lnw4qfbzbv","","lnw4qfbzbv","""2024-11-13T14:59:32.861Z""","1792","materials/imgs/D65.png","arrowright","","[""materials/imgs/D11.png"",""materials/imgs/D52.png""]","false","random","","",""
"","","","","","html-keyboard-response","114","372267","0.0-13.0-0.4-0.29","lnw4qfbzbv","","lnw4qfbzbv","""2024-11-13T14:59:32.861Z""","null","+","null","","","","","","",""
"","","","","","image-keyboard-response","115","377432","0.0-13.0-0.4-1.29","lnw4qfbzbv","","lnw4qfbzbv","""2024-11-13T14:59:32.861Z""","5164","materials/imgs/D81.png","arrowleft","","[""materials/imgs/D51.png"",""materials/imgs/D94.png""]","false","random","","",""
"","","","","","html-keyboard-response","116","377939","0.0-13.0-0.4-0.30","lnw4qfbzbv","","lnw4qfbzbv","""2024-11-13T14:59:32.861Z""","null","+","null","","","","","","",""
"","","","","","image-keyboard-response","117","384174","0.0-13.0-0.4-1.30","lnw4qfbzbv","","lnw4qfbzbv","""2024-11-13T14:59:32.861Z""","6234","materials/imgs/D64.png","arrowright","","[""materials/imgs/D85.png"",""materials/imgs/D11.png""]","false","random","","",""
"","","","","","html-keyboard-response","118","384679","0.0-13.0-0.4-0.31","lnw4qfbzbv","","lnw4qfbzbv","""2024-11-13T14:59:32.861Z""","null","+","null","","","","","","",""
"","","","","","image-keyboard-response","119","388636","0.0-13.0-0.4-1.31","lnw4qfbzbv","","lnw4qfbzbv","""2024-11-13T14:59:32.861Z""","3956","materials/imgs/D20.png","arrowleft","","[""materials/imgs/D26.png"",""materials/imgs/D16.png""]","false","random","","",""
"","","","","","html-keyboard-response","120","389143","0.0-13.0-0.4-0.32","lnw4qfbzbv","","lnw4qfbzbv","""2024-11-13T14:59:32.861Z""","null","+","null","","","","","","",""
"","","","","","image-keyboard-response","121","391551","0.0-13.0-0.4-1.32","lnw4qfbzbv","","lnw4qfbzbv","""2024-11-13T14:59:32.861Z""","2406","materials/imgs/D111.png","arrowleft","","[""materials/imgs/D32.png"",""materials/imgs/D57.png""]","false","random","","",""
"","","","","","html-keyboard-response","122","392057","0.0-13.0-0.4-0.33","lnw4qfbzbv","","lnw4qfbzbv","""2024-11-13T14:59:32.861Z""","null","+","null","","","","","","",""
"","","","","","image-keyboard-response","123","395099","0.0-13.0-0.4-1.33","lnw4qfbzbv","","lnw4qfbzbv","""2024-11-13T14:59:32.861Z""","3040","materials/imgs/D52.png","arrowright","","[""materials/imgs/D18.png"",""materials/imgs/D102.png""]","false","random","","",""
"","","","","","html-keyboard-response","124","395604","0.0-13.0-0.4-0.34","lnw4qfbzbv","","lnw4qfbzbv","""2024-11-13T14:59:32.861Z""","null","+","null","","","","","","",""
"","","","","","image-keyboard-response","125","402590","0.0-13.0-0.4-1.34","lnw4qfbzbv","","lnw4qfbzbv","""2024-11-13T14:59:32.861Z""","6983","materials/imgs/D79.png","arrowleft","","[""materials/imgs/D80.png"",""materials/imgs/D34.png""]","false","random","","",""
"","","","","","html-keyboard-response","126","403104","0.0-13.0-1.4-0.4","lnw4qfbzbv","","lnw4qfbzbv","""2024-11-13T14:59:32.861Z""","null","+","null","","","","","","",""
"","","","","","image-keyboard-response","127","403932","0.0-13.0-1.4-1.4","lnw4qfbzbv","","lnw4qfbzbv","""2024-11-13T14:59:32.861Z""","824","materials/imgs/D8.png","arrowright","","[""materials/imgs/D18.png"",""materials/imgs/D8.png""]","","check","materials/imgs/D8.png","1","true"
"","","","","","html-keyboard-response","128","404444","0.0-13.0-2.4-0.8","lnw4qfbzbv","","lnw4qfbzbv","""2024-11-13T14:59:32.861Z""","null","+","null","","","","","","",""
"","","","","","image-keyboard-response","129","407392","0.0-13.0-2.4-1.8","lnw4qfbzbv","","lnw4qfbzbv","""2024-11-13T14:59:32.861Z""","2946","materials/imgs/D68.png","arrowright","","[""materials/imgs/D96.png"",""materials/imgs/D48.png""]","false","validation","","",""
"","","","","","html-keyboard-response","130","407894","0.0-13.0-2.4-0.9","lnw4qfbzbv","","lnw4qfbzbv","""2024-11-13T14:59:32.861Z""","null","+","null","","","","","","",""
"","","","","","image-keyboard-response","131","415622","0.0-13.0-2.4-1.9","lnw4qfbzbv","","lnw4qfbzbv","""2024-11-13T14:59:32.861Z""","7725","materials/imgs/D103.png","arrowleft","","[""materials/imgs/D76.png"",""materials/imgs/D106.png""]","false","validation","","",""
"","","","","","html-button-response","132","484585","0.0-14.0","lnw4qfbzbv","","lnw4qfbzbv","""2024-11-13T14:59:32.861Z""","68961","You have completed 25% of the trials. Please click 'Continue' when you are ready proceed.","0","","","","","","",""
"","","","","","html-keyboard-response","133","485086","0.0-15.0-0.0-0.0","lnw4qfbzbv","","lnw4qfbzbv","""2024-11-13T14:59:32.861Z""","null","+","null","","","","","","",""
"","","","","","image-keyboard-response","134","487376","0.0-15.0-0.0-1.0","lnw4qfbzbv","","lnw4qfbzbv","""2024-11-13T14:59:32.861Z""","2288","materials/imgs/D66.png","arrowleft","","[""materials/imgs/D111.png"",""materials/imgs/D47.png""]","false","random","","",""
"","","","","","html-keyboard-response","135","487893","0.0-15.0-0.0-0.1","lnw4qfbzbv","","lnw4qfbzbv","""2024-11-13T14:59:32.861Z""","null","+","null","","","","","","",""
"","","","","","image-keyboard-response","136","489107","0.0-15.0-0.0-1.1","lnw4qfbzbv","","lnw4qfbzbv","""2024-11-13T14:59:32.861Z""","1212","materials/imgs/D79.png","arrowleft","","[""materials/imgs/D76.png"",""materials/imgs/D37.png""]","false","random","","",""
"","","","","","html-keyboard-response","137","489614","0.0-15.0-0.0-0.2","lnw4qfbzbv","","lnw4qfbzbv","""2024-11-13T14:59:32.861Z""","null","+","null","","","","","","",""
"","","","","","image-keyboard-response","138","493945","0.0-15.0-0.0-1.2","lnw4qfbzbv","","lnw4qfbzbv","""2024-11-13T14:59:32.861Z""","4329","materials/imgs/D85.png","arrowleft","","[""materials/imgs/D48.png"",""materials/imgs/D32.png""]","false","random","","",""
"","","","","","html-keyboard-response","139","494452","0.0-15.0-0.0-0.3","lnw4qfbzbv","","lnw4qfbzbv","""2024-11-13T14:59:32.861Z""","null","+","null","","","","","","",""
"","","","","","image-keyboard-response","140","496291","0.0-15.0-0.0-1.3","lnw4qfbzbv","","lnw4qfbzbv","""2024-11-13T14:59:32.861Z""","1836","materials/imgs/D6.png","arrowleft","","[""materials/imgs/D8.png"",""materials/imgs/D14.png""]","false","random","","",""
"","","","","","html-keyboard-response","141","496795","0.0-15.0-0.0-0.4","lnw4qfbzbv","","lnw4qfbzbv","""2024-11-13T14:59:32.861Z""","null","+","null","","","","","","",""
"","","","","","image-keyboard-response","142","498561","0.0-15.0-0.0-1.4","lnw4qfbzbv","","lnw4qfbzbv","""2024-11-13T14:59:32.861Z""","1763","materials/imgs/D29.png","arrowleft","","[""materials/imgs/D46.png"",""materials/imgs/D26.png""]","false","random","","",""
"","","","","","html-keyboard-response","143","499069","0.0-15.0-0.0-0.5","lnw4qfbzbv","","lnw4qfbzbv","""2024-11-13T14:59:32.861Z""","null","+","null","","","","","","",""
"","","","","","image-keyboard-response","144","500897","0.0-15.0-0.0-1.5","lnw4qfbzbv","","lnw4qfbzbv","""2024-11-13T14:59:32.861Z""","1825","materials/imgs/D51.png","arrowleft","","[""materials/imgs/D80.png"",""materials/imgs/D111.png""]","false","random","","",""
"","","","","","html-keyboard-response","145","501399","0.0-15.0-0.0-0.6","lnw4qfbzbv","","lnw4qfbzbv","""2024-11-13T14:59:32.861Z""","null","+","null","","","","","","",""
"","","","","","image-keyboard-response","146","503921","0.0-15.0-0.0-1.6","lnw4qfbzbv","","lnw4qfbzbv","""2024-11-13T14:59:32.861Z""","2520","materials/imgs/D94.png","arrowleft","","[""materials/imgs/D19.png"",""materials/imgs/D87.png""]","false","random","","",""
"","","","","","html-keyboard-response","147","504435","0.0-15.0-1.0-0.0","lnw4qfbzbv","","lnw4qfbzbv","""2024-11-13T14:59:32.861Z""","null","+","null","","","","","","",""
"","","","","","image-keyboard-response","148","507970","0.0-15.0-1.0-1.0","lnw4qfbzbv","","lnw4qfbzbv","""2024-11-13T14:59:32.861Z""","3513","materials/imgs/D64.png","arrowleft","","[""materials/imgs/D64.png"",""materials/imgs/D53.png""]","","check","materials/imgs/D64.png","0","true"
"","","","","","html-keyboard-response","149","508477","0.0-15.0-2.0-0.0","lnw4qfbzbv","","lnw4qfbzbv","""2024-11-13T14:59:32.861Z""","null","+","null","","","","","","",""
"","","","","","image-keyboard-response","150","510642","0.0-15.0-2.0-1.0","lnw4qfbzbv","","lnw4qfbzbv","""2024-11-13T14:59:32.861Z""","2163","materials/imgs/D92.png","arrowright","","[""materials/imgs/D56.png"",""materials/imgs/D77.png""]","false","validation","","",""
"","","","","","html-keyboard-response","151","511151","0.0-15.0-2.0-0.1","lnw4qfbzbv","","lnw4qfbzbv","""2024-11-13T14:59:32.861Z""","null","+","null","","","","","","",""
"","","","","","image-keyboard-response","152","512506","0.0-15.0-2.0-1.1","lnw4qfbzbv","","lnw4qfbzbv","""2024-11-13T14:59:32.861Z""","1353","materials/imgs/D1.png","arrowright","","[""materials/imgs/D57.png"",""materials/imgs/D76.png""]","false","validation","","",""
"","","","","","html-keyboard-response","153","513008","0.0-15.0-0.1-0.7","lnw4qfbzbv","","lnw4qfbzbv","""2024-11-13T14:59:32.861Z""","null","+","null","","","","","","",""
"","","","","","image-keyboard-response","154","515789","0.0-15.0-0.1-1.7","lnw4qfbzbv","","lnw4qfbzbv","""2024-11-13T14:59:32.861Z""","2779","materials/imgs/D22.png","arrowleft","","[""materials/imgs/D85.png"",""materials/imgs/D49.png""]","false","random","","",""
"","","","","","html-keyboard-response","155","516296","0.0-15.0-0.1-0.8","lnw4qfbzbv","","lnw4qfbzbv","""2024-11-13T14:59:32.861Z""","null","+","null","","","","","","",""
"","","","","","image-keyboard-response","156","520168","0.0-15.0-0.1-1.8","lnw4qfbzbv","","lnw4qfbzbv","""2024-11-13T14:59:32.861Z""","3870","materials/imgs/D21.png","arrowright","","[""materials/imgs/D25.png"",""materials/imgs/D37.png""]","false","random","","",""
"","","","","","html-keyboard-response","157","520674","0.0-15.0-0.1-0.9","lnw4qfbzbv","","lnw4qfbzbv","""2024-11-13T14:59:32.861Z""","null","+","null","","","","","","",""
"","","","","","image-keyboard-response","158","525890","0.0-15.0-0.1-1.9","lnw4qfbzbv","","lnw4qfbzbv","""2024-11-13T14:59:32.861Z""","5215","materials/imgs/D1.png","arrowleft","","[""materials/imgs/D103.png"",""materials/imgs/D78.png""]","false","random","","",""
"","","","","","html-keyboard-response","159","526400","0.0-15.0-0.1-0.10","lnw4qfbzbv","","lnw4qfbzbv","""2024-11-13T14:59:32.861Z""","null","+","null","","","","","","",""
"","","","","","image-keyboard-response","160","527882","0.0-15.0-0.1-1.10","lnw4qfbzbv","","lnw4qfbzbv","""2024-11-13T14:59:32.861Z""","1480","materials/imgs/D49.png","arrowleft","","[""materials/imgs/D56.png"",""materials/imgs/D29.png""]","false","random","","",""
"","","","","","html-keyboard-response","161","528386","0.0-15.0-0.1-0.11","lnw4qfbzbv","","lnw4qfbzbv","""2024-11-13T14:59:32.861Z""","null","+","null","","","","","","",""
"","","","","","image-keyboard-response","162","531383","0.0-15.0-0.1-1.11","lnw4qfbzbv","","lnw4qfbzbv","""2024-11-13T14:59:32.861Z""","2995","materials/imgs/D102.png","arrowright","","[""materials/imgs/D14.png"",""materials/imgs/D25.png""]","false","random","","",""
"","","","","","html-keyboard-response","163","531884","0.0-15.0-0.1-0.12","lnw4qfbzbv","","lnw4qfbzbv","""2024-11-13T14:59:32.861Z""","null","+","null","","","","","","",""
"","","","","","image-keyboard-response","164","538944","0.0-15.0-0.1-1.12","lnw4qfbzbv","","lnw4qfbzbv","""2024-11-13T14:59:32.861Z""","7058","materials/imgs/D104.png","arrowright","","[""materials/imgs/D87.png"",""materials/imgs/D17.png""]","false","random","","",""
"","","","","","html-keyboard-response","165","539451","0.0-15.0-0.1-0.13","lnw4qfbzbv","","lnw4qfbzbv","""2024-11-13T14:59:32.861Z""","null","+","null","","","","","","",""
"","","","","","image-keyboard-response","166","546888","0.0-15.0-0.1-1.13","lnw4qfbzbv","","lnw4qfbzbv","""2024-11-13T14:59:32.861Z""","7434","materials/imgs/D95.png","arrowright","","[""materials/imgs/D81.png"",""materials/imgs/D76.png""]","false","random","","",""
"","","","","","html-keyboard-response","167","547402","0.0-15.0-1.1-0.1","lnw4qfbzbv","","lnw4qfbzbv","""2024-11-13T14:59:32.861Z""","null","+","null","","","","","","",""
"","","","","","image-keyboard-response","168","548194","0.0-15.0-1.1-1.1","lnw4qfbzbv","","lnw4qfbzbv","""2024-11-13T14:59:32.861Z""","791","materials/imgs/D106.png","arrowleft","","[""materials/imgs/D106.png"",""materials/imgs/D101.png""]","","check","materials/imgs/D106.png","0","true"
"","","","","","html-keyboard-response","169","548697","0.0-15.0-2.1-0.2","lnw4qfbzbv","","lnw4qfbzbv","""2024-11-13T14:59:32.861Z""","null","+","null","","","","","","",""
"","","","","","image-keyboard-response","170","551447","0.0-15.0-2.1-1.2","lnw4qfbzbv","","lnw4qfbzbv","""2024-11-13T14:59:32.861Z""","2748","materials/imgs/D37.png","arrowleft","","[""materials/imgs/D84.png"",""materials/imgs/D111.png""]","false","validation","","",""
"","","","","","html-keyboard-response","171","551951","0.0-15.0-2.1-0.3","lnw4qfbzbv","","lnw4qfbzbv","""2024-11-13T14:59:32.861Z""","null","+","null","","","","","","",""
"","","","","","image-keyboard-response","172","553302","0.0-15.0-2.1-1.3","lnw4qfbzbv","","lnw4qfbzbv","""2024-11-13T14:59:32.861Z""","1350","materials/imgs/D85.png","arrowleft","","[""materials/imgs/D6.png"",""materials/imgs/D111.png""]","false","validation","","",""
"","","","","","html-keyboard-response","173","553806","0.0-15.0-0.2-0.14","lnw4qfbzbv","","lnw4qfbzbv","""2024-11-13T14:59:32.861Z""","null","+","null","","","","","","",""
"","","","","","image-keyboard-response","174","560994","0.0-15.0-0.2-1.14","lnw4qfbzbv","","lnw4qfbzbv","""2024-11-13T14:59:32.861Z""","7186","materials/imgs/D102.png","arrowright","","[""materials/imgs/D52.png"",""materials/imgs/D20.png""]","false","random","","",""
"","","","","","html-keyboard-response","175","561495","0.0-15.0-0.2-0.15","lnw4qfbzbv","","lnw4qfbzbv","""2024-11-13T14:59:32.861Z""","null","+","null","","","","","","",""
"","","","","","image-keyboard-response","176","563034","0.0-15.0-0.2-1.15","lnw4qfbzbv","","lnw4qfbzbv","""2024-11-13T14:59:32.861Z""","1536","materials/imgs/D64.png","arrowleft","","[""materials/imgs/D26.png"",""materials/imgs/D92.png""]","false","random","","",""
"","","","","","html-keyboard-response","177","563538","0.0-15.0-0.2-0.16","lnw4qfbzbv","","lnw4qfbzbv","""2024-11-13T14:59:32.861Z""","null","+","null","","","","","","",""
"","","","","","image-keyboard-response","178","567533","0.0-15.0-0.2-1.16","lnw4qfbzbv","","lnw4qfbzbv","""2024-11-13T14:59:32.861Z""","3993","materials/imgs/D47.png","arrowleft","","[""materials/imgs/D56.png"",""materials/imgs/D35.png""]","false","random","","",""
"","","","","","html-keyboard-response","179","568038","0.0-15.0-0.2-0.17","lnw4qfbzbv","","lnw4qfbzbv","""2024-11-13T14:59:32.861Z""","null","+","null","","","","","","",""
"","","","","","image-keyboard-response","180","569563","0.0-15.0-0.2-1.17","lnw4qfbzbv","","lnw4qfbzbv","""2024-11-13T14:59:32.861Z""","1522","materials/imgs/D95.png","arrowright","","[""materials/imgs/D66.png"",""materials/imgs/D1.png""]","false","random","","",""
"","","","","","html-keyboard-response","181","570081","0.0-15.0-0.2-0.18","lnw4qfbzbv","","lnw4qfbzbv","""2024-11-13T14:59:32.861Z""","null","+","null","","","","","","",""
"","","","","","image-keyboard-response","182","572668","0.0-15.0-0.2-1.18","lnw4qfbzbv","","lnw4qfbzbv","""2024-11-13T14:59:32.861Z""","2585","materials/imgs/D46.png","arrowleft","","[""materials/imgs/D102.png"",""materials/imgs/D87.png""]","false","random","","",""
"","","","","","html-keyboard-response","183","573183","0.0-15.0-0.2-0.19","lnw4qfbzbv","","lnw4qfbzbv","""2024-11-13T14:59:32.861Z""","null","+","null","","","","","","",""
"","","","","","image-keyboard-response","184","574518","0.0-15.0-0.2-1.19","lnw4qfbzbv","","lnw4qfbzbv","""2024-11-13T14:59:32.861Z""","1332","materials/imgs/D75.png","arrowleft","","[""materials/imgs/D8.png"",""materials/imgs/D21.png""]","false","random","","",""
"","","","","","html-keyboard-response","185","575031","0.0-15.0-0.2-0.20","lnw4qfbzbv","","lnw4qfbzbv","""2024-11-13T14:59:32.861Z""","null","+","null","","","","","","",""
"","","","","","image-keyboard-response","186","577970","0.0-15.0-0.2-1.20","lnw4qfbzbv","","lnw4qfbzbv","""2024-11-13T14:59:32.861Z""","2936","materials/imgs/D8.png","arrowleft","","[""materials/imgs/D64.png"",""materials/imgs/D25.png""]","false","random","","",""
"","","","","","html-keyboard-response","187","578476","0.0-15.0-1.2-0.2","lnw4qfbzbv","","lnw4qfbzbv","""2024-11-13T14:59:32.861Z""","null","+","null","","","","","","",""
"","","","","","image-keyboard-response","188","579287","0.0-15.0-1.2-1.2","lnw4qfbzbv","","lnw4qfbzbv","""2024-11-13T14:59:32.861Z""","809","materials/imgs/D101.png","arrowright","","[""materials/imgs/D106.png"",""materials/imgs/D101.png""]","","check","materials/imgs/D101.png","1","true"
"","","","","","html-keyboard-response","189","579790","0.0-15.0-2.2-0.4","lnw4qfbzbv","","lnw4qfbzbv","""2024-11-13T14:59:32.861Z""","null","+","null","","","","","","",""
"","","","","","image-keyboard-response","190","584435","0.0-15.0-2.2-1.4","lnw4qfbzbv","","lnw4qfbzbv","""2024-11-13T14:59:32.861Z""","4643","materials/imgs/D76.png","arrowleft","","[""materials/imgs/D83.png"",""materials/imgs/D6.png""]","false","validation","","",""
"","","","","","html-keyboard-response","191","584942","0.0-15.0-2.2-0.5","lnw4qfbzbv","","lnw4qfbzbv","""2024-11-13T14:59:32.861Z""","null","+","null","","","","","","",""
"","","","","","image-keyboard-response","192","595536","0.0-15.0-2.2-1.5","lnw4qfbzbv","","lnw4qfbzbv","""2024-11-13T14:59:32.861Z""","10592","materials/imgs/D84.png","arrowright","","[""materials/imgs/D106.png"",""materials/imgs/D37.png""]","false","validation","","",""
"","","","","","html-keyboard-response","193","596042","0.0-15.0-0.3-0.21","lnw4qfbzbv","","lnw4qfbzbv","""2024-11-13T14:59:32.861Z""","null","+","null","","","","","","",""
"","","","","","image-keyboard-response","194","598132","0.0-15.0-0.3-1.21","lnw4qfbzbv","","lnw4qfbzbv","""2024-11-13T14:59:32.861Z""","2087","materials/imgs/D53.png","arrowright","","[""materials/imgs/D49.png"",""materials/imgs/D80.png""]","false","random","","",""
"","","","","","html-keyboard-response","195","598645","0.0-15.0-0.3-0.22","lnw4qfbzbv","","lnw4qfbzbv","""2024-11-13T14:59:32.861Z""","null","+","null","","","","","","",""
"","","","","","image-keyboard-response","196","604271","0.0-15.0-0.3-1.22","lnw4qfbzbv","","lnw4qfbzbv","""2024-11-13T14:59:32.861Z""","5623","materials/imgs/D84.png","arrowright","","[""materials/imgs/D101.png"",""materials/imgs/D74.png""]","false","random","","",""
"","","","","","html-keyboard-response","197","604784","0.0-15.0-0.3-0.23","lnw4qfbzbv","","lnw4qfbzbv","""2024-11-13T14:59:32.861Z""","null","+","null","","","","","","",""
"","","","","","image-keyboard-response","198","608278","0.0-15.0-0.3-1.23","lnw4qfbzbv","","lnw4qfbzbv","""2024-11-13T14:59:32.861Z""","3492","materials/imgs/D64.png","arrowleft","","[""materials/imgs/D6.png"",""materials/imgs/D11.png""]","false","random","","",""
"","","","","","html-keyboard-response","199","608782","0.0-15.0-0.3-0.24","lnw4qfbzbv","","lnw4qfbzbv","""2024-11-13T14:59:32.861Z""","null","+","null","","","","","","",""
"","","","","","image-keyboard-response","200","609906","0.0-15.0-0.3-1.24","lnw4qfbzbv","","lnw4qfbzbv","""2024-11-13T14:59:32.861Z""","1122","materials/imgs/D26.png","arrowleft","","[""materials/imgs/D53.png"",""materials/imgs/D76.png""]","false","random","","",""
"","","","","","html-keyboard-response","201","610422","0.0-15.0-0.3-0.25","lnw4qfbzbv","","lnw4qfbzbv","""2024-11-13T14:59:32.861Z""","null","+","null","","","","","","",""
"","","","","","image-keyboard-response","202","611625","0.0-15.0-0.3-1.25","lnw4qfbzbv","","lnw4qfbzbv","""2024-11-13T14:59:32.861Z""","1201","materials/imgs/D74.png","arrowleft","","[""materials/imgs/D22.png"",""materials/imgs/D79.png""]","false","random","","",""
"","","","","","html-keyboard-response","203","612133","0.0-15.0-0.3-0.26","lnw4qfbzbv","","lnw4qfbzbv","""2024-11-13T14:59:32.861Z""","null","+","null","","","","","","",""
"","","","","","image-keyboard-response","204","615084","0.0-15.0-0.3-1.26","lnw4qfbzbv","","lnw4qfbzbv","""2024-11-13T14:59:32.861Z""","2948","materials/imgs/D83.png","arrowleft","","[""materials/imgs/D20.png"",""materials/imgs/D111.png""]","false","random","","",""
"","","","","","html-keyboard-response","205","615598","0.0-15.0-0.3-0.27","lnw4qfbzbv","","lnw4qfbzbv","""2024-11-13T14:59:32.861Z""","null","+","null","","","","","","",""
"","","","","","image-keyboard-response","206","621946","0.0-15.0-0.3-1.27","lnw4qfbzbv","","lnw4qfbzbv","""2024-11-13T14:59:32.861Z""","6347","materials/imgs/D9.png","arrowright","","[""materials/imgs/D104.png"",""materials/imgs/D22.png""]","false","random","","",""
"","","","","","html-keyboard-response","207","622453","0.0-15.0-1.3-0.3","lnw4qfbzbv","","lnw4qfbzbv","""2024-11-13T14:59:32.861Z""","null","+","null","","","","","","",""
"","","","","","image-keyboard-response","208","623127","0.0-15.0-1.3-1.3","lnw4qfbzbv","","lnw4qfbzbv","""2024-11-13T14:59:32.861Z""","672","materials/imgs/D26.png","arrowleft","","[""materials/imgs/D26.png"",""materials/imgs/D46.png""]","","check","materials/imgs/D26.png","0","true"
"","","","","","html-keyboard-response","209","623631","0.0-15.0-2.3-0.6","lnw4qfbzbv","","lnw4qfbzbv","""2024-11-13T14:59:32.861Z""","null","+","null","","","","","","",""
"","","","","","image-keyboard-response","210","625737","0.0-15.0-2.3-1.6","lnw4qfbzbv","","lnw4qfbzbv","""2024-11-13T14:59:32.861Z""","2105","materials/imgs/D64.png","arrowleft","","[""materials/imgs/D6.png"",""materials/imgs/D81.png""]","false","validation","","",""
"","","","","","html-keyboard-response","211","626242","0.0-15.0-2.3-0.7","lnw4qfbzbv","","lnw4qfbzbv","""2024-11-13T14:59:32.861Z""","null","+","null","","","","","","",""
"","","","","","image-keyboard-response","212","628993","0.0-15.0-2.3-1.7","lnw4qfbzbv","","lnw4qfbzbv","""2024-11-13T14:59:32.861Z""","2749","materials/imgs/D48.png","arrowleft","","[""materials/imgs/D4.png"",""materials/imgs/D37.png""]","false","validation","","",""
"","","","","","html-keyboard-response","213","629500","0.0-15.0-0.4-0.28","lnw4qfbzbv","","lnw4qfbzbv","""2024-11-13T14:59:32.861Z""","null","+","null","","","","","","",""
"","","","","","image-keyboard-response","214","631202","0.0-15.0-0.4-1.28","lnw4qfbzbv","","lnw4qfbzbv","""2024-11-13T14:59:32.861Z""","1699","materials/imgs/D1.png","arrowright","","[""materials/imgs/D87.png"",""materials/imgs/D6.png""]","false","random","","",""
"","","","","","html-keyboard-response","215","631714","0.0-15.0-0.4-0.29","lnw4qfbzbv","","lnw4qfbzbv","""2024-11-13T14:59:32.861Z""","null","+","null","","","","","","",""
"","","","","","image-keyboard-response","216","633745","0.0-15.0-0.4-1.29","lnw4qfbzbv","","lnw4qfbzbv","""2024-11-13T14:59:32.861Z""","2029","materials/imgs/D46.png","arrowright","","[""materials/imgs/D36.png"",""materials/imgs/D56.png""]","false","random","","",""
"","","","","","html-keyboard-response","217","634254","0.0-15.0-0.4-0.30","lnw4qfbzbv","","lnw4qfbzbv","""2024-11-13T14:59:32.861Z""","null","+","null","","","","","","",""
"","","","","","image-keyboard-response","218","635594","0.0-15.0-0.4-1.30","lnw4qfbzbv","","lnw4qfbzbv","""2024-11-13T14:59:32.861Z""","1337","materials/imgs/D64.png","arrowleft","","[""materials/imgs/D80.png"",""materials/imgs/D21.png""]","false","random","","",""
"","","","","","html-keyboard-response","219","636100","0.0-15.0-0.4-0.31","lnw4qfbzbv","","lnw4qfbzbv","""2024-11-13T14:59:32.861Z""","null","+","null","","","","","","",""
"","","","","","image-keyboard-response","220","636997","0.0-15.0-0.4-1.31","lnw4qfbzbv","","lnw4qfbzbv","""2024-11-13T14:59:32.861Z""","894","materials/imgs/D56.png","arrowright","","[""materials/imgs/D106.png"",""materials/imgs/D26.png""]","false","random","","",""
"","","","","","html-keyboard-response","221","637514","0.0-15.0-0.4-0.32","lnw4qfbzbv","","lnw4qfbzbv","""2024-11-13T14:59:32.861Z""","null","+","null","","","","","","",""
"","","","","","image-keyboard-response","222","640127","0.0-15.0-0.4-1.32","lnw4qfbzbv","","lnw4qfbzbv","""2024-11-13T14:59:32.861Z""","2612","materials/imgs/D78.png","arrowleft","","[""materials/imgs/D53.png"",""materials/imgs/D92.png""]","false","random","","",""
"","","","","","html-keyboard-response","223","640633","0.0-15.0-0.4-0.33","lnw4qfbzbv","","lnw4qfbzbv","""2024-11-13T14:59:32.861Z""","null","+","null","","","","","","",""
"","","","","","image-keyboard-response","224","641376","0.0-15.0-0.4-1.33","lnw4qfbzbv","","lnw4qfbzbv","""2024-11-13T14:59:32.861Z""","741","materials/imgs/D35.png","arrowleft","","[""materials/imgs/D36.png"",""materials/imgs/D78.png""]","false","random","","",""
"","","","","","html-keyboard-response","225","641889","0.0-15.0-0.4-0.34","lnw4qfbzbv","","lnw4qfbzbv","""2024-11-13T14:59:32.861Z""","null","+","null","","","","","","",""
"","","","","","image-keyboard-response","226","648183","0.0-15.0-0.4-1.34","lnw4qfbzbv","","lnw4qfbzbv","""2024-11-13T14:59:32.861Z""","6290","materials/imgs/D96.png","arrowright","","[""materials/imgs/D24.png"",""materials/imgs/D9.png""]","false","random","","",""
"","","","","","html-keyboard-response","227","648697","0.0-15.0-1.4-0.4","lnw4qfbzbv","","lnw4qfbzbv","""2024-11-13T14:59:32.861Z""","null","+","null","","","","","","",""
"","","","","","image-keyboard-response","228","649553","0.0-15.0-1.4-1.4","lnw4qfbzbv","","lnw4qfbzbv","""2024-11-13T14:59:32.861Z""","854","materials/imgs/D64.png","arrowleft","","[""materials/imgs/D64.png"",""materials/imgs/D53.png""]","","check","materials/imgs/D64.png","0","true"
"","","","","","html-keyboard-response","229","650061","0.0-15.0-2.4-0.8","lnw4qfbzbv","","lnw4qfbzbv","""2024-11-13T14:59:32.861Z""","null","+","null","","","","","","",""
"","","","","","image-keyboard-response","230","653693","0.0-15.0-2.4-1.8","lnw4qfbzbv","","lnw4qfbzbv","""2024-11-13T14:59:32.861Z""","3629","materials/imgs/D26.png","arrowright","","[""materials/imgs/D36.png"",""materials/imgs/D92.png""]","false","validation","","",""
"","","","","","html-keyboard-response","231","654200","0.0-15.0-2.4-0.9","lnw4qfbzbv","","lnw4qfbzbv","""2024-11-13T14:59:32.861Z""","null","+","null","","","","","","",""
"","","","","","image-keyboard-response","232","656447","0.0-15.0-2.4-1.9","lnw4qfbzbv","","lnw4qfbzbv","""2024-11-13T14:59:32.861Z""","2245","materials/imgs/D66.png","arrowleft","","[""materials/imgs/D85.png"",""materials/imgs/D25.png""]","false","validation","","",""
"","","","","","html-button-response","233","751710","0.0-16.0","lnw4qfbzbv","","lnw4qfbzbv","""2024-11-13T14:59:32.861Z""","95262","You have completed 50% of the trials. Please click 'Continue' when you are ready proceed.","0","","","","","","",""
"","","","","","html-keyboard-response","234","752224","0.0-17.0-0.0-0.0","lnw4qfbzbv","","lnw4qfbzbv","""2024-11-13T14:59:32.861Z""","null","+","null","","","","","","",""
"","","","","","image-keyboard-response","235","754798","0.0-17.0-0.0-1.0","lnw4qfbzbv","","lnw4qfbzbv","""2024-11-13T14:59:32.861Z""","2572","materials/imgs/D18.png","arrowleft","","[""materials/imgs/D24.png"",""materials/imgs/D22.png""]","false","random","","",""
"","","","","","html-keyboard-response","236","755310","0.0-17.0-0.0-0.1","lnw4qfbzbv","","lnw4qfbzbv","""2024-11-13T14:59:32.861Z""","null","+","null","","","","","","",""
"","","","","","image-keyboard-response","237","757456","0.0-17.0-0.0-1.1","lnw4qfbzbv","","lnw4qfbzbv","""2024-11-13T14:59:32.861Z""","2143","materials/imgs/D19.png","arrowleft","","[""materials/imgs/D3.png"",""materials/imgs/D96.png""]","false","random","","",""
"","","","","","html-keyboard-response","238","757957","0.0-17.0-0.0-0.2","lnw4qfbzbv","","lnw4qfbzbv","""2024-11-13T14:59:32.861Z""","null","+","null","","","","","","",""
"","","","","","image-keyboard-response","239","759396","0.0-17.0-0.0-1.2","lnw4qfbzbv","","lnw4qfbzbv","""2024-11-13T14:59:32.861Z""","1436","materials/imgs/D102.png","arrowleft","","[""materials/imgs/D8.png"",""materials/imgs/D75.png""]","false","random","","",""
"","","","","","html-keyboard-response","240","759900","0.0-17.0-0.0-0.3","lnw4qfbzbv","","lnw4qfbzbv","""2024-11-13T14:59:32.861Z""","null","+","null","","","","","","",""
"","","","","","image-keyboard-response","241","764032","0.0-17.0-0.0-1.3","lnw4qfbzbv","","lnw4qfbzbv","""2024-11-13T14:59:32.861Z""","4130","materials/imgs/D95.png","arrowright","","[""materials/imgs/D77.png"",""materials/imgs/D11.png""]","false","random","","",""
"","","","","","html-keyboard-response","242","764544","0.0-17.0-0.0-0.4","lnw4qfbzbv","","lnw4qfbzbv","""2024-11-13T14:59:32.861Z""","null","+","null","","","","","","",""
"","","","","","image-keyboard-response","243","765354","0.0-17.0-0.0-1.4","lnw4qfbzbv","","lnw4qfbzbv","""2024-11-13T14:59:32.861Z""","807","materials/imgs/D79.png","arrowleft","","[""materials/imgs/D106.png"",""materials/imgs/D56.png""]","false","random","","",""
"","","","","","html-keyboard-response","244","765857","0.0-17.0-0.0-0.5","lnw4qfbzbv","","lnw4qfbzbv","""2024-11-13T14:59:32.861Z""","null","+","null","","","","","","",""
"","","","","","image-keyboard-response","245","767601","0.0-17.0-0.0-1.5","lnw4qfbzbv","","lnw4qfbzbv","""2024-11-13T14:59:32.861Z""","1741","materials/imgs/D22.png","arrowleft","","[""materials/imgs/D16.png"",""materials/imgs/D26.png""]","false","random","","",""
"","","","","","html-keyboard-response","246","768115","0.0-17.0-0.0-0.6","lnw4qfbzbv","","lnw4qfbzbv","""2024-11-13T14:59:32.861Z""","null","+","null","","","","","","",""
"","","","","","image-keyboard-response","247","769737","0.0-17.0-0.0-1.6","lnw4qfbzbv","","lnw4qfbzbv","""2024-11-13T14:59:32.861Z""","1620","materials/imgs/D79.png","arrowright","","[""materials/imgs/D47.png"",""materials/imgs/D20.png""]","false","random","","",""
"","","","","","html-keyboard-response","248","770243","0.0-17.0-1.0-0.0","lnw4qfbzbv","","lnw4qfbzbv","""2024-11-13T14:59:32.861Z""","null","+","null","","","","","","",""
"","","","","","image-keyboard-response","249","771052","0.0-17.0-1.0-1.0","lnw4qfbzbv","","lnw4qfbzbv","""2024-11-13T14:59:32.861Z""","807","materials/imgs/D18.png","arrowright","","[""materials/imgs/D8.png"",""materials/imgs/D18.png""]","","check","materials/imgs/D18.png","1","true"
"","","","","","html-keyboard-response","250","771558","0.0-17.0-2.0-0.0","lnw4qfbzbv","","lnw4qfbzbv","""2024-11-13T14:59:32.861Z""","null","+","null","","","","","","",""
"","","","","","image-keyboard-response","251","774454","0.0-17.0-2.0-1.0","lnw4qfbzbv","","lnw4qfbzbv","""2024-11-13T14:59:32.861Z""","2894","materials/imgs/D6.png","arrowleft","","[""materials/imgs/D26.png"",""materials/imgs/D76.png""]","false","validation","","",""
"","","","","","html-keyboard-response","252","774958","0.0-17.0-2.0-0.1","lnw4qfbzbv","","lnw4qfbzbv","""2024-11-13T14:59:32.861Z""","null","+","null","","","","","","",""
"","","","","","image-keyboard-response","253","779732","0.0-17.0-2.0-1.1","lnw4qfbzbv","","lnw4qfbzbv","""2024-11-13T14:59:32.861Z""","4771","materials/imgs/D96.png","arrowleft","","[""materials/imgs/D46.png"",""materials/imgs/D18.png""]","false","validation","","",""
"","","","","","html-keyboard-response","254","780264","0.0-17.0-0.1-0.7","lnw4qfbzbv","","lnw4qfbzbv","""2024-11-13T14:59:32.861Z""","null","+","null","","","","","","",""
"","","","","","image-keyboard-response","255","781321","0.0-17.0-0.1-1.7","lnw4qfbzbv","","lnw4qfbzbv","""2024-11-13T14:59:32.861Z""","1056","materials/imgs/D105.png","arrowleft","","[""materials/imgs/D51.png"",""materials/imgs/D111.png""]","false","random","","",""
"","","","","","html-keyboard-response","256","781830","0.0-17.0-0.1-0.8","lnw4qfbzbv","","lnw4qfbzbv","""2024-11-13T14:59:32.861Z""","null","+","null","","","","","","",""
"","","","","","image-keyboard-response","257","783922","0.0-17.0-0.1-1.8","lnw4qfbzbv","","lnw4qfbzbv","""2024-11-13T14:59:32.861Z""","2089","materials/imgs/D66.png","arrowright","","[""materials/imgs/D81.png"",""materials/imgs/D3.png""]","false","random","","",""
"","","","","","html-keyboard-response","258","784435","0.0-17.0-0.1-0.9","lnw4qfbzbv","","lnw4qfbzbv","""2024-11-13T14:59:32.861Z""","null","+","null","","","","","","",""
"","","","","","image-keyboard-response","259","786257","0.0-17.0-0.1-1.9","lnw4qfbzbv","","lnw4qfbzbv","""2024-11-13T14:59:32.861Z""","1819","materials/imgs/D79.png","arrowleft","","[""materials/imgs/D4.png"",""materials/imgs/D34.png""]","false","random","","",""
"","","","","","html-keyboard-response","260","786768","0.0-17.0-0.1-0.10","lnw4qfbzbv","","lnw4qfbzbv","""2024-11-13T14:59:32.861Z""","null","+","null","","","","","","",""
"","","","","","image-keyboard-response","261","788126","0.0-17.0-0.1-1.10","lnw4qfbzbv","","lnw4qfbzbv","""2024-11-13T14:59:32.861Z""","1355","materials/imgs/D25.png","arrowright","","[""materials/imgs/D85.png"",""materials/imgs/D101.png""]","false","random","","",""
"","","","","","html-keyboard-response","262","788634","0.0-17.0-0.1-0.11","lnw4qfbzbv","","lnw4qfbzbv","""2024-11-13T14:59:32.861Z""","null","+","null","","","","","","",""
"","","","","","image-keyboard-response","263","795903","0.0-17.0-0.1-1.11","lnw4qfbzbv","","lnw4qfbzbv","""2024-11-13T14:59:32.861Z""","7267","materials/imgs/D4.png","arrowright","","[""materials/imgs/D34.png"",""materials/imgs/D55.png""]","false","random","","",""
"","","","","","html-keyboard-response","264","796410","0.0-17.0-0.1-0.12","lnw4qfbzbv","","lnw4qfbzbv","""2024-11-13T14:59:32.861Z""","null","+","null","","","","","","",""
"","","","","","image-keyboard-response","265","799557","0.0-17.0-0.1-1.12","lnw4qfbzbv","","lnw4qfbzbv","""2024-11-13T14:59:32.861Z""","3144","materials/imgs/D36.png","arrowleft","","[""materials/imgs/D52.png"",""materials/imgs/D102.png""]","false","random","","",""
"","","","","","html-keyboard-response","266","800064","0.0-17.0-0.1-0.13","lnw4qfbzbv","","lnw4qfbzbv","""2024-11-13T14:59:32.861Z""","null","+","null","","","","","","",""
"","","","","","image-keyboard-response","267","802225","0.0-17.0-0.1-1.13","lnw4qfbzbv","","lnw4qfbzbv","""2024-11-13T14:59:32.861Z""","2139","materials/imgs/D55.png","arrowleft","","[""materials/imgs/D49.png"",""materials/imgs/D21.png""]","false","random","","",""
"","","","","","html-keyboard-response","268","802736","0.0-17.0-1.1-0.1","lnw4qfbzbv","","lnw4qfbzbv","""2024-11-13T14:59:32.861Z""","null","+","null","","","","","","",""
"","","","","","image-keyboard-response","269","803596","0.0-17.0-1.1-1.1","lnw4qfbzbv","","lnw4qfbzbv","""2024-11-13T14:59:32.861Z""","856","materials/imgs/D78.png","arrowright","","[""materials/imgs/D76.png"",""materials/imgs/D78.png""]","","check","materials/imgs/D78.png","1","true"
"","","","","","html-keyboard-response","270","804098","0.0-17.0-2.1-0.2","lnw4qfbzbv","","lnw4qfbzbv","""2024-11-13T14:59:32.861Z""","null","+","null","","","","","","",""
"","","","","","image-keyboard-response","271","806025","0.0-17.0-2.1-1.2","lnw4qfbzbv","","lnw4qfbzbv","""2024-11-13T14:59:32.861Z""","1925","materials/imgs/D85.png","arrowleft","","[""materials/imgs/D6.png"",""materials/imgs/D111.png""]","false","validation","","",""
"","","","","","html-keyboard-response","272","806538","0.0-17.0-2.1-0.3","lnw4qfbzbv","","lnw4qfbzbv","""2024-11-13T14:59:32.861Z""","null","+","null","","","","","","",""
"","","","","","image-keyboard-response","273","807251","0.0-17.0-2.1-1.3","lnw4qfbzbv","","lnw4qfbzbv","""2024-11-13T14:59:32.861Z""","711","materials/imgs/D105.png","arrowleft","","[""materials/imgs/D106.png"",""materials/imgs/D52.png""]","false","validation","","",""
"","","","","","html-keyboard-response","274","807757","0.0-17.0-0.2-0.14","lnw4qfbzbv","","lnw4qfbzbv","""2024-11-13T14:59:32.861Z""","null","+","null","","","","","","",""
"","","","","","image-keyboard-response","275","808925","0.0-17.0-0.2-1.14","lnw4qfbzbv","","lnw4qfbzbv","""2024-11-13T14:59:32.861Z""","1163","materials/imgs/D56.png","arrowright","","[""materials/imgs/D76.png"",""materials/imgs/D25.png""]","false","random","","",""
"","","","","","html-keyboard-response","276","809434","0.0-17.0-0.2-0.15","lnw4qfbzbv","","lnw4qfbzbv","""2024-11-13T14:59:32.861Z""","null","+","null","","","","","","",""
"","","","","","image-keyboard-response","277","815542","0.0-17.0-0.2-1.15","lnw4qfbzbv","","lnw4qfbzbv","""2024-11-13T14:59:32.861Z""","6106","materials/imgs/D26.png","arrowleft","","[""materials/imgs/D32.png"",""materials/imgs/D19.png""]","false","random","","",""
"","","","","","html-keyboard-response","278","816050","0.0-17.0-0.2-0.16","lnw4qfbzbv","","lnw4qfbzbv","""2024-11-13T14:59:32.861Z""","null","+","null","","","","","","",""
"","","","","","image-keyboard-response","279","821305","0.0-17.0-0.2-1.16","lnw4qfbzbv","","lnw4qfbzbv","""2024-11-13T14:59:32.861Z""","5251","materials/imgs/D64.png","arrowleft","","[""materials/imgs/D85.png"",""materials/imgs/D14.png""]","false","random","","",""
"","","","","","html-keyboard-response","280","821814","0.0-17.0-0.2-0.17","lnw4qfbzbv","","lnw4qfbzbv","""2024-11-13T14:59:32.861Z""","null","+","null","","","","","","",""
"","","","","","image-keyboard-response","281","826130","0.0-17.0-0.2-1.17","lnw4qfbzbv","","lnw4qfbzbv","""2024-11-13T14:59:32.861Z""","4315","materials/imgs/D53.png","arrowright","","[""materials/imgs/D79.png"",""materials/imgs/D65.png""]","false","random","","",""
"","","","","","html-keyboard-response","282","826636","0.0-17.0-0.2-0.18","lnw4qfbzbv","","lnw4qfbzbv","""2024-11-13T14:59:32.861Z""","null","+","null","","","","","","",""
"","","","","","image-keyboard-response","283","827384","0.0-17.0-0.2-1.18","lnw4qfbzbv","","lnw4qfbzbv","""2024-11-13T14:59:32.861Z""","744","materials/imgs/D106.png","arrowright","","[""materials/imgs/D9.png"",""materials/imgs/D105.png""]","false","random","","",""
"","","","","","html-keyboard-response","284","827889","0.0-17.0-0.2-0.19","lnw4qfbzbv","","lnw4qfbzbv","""2024-11-13T14:59:32.861Z""","null","+","null","","","","","","",""
"","","","","","image-keyboard-response","285","828777","0.0-17.0-0.2-1.19","lnw4qfbzbv","","lnw4qfbzbv","""2024-11-13T14:59:32.861Z""","885","materials/imgs/D4.png","arrowleft","","[""materials/imgs/D29.png"",""materials/imgs/D52.png""]","false","random","","",""
"","","","","","html-keyboard-response","286","829281","0.0-17.0-0.2-0.20","lnw4qfbzbv","","lnw4qfbzbv","""2024-11-13T14:59:32.861Z""","null","+","null","","","","","","",""
"","","","","","image-keyboard-response","287","832281","0.0-17.0-0.2-1.20","lnw4qfbzbv","","lnw4qfbzbv","""2024-11-13T14:59:32.861Z""","2997","materials/imgs/D65.png","arrowleft","","[""materials/imgs/D94.png"",""materials/imgs/D101.png""]","false","random","","",""
"","","","","","html-keyboard-response","288","832789","0.0-17.0-1.2-0.2","lnw4qfbzbv","","lnw4qfbzbv","""2024-11-13T14:59:32.861Z""","null","+","null","","","","","","",""
"","","","","","image-keyboard-response","289","833567","0.0-17.0-1.2-1.2","lnw4qfbzbv","","lnw4qfbzbv","""2024-11-13T14:59:32.861Z""","774","materials/imgs/D18.png","arrowright","","[""materials/imgs/D8.png"",""materials/imgs/D18.png""]","","check","materials/imgs/D18.png","1","true"
"","","","","","html-keyboard-response","290","834081","0.0-17.0-2.2-0.4","lnw4qfbzbv","","lnw4qfbzbv","""2024-11-13T14:59:32.861Z""","null","+","null","","","","","","",""
"","","","","","image-keyboard-response","291","836715","0.0-17.0-2.2-1.4","lnw4qfbzbv","","lnw4qfbzbv","""2024-11-13T14:59:32.861Z""","2632","materials/imgs/D22.png","arrowleft","","[""materials/imgs/D4.png"",""materials/imgs/D25.png""]","false","validation","","",""
"","","","","","html-keyboard-response","292","837218","0.0-17.0-2.2-0.5","lnw4qfbzbv","","lnw4qfbzbv","""2024-11-13T14:59:32.861Z""","null","+","null","","","","","","",""
"","","","","","image-keyboard-response","293","841605","0.0-17.0-2.2-1.5","lnw4qfbzbv","","lnw4qfbzbv","""2024-11-13T14:59:32.861Z""","4385","materials/imgs/D106.png","arrowleft","","[""materials/imgs/D57.png"",""materials/imgs/D18.png""]","false","validation","","",""
"","","","","","html-keyboard-response","294","842108","0.0-17.0-0.3-0.21","lnw4qfbzbv","","lnw4qfbzbv","""2024-11-13T14:59:32.861Z""","null","+","null","","","","","","",""
"","","","","","image-keyboard-response","295","843446","0.0-17.0-0.3-1.21","lnw4qfbzbv","","lnw4qfbzbv","""2024-11-13T14:59:32.861Z""","1336","materials/imgs/D22.png","arrowright","","[""materials/imgs/D96.png"",""materials/imgs/D66.png""]","false","random","","",""
"","","","","","html-keyboard-response","296","843953","0.0-17.0-0.3-0.22","lnw4qfbzbv","","lnw4qfbzbv","""2024-11-13T14:59:32.861Z""","null","+","null","","","","","","",""
"","","","","","image-keyboard-response","297","847027","0.0-17.0-0.3-1.22","lnw4qfbzbv","","lnw4qfbzbv","""2024-11-13T14:59:32.861Z""","3073","materials/imgs/D20.png","arrowright","","[""materials/imgs/D87.png"",""materials/imgs/D79.png""]","false","random","","",""
"","","","","","html-keyboard-response","298","847544","0.0-17.0-0.3-0.23","lnw4qfbzbv","","lnw4qfbzbv","""2024-11-13T14:59:32.861Z""","null","+","null","","","","","","",""
"","","","","","image-keyboard-response","299","851114","0.0-17.0-0.3-1.23","lnw4qfbzbv","","lnw4qfbzbv","""2024-11-13T14:59:32.861Z""","3567","materials/imgs/D49.png","arrowright","","[""materials/imgs/D92.png"",""materials/imgs/D20.png""]","false","random","","",""
"","","","","","html-keyboard-response","300","851623","0.0-17.0-0.3-0.24","lnw4qfbzbv","","lnw4qfbzbv","""2024-11-13T14:59:32.861Z""","null","+","null","","","","","","",""
"","","","","","image-keyboard-response","301","852352","0.0-17.0-0.3-1.24","lnw4qfbzbv","","lnw4qfbzbv","""2024-11-13T14:59:32.861Z""","727","materials/imgs/D26.png","arrowleft","","[""materials/imgs/D25.png"",""materials/imgs/D20.png""]","false","random","","",""
"","","","","","html-keyboard-response","302","852854","0.0-17.0-0.3-0.25","lnw4qfbzbv","","lnw4qfbzbv","""2024-11-13T14:59:32.861Z""","null","+","null","","","","","","",""
"","","","","","image-keyboard-response","303","855028","0.0-17.0-0.3-1.25","lnw4qfbzbv","","lnw4qfbzbv","""2024-11-13T14:59:32.861Z""","2171","materials/imgs/D24.png","arrowright","","[""materials/imgs/D8.png"",""materials/imgs/D6.png""]","false","random","","",""
"","","","","","html-keyboard-response","304","855540","0.0-17.0-0.3-0.26","lnw4qfbzbv","","lnw4qfbzbv","""2024-11-13T14:59:32.861Z""","null","+","null","","","","","","",""
"","","","","","image-keyboard-response","305","856891","0.0-17.0-0.3-1.26","lnw4qfbzbv","","lnw4qfbzbv","""2024-11-13T14:59:32.861Z""","1349","materials/imgs/D103.png","arrowleft","","[""materials/imgs/D24.png"",""materials/imgs/D18.png""]","false","random","","",""
"","","","","","html-keyboard-response","306","857401","0.0-17.0-0.3-0.27","lnw4qfbzbv","","lnw4qfbzbv","""2024-11-13T14:59:32.861Z""","null","+","null","","","","","","",""
"","","","","","image-keyboard-response","307","859048","0.0-17.0-0.3-1.27","lnw4qfbzbv","","lnw4qfbzbv","""2024-11-13T14:59:32.861Z""","1645","materials/imgs/D17.png","arrowleft","","[""materials/imgs/D53.png"",""materials/imgs/D35.png""]","false","random","","",""
"","","","","","html-keyboard-response","308","859555","0.0-17.0-1.3-0.3","lnw4qfbzbv","","lnw4qfbzbv","""2024-11-13T14:59:32.861Z""","null","+","null","","","","","","",""
"","","","","","image-keyboard-response","309","860453","0.0-17.0-1.3-1.3","lnw4qfbzbv","","lnw4qfbzbv","""2024-11-13T14:59:32.861Z""","897","materials/imgs/D101.png","arrowright","","[""materials/imgs/D106.png"",""materials/imgs/D101.png""]","","check","materials/imgs/D101.png","1","true"
"","","","","","html-keyboard-response","310","860956","0.0-17.0-2.3-0.6","lnw4qfbzbv","","lnw4qfbzbv","""2024-11-13T14:59:32.861Z""","null","+","null","","","","","","",""
"","","","","","image-keyboard-response","311","863794","0.0-17.0-2.3-1.6","lnw4qfbzbv","","lnw4qfbzbv","""2024-11-13T14:59:32.861Z""","2836","materials/imgs/D26.png","arrowright","","[""materials/imgs/D36.png"",""materials/imgs/D92.png""]","false","validation","","",""
"","","","","","html-keyboard-response","312","864301","0.0-17.0-2.3-0.7","lnw4qfbzbv","","lnw4qfbzbv","""2024-11-13T14:59:32.861Z""","null","+","null","","","","","","",""
"","","","","","image-keyboard-response","313","867488","0.0-17.0-2.3-1.7","lnw4qfbzbv","","lnw4qfbzbv","""2024-11-13T14:59:32.861Z""","3184","materials/imgs/D19.png","arrowleft","","[""materials/imgs/D111.png"",""materials/imgs/D56.png""]","false","validation","","",""
"","","","","","html-keyboard-response","314","867990","0.0-17.0-0.4-0.28","lnw4qfbzbv","","lnw4qfbzbv","""2024-11-13T14:59:32.861Z""","null","+","null","","","","","","",""
"","","","","","image-keyboard-response","315","870505","0.0-17.0-0.4-1.28","lnw4qfbzbv","","lnw4qfbzbv","""2024-11-13T14:59:32.861Z""","2514","materials/imgs/D37.png","arrowright","","[""materials/imgs/D84.png"",""materials/imgs/D49.png""]","false","random","","",""
"","","","","","html-keyboard-response","316","871020","0.0-17.0-0.4-0.29","lnw4qfbzbv","","lnw4qfbzbv","""2024-11-13T14:59:32.861Z""","null","+","null","","","","","","",""
"","","","","","image-keyboard-response","317","873613","0.0-17.0-0.4-1.29","lnw4qfbzbv","","lnw4qfbzbv","""2024-11-13T14:59:32.861Z""","2590","materials/imgs/D106.png","arrowleft","","[""materials/imgs/D57.png"",""materials/imgs/D36.png""]","false","random","","",""
"","","","","","html-keyboard-response","318","874126","0.0-17.0-0.4-0.30","lnw4qfbzbv","","lnw4qfbzbv","""2024-11-13T14:59:32.861Z""","null","+","null","","","","","","",""
"","","","","","image-keyboard-response","319","879057","0.0-17.0-0.4-1.30","lnw4qfbzbv","","lnw4qfbzbv","""2024-11-13T14:59:32.861Z""","4930","materials/imgs/D37.png","arrowright","","[""materials/imgs/D35.png"",""materials/imgs/D21.png""]","false","random","","",""
"","","","","","html-keyboard-response","320","879558","0.0-17.0-0.4-0.31","lnw4qfbzbv","","lnw4qfbzbv","""2024-11-13T14:59:32.861Z""","null","+","null","","","","","","",""
"","","","","","image-keyboard-response","321","881159","0.0-17.0-0.4-1.31","lnw4qfbzbv","","lnw4qfbzbv","""2024-11-13T14:59:32.861Z""","1599","materials/imgs/D37.png","arrowleft","","[""materials/imgs/D104.png"",""materials/imgs/D19.png""]","false","random","","",""
"","","","","","html-keyboard-response","322","881673","0.0-17.0-0.4-0.32","lnw4qfbzbv","","lnw4qfbzbv","""2024-11-13T14:59:32.861Z""","null","+","null","","","","","","",""
"","","","","","image-keyboard-response","323","883514","0.0-17.0-0.4-1.32","lnw4qfbzbv","","lnw4qfbzbv","""2024-11-13T14:59:32.861Z""","1838","materials/imgs/D57.png","arrowleft","","[""materials/imgs/D16.png"",""materials/imgs/D87.png""]","false","random","","",""
"","","","","","html-keyboard-response","324","884027","0.0-17.0-0.4-0.33","lnw4qfbzbv","","lnw4qfbzbv","""2024-11-13T14:59:32.861Z""","null","+","null","","","","","","",""
"","","","","","image-keyboard-response","325","887519","0.0-17.0-0.4-1.33","lnw4qfbzbv","","lnw4qfbzbv","""2024-11-13T14:59:32.861Z""","3490","materials/imgs/D92.png","arrowright","","[""materials/imgs/D18.png"",""materials/imgs/D35.png""]","false","random","","",""
"","","","","","html-keyboard-response","326","888021","0.0-17.0-0.4-0.34","lnw4qfbzbv","","lnw4qfbzbv","""2024-11-13T14:59:32.861Z""","null","+","null","","","","","","",""
"","","","","","image-keyboard-response","327","890930","0.0-17.0-0.4-1.34","lnw4qfbzbv","","lnw4qfbzbv","""2024-11-13T14:59:32.861Z""","2908","materials/imgs/D3.png","arrowleft","","[""materials/imgs/D104.png"",""materials/imgs/D106.png""]","false","random","","",""
"","","","","","html-keyboard-response","328","891437","0.0-17.0-1.4-0.4","lnw4qfbzbv","","lnw4qfbzbv","""2024-11-13T14:59:32.861Z""","null","+","null","","","","","","",""
"","","","","","image-keyboard-response","329","892087","0.0-17.0-1.4-1.4","lnw4qfbzbv","","lnw4qfbzbv","""2024-11-13T14:59:32.861Z""","648","materials/imgs/D64.png","arrowleft","","[""materials/imgs/D64.png"",""materials/imgs/D53.png""]","","check","materials/imgs/D64.png","0","true"
"","","","","","html-keyboard-response","330","892593","0.0-17.0-2.4-0.8","lnw4qfbzbv","","lnw4qfbzbv","""2024-11-13T14:59:32.861Z""","null","+","null","","","","","","",""
"","","","","","image-keyboard-response","331","894444","0.0-17.0-2.4-1.8","lnw4qfbzbv","","lnw4qfbzbv","""2024-11-13T14:59:32.861Z""","1850","materials/imgs/D56.png","arrowleft","","[""materials/imgs/D25.png"",""materials/imgs/D105.png""]","false","validation","","",""
"","","","","","html-keyboard-response","332","894959","0.0-17.0-2.4-0.9","lnw4qfbzbv","","lnw4qfbzbv","""2024-11-13T14:59:32.861Z""","null","+","null","","","","","","",""
"","","","","","image-keyboard-response","333","896537","0.0-17.0-2.4-1.9","lnw4qfbzbv","","lnw4qfbzbv","""2024-11-13T14:59:32.861Z""","1575","materials/imgs/D76.png","arrowleft","","[""materials/imgs/D83.png"",""materials/imgs/D6.png""]","false","validation","","",""
"","","","","","html-button-response","334","906015","0.0-18.0","lnw4qfbzbv","","lnw4qfbzbv","""2024-11-13T14:59:32.861Z""","9477","You have completed 75% of the trials. Please click 'Continue' when you are ready proceed.","0","","","","","","",""
"","","","","","html-keyboard-response","335","906517","0.0-19.0-0.0-0.0","lnw4qfbzbv","","lnw4qfbzbv","""2024-11-13T14:59:32.861Z""","null","+","null","","","","","","",""
"","","","","","image-keyboard-response","336","907686","0.0-19.0-0.0-1.0","lnw4qfbzbv","","lnw4qfbzbv","""2024-11-13T14:59:32.861Z""","1167","materials/imgs/D105.png","arrowright","","[""materials/imgs/D24.png"",""materials/imgs/D14.png""]","false","random","","",""
"","","","","","html-keyboard-response","337","908188","0.0-19.0-0.0-0.1","lnw4qfbzbv","","lnw4qfbzbv","""2024-11-13T14:59:32.861Z""","null","+","null","","","","","","",""
"","","","","","image-keyboard-response","338","911736","0.0-19.0-0.0-1.1","lnw4qfbzbv","","lnw4qfbzbv","""2024-11-13T14:59:32.861Z""","3546","materials/imgs/D64.png","arrowleft","","[""materials/imgs/D46.png"",""materials/imgs/D17.png""]","false","random","","",""
"","","","","","html-keyboard-response","339","912246","0.0-19.0-0.0-0.2","lnw4qfbzbv","","lnw4qfbzbv","""2024-11-13T14:59:32.861Z""","null","+","null","","","","","","",""
"","","","","","image-keyboard-response","340","914123","0.0-19.0-0.0-1.2","lnw4qfbzbv","","lnw4qfbzbv","""2024-11-13T14:59:32.861Z""","1875","materials/imgs/D76.png","arrowright","","[""materials/imgs/D11.png"",""materials/imgs/D51.png""]","false","random","","",""
"","","","","","html-keyboard-response","341","914639","0.0-19.0-0.0-0.3","lnw4qfbzbv","","lnw4qfbzbv","""2024-11-13T14:59:32.861Z""","null","+","null","","","","","","",""
"","","","","","image-keyboard-response","342","918335","0.0-19.0-0.0-1.3","lnw4qfbzbv","","lnw4qfbzbv","""2024-11-13T14:59:32.861Z""","3694","materials/imgs/D46.png","arrowright","","[""materials/imgs/D1.png"",""materials/imgs/D82.png""]","false","random","","",""
"","","","","","html-keyboard-response","343","918850","0.0-19.0-0.0-0.4","lnw4qfbzbv","","lnw4qfbzbv","""2024-11-13T14:59:32.861Z""","null","+","null","","","","","","",""
"","","","","","image-keyboard-response","344","920106","0.0-19.0-0.0-1.4","lnw4qfbzbv","","lnw4qfbzbv","""2024-11-13T14:59:32.861Z""","1254","materials/imgs/D6.png","arrowleft","","[""materials/imgs/D3.png"",""materials/imgs/D51.png""]","false","random","","",""
"","","","","","html-keyboard-response","345","920614","0.0-19.0-0.0-0.5","lnw4qfbzbv","","lnw4qfbzbv","""2024-11-13T14:59:32.861Z""","null","+","null","","","","","","",""
"","","","","","image-keyboard-response","346","923634","0.0-19.0-0.0-1.5","lnw4qfbzbv","","lnw4qfbzbv","""2024-11-13T14:59:32.861Z""","3017","materials/imgs/D96.png","arrowleft","","[""materials/imgs/D102.png"",""materials/imgs/D80.png""]","false","random","","",""
"","","","","","html-keyboard-response","347","924136","0.0-19.0-0.0-0.6","lnw4qfbzbv","","lnw4qfbzbv","""2024-11-13T14:59:32.861Z""","null","+","null","","","","","","",""
"","","","","","image-keyboard-response","348","926772","0.0-19.0-0.0-1.6","lnw4qfbzbv","","lnw4qfbzbv","""2024-11-13T14:59:32.861Z""","2634","materials/imgs/D53.png","arrowright","","[""materials/imgs/D49.png"",""materials/imgs/D52.png""]","false","random","","",""
"","","","","","html-keyboard-response","349","927276","0.0-19.0-1.0-0.0","lnw4qfbzbv","","lnw4qfbzbv","""2024-11-13T14:59:32.861Z""","null","+","null","","","","","","",""
"","","","","","image-keyboard-response","350","927868","0.0-19.0-1.0-1.0","lnw4qfbzbv","","lnw4qfbzbv","""2024-11-13T14:59:32.861Z""","591","materials/imgs/D106.png","arrowleft","","[""materials/imgs/D106.png"",""materials/imgs/D101.png""]","","check","materials/imgs/D106.png","0","true"
"","","","","","html-keyboard-response","351","928377","0.0-19.0-2.0-0.0","lnw4qfbzbv","","lnw4qfbzbv","""2024-11-13T14:59:32.861Z""","null","+","null","","","","","","",""
"","","","","","image-keyboard-response","352","933464","0.0-19.0-2.0-1.0","lnw4qfbzbv","","lnw4qfbzbv","""2024-11-13T14:59:32.861Z""","5084","materials/imgs/D65.png","arrowright","","[""materials/imgs/D4.png"",""materials/imgs/D16.png""]","false","validation","","",""
"","","","","","html-keyboard-response","353","933975","0.0-19.0-2.0-0.1","lnw4qfbzbv","","lnw4qfbzbv","""2024-11-13T14:59:32.861Z""","null","+","null","","","","","","",""
"","","","","","image-keyboard-response","354","936956","0.0-19.0-2.0-1.1","lnw4qfbzbv","","lnw4qfbzbv","""2024-11-13T14:59:32.861Z""","2979","materials/imgs/D47.png","arrowleft","","[""materials/imgs/D1.png"",""materials/imgs/D52.png""]","false","validation","","",""
"","","","","","html-keyboard-response","355","937468","0.0-19.0-0.1-0.7","lnw4qfbzbv","","lnw4qfbzbv","""2024-11-13T14:59:32.861Z""","null","+","null","","","","","","",""
"","","","","","image-keyboard-response","356","940191","0.0-19.0-0.1-1.7","lnw4qfbzbv","","lnw4qfbzbv","""2024-11-13T14:59:32.861Z""","2721","materials/imgs/D74.png","arrowright","","[""materials/imgs/D106.png"",""materials/imgs/D24.png""]","false","random","","",""
"","","","","","html-keyboard-response","357","940703","0.0-19.0-0.1-0.8","lnw4qfbzbv","","lnw4qfbzbv","""2024-11-13T14:59:32.861Z""","null","+","null","","","","","","",""
"","","","","","image-keyboard-response","358","943713","0.0-19.0-0.1-1.8","lnw4qfbzbv","","lnw4qfbzbv","""2024-11-13T14:59:32.861Z""","3009","materials/imgs/D20.png","arrowleft","","[""materials/imgs/D37.png"",""materials/imgs/D9.png""]","false","random","","",""
"","","","","","html-keyboard-response","359","944216","0.0-19.0-0.1-0.9","lnw4qfbzbv","","lnw4qfbzbv","""2024-11-13T14:59:32.861Z""","null","+","null","","","","","","",""
"","","","","","image-keyboard-response","360","946545","0.0-19.0-0.1-1.9","lnw4qfbzbv","","lnw4qfbzbv","""2024-11-13T14:59:32.861Z""","2327","materials/imgs/D18.png","arrowleft","","[""materials/imgs/D105.png"",""materials/imgs/D32.png""]","false","random","","",""
"","","","","","html-keyboard-response","361","947049","0.0-19.0-0.1-0.10","lnw4qfbzbv","","lnw4qfbzbv","""2024-11-13T14:59:32.861Z""","null","+","null","","","","","","",""
"","","","","","image-keyboard-response","362","948546","0.0-19.0-0.1-1.10","lnw4qfbzbv","","lnw4qfbzbv","""2024-11-13T14:59:32.861Z""","1495","materials/imgs/D1.png","arrowleft","","[""materials/imgs/D18.png"",""materials/imgs/D37.png""]","false","random","","",""
"","","","","","html-keyboard-response","363","949058","0.0-19.0-0.1-0.11","lnw4qfbzbv","","lnw4qfbzbv","""2024-11-13T14:59:32.861Z""","null","+","null","","","","","","",""
"","","","","","image-keyboard-response","364","951787","0.0-19.0-0.1-1.11","lnw4qfbzbv","","lnw4qfbzbv","""2024-11-13T14:59:32.861Z""","2727","materials/imgs/D32.png","arrowleft","","[""materials/imgs/D75.png"",""materials/imgs/D49.png""]","false","random","","",""
"","","","","","html-keyboard-response","365","952290","0.0-19.0-0.1-0.12","lnw4qfbzbv","","lnw4qfbzbv","""2024-11-13T14:59:32.861Z""","null","+","null","","","","","","",""
"","","","","","image-keyboard-response","366","955369","0.0-19.0-0.1-1.12","lnw4qfbzbv","","lnw4qfbzbv","""2024-11-13T14:59:32.861Z""","3077","materials/imgs/D3.png","arrowleft","","[""materials/imgs/D80.png"",""materials/imgs/D95.png""]","false","random","","",""
"","","","","","html-keyboard-response","367","955872","0.0-19.0-0.1-0.13","lnw4qfbzbv","","lnw4qfbzbv","""2024-11-13T14:59:32.861Z""","null","+","null","","","","","","",""
"","","","","","image-keyboard-response","368","958419","0.0-19.0-0.1-1.13","lnw4qfbzbv","","lnw4qfbzbv","""2024-11-13T14:59:32.861Z""","2544","materials/imgs/D52.png","arrowright","","[""materials/imgs/D11.png"",""materials/imgs/D85.png""]","false","random","","",""
"","","","","","html-keyboard-response","369","958927","0.0-19.0-1.1-0.1","lnw4qfbzbv","","lnw4qfbzbv","""2024-11-13T14:59:32.861Z""","null","+","null","","","","","","",""
"","","","","","image-keyboard-response","370","959628","0.0-19.0-1.1-1.1","lnw4qfbzbv","","lnw4qfbzbv","""2024-11-13T14:59:32.861Z""","699","materials/imgs/D46.png","arrowleft","","[""materials/imgs/D46.png"",""materials/imgs/D26.png""]","","check","materials/imgs/D46.png","0","true"
"","","","","","html-keyboard-response","371","960134","0.0-19.0-2.1-0.2","lnw4qfbzbv","","lnw4qfbzbv","""2024-11-13T14:59:32.861Z""","null","+","null","","","","","","",""
"","","","","","image-keyboard-response","372","962714","0.0-19.0-2.1-1.2","lnw4qfbzbv","","lnw4qfbzbv","""2024-11-13T14:59:32.861Z""","2579","materials/imgs/D49.png","arrowright","","[""materials/imgs/D8.png"",""materials/imgs/D101.png""]","false","validation","","",""
"","","","","","html-keyboard-response","373","963256","0.0-19.0-2.1-0.3","lnw4qfbzbv","","lnw4qfbzbv","""2024-11-13T14:59:32.861Z""","null","+","null","","","","","","",""
"","","","","","image-keyboard-response","374","964844","0.0-19.0-2.1-1.3","lnw4qfbzbv","","lnw4qfbzbv","""2024-11-13T14:59:32.861Z""","1585","materials/imgs/D18.png","arrowleft","","[""materials/imgs/D32.png"",""materials/imgs/D57.png""]","false","validation","","",""
"","","","","","html-keyboard-response","375","965354","0.0-19.0-0.2-0.14","lnw4qfbzbv","","lnw4qfbzbv","""2024-11-13T14:59:32.861Z""","null","+","null","","","","","","",""
"","","","","","image-keyboard-response","376","966562","0.0-19.0-0.2-1.14","lnw4qfbzbv","","lnw4qfbzbv","""2024-11-13T14:59:32.861Z""","1204","materials/imgs/D106.png","arrowright","","[""materials/imgs/D95.png"",""materials/imgs/D11.png""]","false","random","","",""
"","","","","","html-keyboard-response","377","967064","0.0-19.0-0.2-0.15","lnw4qfbzbv","","lnw4qfbzbv","""2024-11-13T14:59:32.861Z""","null","+","null","","","","","","",""
"","","","","","image-keyboard-response","378","967776","0.0-19.0-0.2-1.15","lnw4qfbzbv","","lnw4qfbzbv","""2024-11-13T14:59:32.861Z""","710","materials/imgs/D79.png","arrowleft","","[""materials/imgs/D106.png"",""materials/imgs/D19.png""]","false","random","","",""
"","","","","","html-keyboard-response","379","968282","0.0-19.0-0.2-0.16","lnw4qfbzbv","","lnw4qfbzbv","""2024-11-13T14:59:32.861Z""","null","+","null","","","","","","",""
"","","","","","image-keyboard-response","380","969846","0.0-19.0-0.2-1.16","lnw4qfbzbv","","lnw4qfbzbv","""2024-11-13T14:59:32.861Z""","1562","materials/imgs/D21.png","arrowright","","[""materials/imgs/D102.png"",""materials/imgs/D49.png""]","false","random","","",""
"","","","","","html-keyboard-response","381","970349","0.0-19.0-0.2-0.17","lnw4qfbzbv","","lnw4qfbzbv","""2024-11-13T14:59:32.861Z""","null","+","null","","","","","","",""
"","","","","","image-keyboard-response","382","975547","0.0-19.0-0.2-1.17","lnw4qfbzbv","","lnw4qfbzbv","""2024-11-13T14:59:32.861Z""","5196","materials/imgs/D53.png","arrowright","","[""materials/imgs/D46.png"",""materials/imgs/D102.png""]","false","random","","",""
"","","","","","html-keyboard-response","383","976057","0.0-19.0-0.2-0.18","lnw4qfbzbv","","lnw4qfbzbv","""2024-11-13T14:59:32.861Z""","null","+","null","","","","","","",""
"","","","","","image-keyboard-response","384","979249","0.0-19.0-0.2-1.18","lnw4qfbzbv","","lnw4qfbzbv","""2024-11-13T14:59:32.861Z""","3188","materials/imgs/D84.png","arrowright","","[""materials/imgs/D56.png"",""materials/imgs/D103.png""]","false","random","","",""
"","","","","","html-keyboard-response","385","979758","0.0-19.0-0.2-0.19","lnw4qfbzbv","","lnw4qfbzbv","""2024-11-13T14:59:32.861Z""","null","+","null","","","","","","",""
"","","","","","image-keyboard-response","386","980648","0.0-19.0-0.2-1.19","lnw4qfbzbv","","lnw4qfbzbv","""2024-11-13T14:59:32.861Z""","885","materials/imgs/D21.png","arrowright","","[""materials/imgs/D29.png"",""materials/imgs/D77.png""]","false","random","","",""
"","","","","","html-keyboard-response","387","981150","0.0-19.0-0.2-0.20","lnw4qfbzbv","","lnw4qfbzbv","""2024-11-13T14:59:32.861Z""","null","+","null","","","","","","",""
"","","","","","image-keyboard-response","388","985309","0.0-19.0-0.2-1.20","lnw4qfbzbv","","lnw4qfbzbv","""2024-11-13T14:59:32.861Z""","4158","materials/imgs/D94.png","arrowright","","[""materials/imgs/D24.png"",""materials/imgs/D9.png""]","false","random","","",""
"","","","","","html-keyboard-response","389","985821","0.0-19.0-1.2-0.2","lnw4qfbzbv","","lnw4qfbzbv","""2024-11-13T14:59:32.861Z""","null","+","null","","","","","","",""
"","","","","","image-keyboard-response","390","986544","0.0-19.0-1.2-1.2","lnw4qfbzbv","","lnw4qfbzbv","""2024-11-13T14:59:32.861Z""","721","materials/imgs/D106.png","arrowleft","","[""materials/imgs/D106.png"",""materials/imgs/D101.png""]","","check","materials/imgs/D106.png","0","true"
"","","","","","html-keyboard-response","391","987054","0.0-19.0-2.2-0.4","lnw4qfbzbv","","lnw4qfbzbv","""2024-11-13T14:59:32.861Z""","null","+","null","","","","","","",""
"","","","","","image-keyboard-response","392","990706","0.0-19.0-2.2-1.4","lnw4qfbzbv","","lnw4qfbzbv","""2024-11-13T14:59:32.861Z""","3635","materials/imgs/D4.png","arrowleft","","[""materials/imgs/D52.png"",""materials/imgs/D83.png""]","false","validation","","",""
"","","","","","html-keyboard-response","393","991211","0.0-19.0-2.2-0.5","lnw4qfbzbv","","lnw4qfbzbv","""2024-11-13T14:59:32.861Z""","null","+","null","","","","","","",""
"","","","","","image-keyboard-response","394","994659","0.0-19.0-2.2-1.5","lnw4qfbzbv","","lnw4qfbzbv","""2024-11-13T14:59:32.861Z""","3446","materials/imgs/D48.png","arrowleft","","[""materials/imgs/D4.png"",""materials/imgs/D37.png""]","false","validation","","",""
"","","","","","html-keyboard-response","395","995164","0.0-19.0-0.3-0.21","lnw4qfbzbv","","lnw4qfbzbv","""2024-11-13T14:59:32.861Z""","null","+","null","","","","","","",""
"","","","","","image-keyboard-response","396","997777","0.0-19.0-0.3-1.21","lnw4qfbzbv","","lnw4qfbzbv","""2024-11-13T14:59:32.861Z""","2610","materials/imgs/D75.png","arrowright","","[""materials/imgs/D24.png"",""materials/imgs/D4.png""]","false","random","","",""
"","","","","","html-keyboard-response","397","998290","0.0-19.0-0.3-0.22","lnw4qfbzbv","","lnw4qfbzbv","""2024-11-13T14:59:32.861Z""","null","+","null","","","","","","",""
"","","","","","image-keyboard-response","398","1000919","0.0-19.0-0.3-1.22","lnw4qfbzbv","","lnw4qfbzbv","""2024-11-13T14:59:32.861Z""","2626","materials/imgs/D26.png","arrowright","","[""materials/imgs/D21.png"",""materials/imgs/D76.png""]","false","random","","",""
"","","","","","html-keyboard-response","399","1001421","0.0-19.0-0.3-0.23","lnw4qfbzbv","","lnw4qfbzbv","""2024-11-13T14:59:32.861Z""","null","+","null","","","","","","",""
"","","","","","image-keyboard-response","400","1003171","0.0-19.0-0.3-1.23","lnw4qfbzbv","","lnw4qfbzbv","""2024-11-13T14:59:32.861Z""","1747","materials/imgs/D47.png","arrowleft","","[""materials/imgs/D80.png"",""materials/imgs/D74.png""]","false","random","","",""
"","","","","","html-keyboard-response","401","1003681","0.0-19.0-0.3-0.24","lnw4qfbzbv","","lnw4qfbzbv","""2024-11-13T14:59:32.861Z""","null","+","null","","","","","","",""
"","","","","","image-keyboard-response","402","1005485","0.0-19.0-0.3-1.24","lnw4qfbzbv","","lnw4qfbzbv","""2024-11-13T14:59:32.861Z""","1803","materials/imgs/D68.png","arrowright","","[""materials/imgs/D46.png"",""materials/imgs/D77.png""]","false","random","","",""
"","","","","","html-keyboard-response","403","1006003","0.0-19.0-0.3-0.25","lnw4qfbzbv","","lnw4qfbzbv","""2024-11-13T14:59:32.861Z""","null","+","null","","","","","","",""
"","","","","","image-keyboard-response","404","1011042","0.0-19.0-0.3-1.25","lnw4qfbzbv","","lnw4qfbzbv","""2024-11-13T14:59:32.861Z""","5036","materials/imgs/D65.png","arrowright","","[""materials/imgs/D96.png"",""materials/imgs/D94.png""]","false","random","","",""
"","","","","","html-keyboard-response","405","1011544","0.0-19.0-0.3-0.26","lnw4qfbzbv","","lnw4qfbzbv","""2024-11-13T14:59:32.861Z""","null","+","null","","","","","","",""
"","","","","","image-keyboard-response","406","1014775","0.0-19.0-0.3-1.26","lnw4qfbzbv","","lnw4qfbzbv","""2024-11-13T14:59:32.861Z""","3230","materials/imgs/D9.png","arrowright","","[""materials/imgs/D16.png"",""materials/imgs/D87.png""]","false","random","","",""
"","","","","","html-keyboard-response","407","1015278","0.0-19.0-0.3-0.27","lnw4qfbzbv","","lnw4qfbzbv","""2024-11-13T14:59:32.861Z""","null","+","null","","","","","","",""
"","","","","","image-keyboard-response","408","1017279","0.0-19.0-0.3-1.27","lnw4qfbzbv","","lnw4qfbzbv","""2024-11-13T14:59:32.861Z""","1999","materials/imgs/D55.png","arrowleft","","[""materials/imgs/D101.png"",""materials/imgs/D21.png""]","false","random","","",""
"","","","","","html-keyboard-response","409","1017787","0.0-19.0-1.3-0.3","lnw4qfbzbv","","lnw4qfbzbv","""2024-11-13T14:59:32.861Z""","null","+","null","","","","","","",""
"","","","","","image-keyboard-response","410","1018719","0.0-19.0-1.3-1.3","lnw4qfbzbv","","lnw4qfbzbv","""2024-11-13T14:59:32.861Z""","928","materials/imgs/D76.png","arrowleft","","[""materials/imgs/D76.png"",""materials/imgs/D78.png""]","","check","materials/imgs/D76.png","0","true"
"","","","","","html-keyboard-response","411","1019231","0.0-19.0-2.3-0.6","lnw4qfbzbv","","lnw4qfbzbv","""2024-11-13T14:59:32.861Z""","null","+","null","","","","","","",""
"","","","","","image-keyboard-response","412","1024098","0.0-19.0-2.3-1.6","lnw4qfbzbv","","lnw4qfbzbv","""2024-11-13T14:59:32.861Z""","4865","materials/imgs/D18.png","arrowright","","[""materials/imgs/D32.png"",""materials/imgs/D57.png""]","false","validation","","",""
"","","","","","html-keyboard-response","413","1024600","0.0-19.0-2.3-0.7","lnw4qfbzbv","","lnw4qfbzbv","""2024-11-13T14:59:32.861Z""","null","+","null","","","","","","",""
"","","","","","image-keyboard-response","414","1026193","0.0-19.0-2.3-1.7","lnw4qfbzbv","","lnw4qfbzbv","""2024-11-13T14:59:32.861Z""","1592","materials/imgs/D95.png","arrowleft","","[""materials/imgs/D36.png"",""materials/imgs/D4.png""]","false","validation","","",""
"","","","","","html-keyboard-response","415","1026698","0.0-19.0-0.4-0.28","lnw4qfbzbv","","lnw4qfbzbv","""2024-11-13T14:59:32.861Z""","null","+","null","","","","","","",""
"","","","","","image-keyboard-response","416","1028299","0.0-19.0-0.4-1.28","lnw4qfbzbv","","lnw4qfbzbv","""2024-11-13T14:59:32.861Z""","1598","materials/imgs/D46.png","arrowleft","","[""materials/imgs/D101.png"",""materials/imgs/D26.png""]","false","random","","",""
"","","","","","html-keyboard-response","417","1028812","0.0-19.0-0.4-0.29","lnw4qfbzbv","","lnw4qfbzbv","""2024-11-13T14:59:32.861Z""","null","+","null","","","","","","",""
"","","","","","image-keyboard-response","418","1030519","0.0-19.0-0.4-1.29","lnw4qfbzbv","","lnw4qfbzbv","""2024-11-13T14:59:32.861Z""","1704","materials/imgs/D49.png","arrowright","","[""materials/imgs/D66.png"",""materials/imgs/D106.png""]","false","random","","",""
"","","","","","html-keyboard-response","419","1031021","0.0-19.0-0.4-0.30","lnw4qfbzbv","","lnw4qfbzbv","""2024-11-13T14:59:32.861Z""","null","+","null","","","","","","",""
"","","","","","image-keyboard-response","420","1032425","0.0-19.0-0.4-1.30","lnw4qfbzbv","","lnw4qfbzbv","""2024-11-13T14:59:32.861Z""","1402","materials/imgs/D49.png","arrowleft","","[""materials/imgs/D68.png"",""materials/imgs/D36.png""]","false","random","","",""
"","","","","","html-keyboard-response","421","1032934","0.0-19.0-0.4-0.31","lnw4qfbzbv","","lnw4qfbzbv","""2024-11-13T14:59:32.861Z""","null","+","null","","","","","","",""
"","","","","","image-keyboard-response","422","1035982","0.0-19.0-0.4-1.31","lnw4qfbzbv","","lnw4qfbzbv","""2024-11-13T14:59:32.861Z""","3046","materials/imgs/D55.png","arrowright","","[""materials/imgs/D11.png"",""materials/imgs/D47.png""]","false","random","","",""
"","","","","","html-keyboard-response","423","1036488","0.0-19.0-0.4-0.32","lnw4qfbzbv","","lnw4qfbzbv","""2024-11-13T14:59:32.861Z""","null","+","null","","","","","","",""
"","","","","","image-keyboard-response","424","1037980","0.0-19.0-0.4-1.32","lnw4qfbzbv","","lnw4qfbzbv","""2024-11-13T14:59:32.861Z""","1489","materials/imgs/D22.png","arrowleft","","[""materials/imgs/D20.png"",""materials/imgs/D79.png""]","false","random","","",""
"","","","","","html-keyboard-response","425","1038489","0.0-19.0-0.4-0.33","lnw4qfbzbv","","lnw4qfbzbv","""2024-11-13T14:59:32.861Z""","null","+","null","","","","","","",""
"","","","","","image-keyboard-response","426","1040279","0.0-19.0-0.4-1.33","lnw4qfbzbv","","lnw4qfbzbv","""2024-11-13T14:59:32.861Z""","1788","materials/imgs/D6.png","arrowleft","","[""materials/imgs/D64.png"",""materials/imgs/D48.png""]","false","random","","",""
"","","","","","html-keyboard-response","427","1040790","0.0-19.0-0.4-0.34","lnw4qfbzbv","","lnw4qfbzbv","""2024-11-13T14:59:32.861Z""","null","+","null","","","","","","",""
"","","","","","image-keyboard-response","428","1041979","0.0-19.0-0.4-1.34","lnw4qfbzbv","","lnw4qfbzbv","""2024-11-13T14:59:32.861Z""","1187","materials/imgs/D9.png","arrowright","","[""materials/imgs/D19.png"",""materials/imgs/D29.png""]","false","random","","",""
"","","","","","html-keyboard-response","429","1042481","0.0-19.0-1.4-0.4","lnw4qfbzbv","","lnw4qfbzbv","""2024-11-13T14:59:32.861Z""","null","+","null","","","","","","",""
"","","","","","image-keyboard-response","430","1043146","0.0-19.0-1.4-1.4","lnw4qfbzbv","","lnw4qfbzbv","""2024-11-13T14:59:32.861Z""","663","materials/imgs/D76.png","arrowleft","","[""materials/imgs/D76.png"",""materials/imgs/D78.png""]","","check","materials/imgs/D76.png","0","true"
"","","","","","html-keyboard-response","431","1043665","0.0-19.0-2.4-0.8","lnw4qfbzbv","","lnw4qfbzbv","""2024-11-13T14:59:32.861Z""","null","+","null","","","","","","",""
"","","","","","image-keyboard-response","432","1044348","0.0-19.0-2.4-1.8","lnw4qfbzbv","","lnw4qfbzbv","""2024-11-13T14:59:32.861Z""","682","materials/imgs/D57.png","arrowright","","[""materials/imgs/D111.png"",""materials/imgs/D4.png""]","false","validation","","",""
"","","","","","html-keyboard-response","433","1044854","0.0-19.0-2.4-0.9","lnw4qfbzbv","","lnw4qfbzbv","""2024-11-13T14:59:32.861Z""","null","+","null","","","","","","",""
"","","","","","image-keyboard-response","434","1049245","0.0-19.0-2.4-1.9","lnw4qfbzbv","","lnw4qfbzbv","""2024-11-13T14:59:32.861Z""","4389","materials/imgs/D64.png","arrowleft","","[""materials/imgs/D6.png"",""materials/imgs/D81.png""]","false","validation","","",""
