"success","timeout","failed_images","failed_audio","failed_video","trial_type","trial_index","time_elapsed","internal_node_id","subject_id","sona_id","subjectID","dateInfo","rt","stimulus","response","question_order","choices","speedy","sampleAlg","selected_image","selected_index","correct"
"true","false","[]","[]","[]","preload","0","1435","0.0-0.0","m0tctp6cv0","","m0tctp6cv0","""2024-11-13T03:53:01.375Z""","","","","","","","","","",""
"true","","","","","fullscreen","1","4248","0.0-1.0","m0tctp6cv0","","m0tctp6cv0","""2024-11-13T03:53:01.375Z""","","","","","","","","","",""
"","","","","","html-keyboard-response","2","4260","0.0-2.0","m0tctp6cv0","","m0tctp6cv0","""2024-11-13T03:53:01.375Z""","null","","null","","","","","","",""
"","","","","","html-button-response","3","6594","0.0-3.0","m0tctp6cv0","","m0tctp6cv0","""2024-11-13T03:53:01.375Z""","2333","<div style='text-align:center; font-size:20px; line-height:25px; width: 1200px;'>
                Welcome to our experiment! <br>
                <br>At the bottom of this screen, you will see a button that says 'Begin Experiment.
                <br>Please only click that button when you are ready to complete the 25 minute experiment in one sitting. <br>
                <br> Once you click that button, it will not be possible to restart the experiment. <br><br>","0","","","","","","",""
"true","","","","","fullscreen","4","8718","0.0-4.0","m0tctp6cv0","","m0tctp6cv0","""2024-11-13T03:53:01.375Z""","","","","","","","","","",""
"","","","","","survey-multi-select","5","12757","0.0-5.0","m0tctp6cv0","","m0tctp6cv0","""2024-11-13T03:53:01.375Z""","4032","","{""Consent"":[""<strong>I consent</strong>""]}","[0]","","","","","",""
"","","","","","html-button-response","6","14059","0.0-6.0","m0tctp6cv0","","m0tctp6cv0","""2024-11-13T03:53:01.375Z""","1301","Welcome! <p> This experiment involves two parts: demographic information, followed by the experimental task.<p> It will take about 25 minutes to complete both parts.","0","","","","","","",""
"","","","","","survey-text","7","32914","0.0-7.0","m0tctp6cv0","","m0tctp6cv0","""2024-11-13T03:53:01.375Z""","18852","","{""Age"":""18"",""Gender"":""Female"",""Race/ethnicity"":""White""}","","","","","","",""
"","","","","","html-button-response","8","49906","0.0-8.0","m0tctp6cv0","","m0tctp6cv0","""2024-11-13T03:53:01.375Z""","16991","<div style='text-align: center;'>
      <p>In each trial of this task, you will see three texture images: one target item on top, and two choices beneath the target item.</p>
      <p><strong>Please select the item that is most like the target item.</strong></p>
      <p>To select the option on the <strong>LEFT</strong>, press the <strong>LEFT ARROW</strong> key. 
      To select the option on the <strong>RIGHT</strong>, press the <strong>RIGHT ARROW</strong> key.</p>
                  <!-- Target Image at the Top -->
      <div style='margin: 20px;'>
        <img src='materials/imgs/instruction_images/InstructionImg1D78.png' alt='Target Image' style='width:200px; height:auto;' />
        <p><em>Target Image</em></p>
      </div>

      <!-- Two Choice Images Below -->
      <div style='display: flex; justify-content: center;'>
        <div style='margin-right: 50px;'>
          <img src='materials/imgs/instruction_images/InstructionImg2D34.png' alt='Choice Image 1' style='width:150px; height:auto;' />
          <p><em><strong>LEFT ARROW</strong></em></p>
        </div>
        <div style='margin-left: 50px;'>
          <img src='materials/imgs/instruction_images/InstructionImg3D80.png' alt='Choice Image 2' style='width:150px; height:auto;' />
          <p><em><strong>RIGHT ARROW</strong></em></p>
        </div>
      </div>
    </div>

      <p>When you are ready to proceed, please click 'Continue' to begin practice.</p>","0","","","","","","",""
"","","","","","html-keyboard-response","9","52419","0.0-9.0","m0tctp6cv0","","m0tctp6cv0","""2024-11-13T03:53:01.375Z""","null","+","null","","","","","","",""
"","","","","","html-keyboard-response","10","52926","0.0-10.0-0.0-0.0","m0tctp6cv0","","m0tctp6cv0","""2024-11-13T03:53:01.375Z""","null","+","null","","","","","","",""
"","","","","","image-keyboard-response","11","55186","0.0-10.0-0.0-1.0","m0tctp6cv0","","m0tctp6cv0","""2024-11-13T03:53:01.375Z""","2256","materials/imgs/D82.png","arrowright","","[""materials/imgs/D49.png"",""materials/imgs/D32.png""]","false","random","","",""
"","","","","","html-keyboard-response","12","55694","0.0-10.0-0.0-0.1","m0tctp6cv0","","m0tctp6cv0","""2024-11-13T03:53:01.375Z""","null","+","null","","","","","","",""
"","","","","","image-keyboard-response","13","58982","0.0-10.0-0.0-1.1","m0tctp6cv0","","m0tctp6cv0","""2024-11-13T03:53:01.375Z""","3285","materials/imgs/D14.png","arrowright","","[""materials/imgs/D29.png"",""materials/imgs/D1.png""]","false","random","","",""
"","","","","","html-keyboard-response","14","59493","0.0-10.0-0.0-0.2","m0tctp6cv0","","m0tctp6cv0","""2024-11-13T03:53:01.375Z""","null","+","null","","","","","","",""
"","","","","","image-keyboard-response","15","64353","0.0-10.0-0.0-1.2","m0tctp6cv0","","m0tctp6cv0","""2024-11-13T03:53:01.375Z""","4858","materials/imgs/D101.png","arrowright","","[""materials/imgs/D65.png"",""materials/imgs/D66.png""]","false","random","","",""
"","","","","","html-keyboard-response","16","64861","0.0-10.0-0.0-0.3","m0tctp6cv0","","m0tctp6cv0","""2024-11-13T03:53:01.375Z""","null","+","null","","","","","","",""
"","","","","","image-keyboard-response","17","66642","0.0-10.0-0.0-1.3","m0tctp6cv0","","m0tctp6cv0","""2024-11-13T03:53:01.375Z""","1781","materials/imgs/D82.png","arrowright","","[""materials/imgs/D66.png"",""materials/imgs/D103.png""]","false","random","","",""
"","","","","","html-keyboard-response","18","67146","0.0-10.0-0.0-0.4","m0tctp6cv0","","m0tctp6cv0","""2024-11-13T03:53:01.375Z""","null","+","null","","","","","","",""
"","","","","","image-keyboard-response","19","69931","0.0-10.0-0.0-1.4","m0tctp6cv0","","m0tctp6cv0","""2024-11-13T03:53:01.375Z""","2783","materials/imgs/D8.png","arrowright","","[""materials/imgs/D65.png"",""materials/imgs/D1.png""]","false","random","","",""
"","","","","","html-keyboard-response","20","70446","0.0-10.0-0.0-0.5","m0tctp6cv0","","m0tctp6cv0","""2024-11-13T03:53:01.375Z""","null","+","null","","","","","","",""
"","","","","","image-keyboard-response","21","74116","0.0-10.0-0.0-1.5","m0tctp6cv0","","m0tctp6cv0","""2024-11-13T03:53:01.375Z""","3669","materials/imgs/D68.png","arrowright","","[""materials/imgs/D102.png"",""materials/imgs/D104.png""]","false","random","","",""
"","","","","","html-keyboard-response","22","74628","0.0-10.0-0.0-0.6","m0tctp6cv0","","m0tctp6cv0","""2024-11-13T03:53:01.375Z""","null","+","null","","","","","","",""
"","","","","","image-keyboard-response","23","76582","0.0-10.0-0.0-1.6","m0tctp6cv0","","m0tctp6cv0","""2024-11-13T03:53:01.375Z""","1952","materials/imgs/D81.png","arrowleft","","[""materials/imgs/D82.png"",""materials/imgs/D34.png""]","false","random","","",""
"","","","","","html-keyboard-response","24","77092","0.0-10.0-0.0-0.7","m0tctp6cv0","","m0tctp6cv0","""2024-11-13T03:53:01.375Z""","null","+","null","","","","","","",""
"","","","","","image-keyboard-response","25","85880","0.0-10.0-0.0-1.7","m0tctp6cv0","","m0tctp6cv0","""2024-11-13T03:53:01.375Z""","8784","materials/imgs/D32.png","arrowright","","[""materials/imgs/D16.png"",""materials/imgs/D53.png""]","false","random","","",""
"","","","","","html-keyboard-response","26","86393","0.0-10.0-0.0-0.8","m0tctp6cv0","","m0tctp6cv0","""2024-11-13T03:53:01.375Z""","null","+","null","","","","","","",""
"","","","","","image-keyboard-response","27","87848","0.0-10.0-0.0-1.8","m0tctp6cv0","","m0tctp6cv0","""2024-11-13T03:53:01.375Z""","1453","materials/imgs/D85.png","arrowright","","[""materials/imgs/D35.png"",""materials/imgs/D17.png""]","false","random","","",""
"","","","","","html-keyboard-response","28","88359","0.0-10.0-0.0-0.9","m0tctp6cv0","","m0tctp6cv0","""2024-11-13T03:53:01.375Z""","null","+","null","","","","","","",""
"","","","","","image-keyboard-response","29","93912","0.0-10.0-0.0-1.9","m0tctp6cv0","","m0tctp6cv0","""2024-11-13T03:53:01.375Z""","5551","materials/imgs/D92.png","arrowleft","","[""materials/imgs/D20.png"",""materials/imgs/D16.png""]","false","random","","",""
"","","","","","html-button-response","30","104283","0.0-11.0","m0tctp6cv0","","m0tctp6cv0","""2024-11-13T03:53:01.375Z""","10370","<p>Great job!</p>
      <p>You are now ready to begin the experiment.</p>
      <p>There will be around 200 trials. You will have opportunities to take breaks at three stages of the trials.</p>
      <p>When you are ready to begin please click 'Continue'.</p>","0","","","","","","",""
"","","","","","html-keyboard-response","31","106810","0.0-12.0","m0tctp6cv0","","m0tctp6cv0","""2024-11-13T03:53:01.375Z""","null","+","null","","","","","","",""
"","","","","","html-keyboard-response","32","107326","0.0-13.0-0.0-0.0","m0tctp6cv0","","m0tctp6cv0","""2024-11-13T03:53:01.375Z""","null","+","null","","","","","","",""
"","","","","","image-keyboard-response","33","108551","0.0-13.0-0.0-1.0","m0tctp6cv0","","m0tctp6cv0","""2024-11-13T03:53:01.375Z""","1219","materials/imgs/D8.png","arrowright","","[""materials/imgs/D17.png"",""materials/imgs/D64.png""]","false","random","","",""
"","","","","","html-keyboard-response","34","109060","0.0-13.0-0.0-0.1","m0tctp6cv0","","m0tctp6cv0","""2024-11-13T03:53:01.375Z""","null","+","null","","","","","","",""
"","","","","","image-keyboard-response","35","115967","0.0-13.0-0.0-1.1","m0tctp6cv0","","m0tctp6cv0","""2024-11-13T03:53:01.375Z""","6905","materials/imgs/D19.png","arrowleft","","[""materials/imgs/D34.png"",""materials/imgs/D37.png""]","false","random","","",""
"","","","","","html-keyboard-response","36","116474","0.0-13.0-0.0-0.2","m0tctp6cv0","","m0tctp6cv0","""2024-11-13T03:53:01.375Z""","null","+","null","","","","","","",""
"","","","","","image-keyboard-response","37","117498","0.0-13.0-0.0-1.2","m0tctp6cv0","","m0tctp6cv0","""2024-11-13T03:53:01.375Z""","1022","materials/imgs/D74.png","arrowleft","","[""materials/imgs/D22.png"",""materials/imgs/D14.png""]","false","random","","",""
"","","","","","html-keyboard-response","38","118009","0.0-13.0-0.0-0.3","m0tctp6cv0","","m0tctp6cv0","""2024-11-13T03:53:01.375Z""","null","+","null","","","","","","",""
"","","","","","image-keyboard-response","39","119123","0.0-13.0-0.0-1.3","m0tctp6cv0","","m0tctp6cv0","""2024-11-13T03:53:01.375Z""","1108","materials/imgs/D95.png","arrowright","","[""materials/imgs/D87.png"",""materials/imgs/D25.png""]","false","random","","",""
"","","","","","html-keyboard-response","40","119627","0.0-13.0-0.0-0.4","m0tctp6cv0","","m0tctp6cv0","""2024-11-13T03:53:01.375Z""","null","+","null","","","","","","",""
"","","","","","image-keyboard-response","41","121688","0.0-13.0-0.0-1.4","m0tctp6cv0","","m0tctp6cv0","""2024-11-13T03:53:01.375Z""","2059","materials/imgs/D19.png","arrowleft","","[""materials/imgs/D9.png"",""materials/imgs/D20.png""]","false","random","","",""
"","","","","","html-keyboard-response","42","122190","0.0-13.0-0.0-0.5","m0tctp6cv0","","m0tctp6cv0","""2024-11-13T03:53:01.375Z""","null","+","null","","","","","","",""
"","","","","","image-keyboard-response","43","123867","0.0-13.0-0.0-1.5","m0tctp6cv0","","m0tctp6cv0","""2024-11-13T03:53:01.375Z""","1675","materials/imgs/D19.png","arrowright","","[""materials/imgs/D52.png"",""materials/imgs/D81.png""]","false","random","","",""
"","","","","","html-keyboard-response","44","124375","0.0-13.0-0.0-0.6","m0tctp6cv0","","m0tctp6cv0","""2024-11-13T03:53:01.375Z""","null","+","null","","","","","","",""
"","","","","","image-keyboard-response","45","126836","0.0-13.0-0.0-1.6","m0tctp6cv0","","m0tctp6cv0","""2024-11-13T03:53:01.375Z""","2459","materials/imgs/D46.png","arrowright","","[""materials/imgs/D49.png"",""materials/imgs/D56.png""]","false","random","","",""
"","","","","","html-keyboard-response","46","127344","0.0-13.0-1.0-0.0","m0tctp6cv0","","m0tctp6cv0","""2024-11-13T03:53:01.375Z""","null","+","null","","","","","","",""
"","","","","","image-keyboard-response","47","128281","0.0-13.0-1.0-1.0","m0tctp6cv0","","m0tctp6cv0","""2024-11-13T03:53:01.375Z""","935","materials/imgs/D64.png","arrowleft","","[""materials/imgs/D64.png"",""materials/imgs/D53.png""]","","check","materials/imgs/D64.png","0","true"
"","","","","","html-keyboard-response","48","128794","0.0-13.0-2.0-0.0","m0tctp6cv0","","m0tctp6cv0","""2024-11-13T03:53:01.375Z""","null","+","null","","","","","","",""
"","","","","","image-keyboard-response","49","132085","0.0-13.0-2.0-1.0","m0tctp6cv0","","m0tctp6cv0","""2024-11-13T03:53:01.375Z""","3286","materials/imgs/D106.png","arrowright","","[""materials/imgs/D57.png"",""materials/imgs/D18.png""]","false","validation","","",""
"","","","","","html-keyboard-response","50","132589","0.0-13.0-2.0-0.1","m0tctp6cv0","","m0tctp6cv0","""2024-11-13T03:53:01.375Z""","null","+","null","","","","","","",""
"","","","","","image-keyboard-response","51","134302","0.0-13.0-2.0-1.1","m0tctp6cv0","","m0tctp6cv0","""2024-11-13T03:53:01.375Z""","1711","materials/imgs/D32.png","arrowleft","","[""materials/imgs/D68.png"",""materials/imgs/D96.png""]","false","validation","","",""
"","","","","","html-keyboard-response","52","134807","0.0-13.0-0.1-0.7","m0tctp6cv0","","m0tctp6cv0","""2024-11-13T03:53:01.375Z""","null","+","null","","","","","","",""
"","","","","","image-keyboard-response","53","135880","0.0-13.0-0.1-1.7","m0tctp6cv0","","m0tctp6cv0","""2024-11-13T03:53:01.375Z""","1071","materials/imgs/D92.png","arrowleft","","[""materials/imgs/D24.png"",""materials/imgs/D11.png""]","false","random","","",""
"","","","","","html-keyboard-response","54","136390","0.0-13.0-0.1-0.8","m0tctp6cv0","","m0tctp6cv0","""2024-11-13T03:53:01.375Z""","null","+","null","","","","","","",""
"","","","","","image-keyboard-response","55","139031","0.0-13.0-0.1-1.8","m0tctp6cv0","","m0tctp6cv0","""2024-11-13T03:53:01.375Z""","2637","materials/imgs/D77.png","arrowleft","","[""materials/imgs/D25.png"",""materials/imgs/D46.png""]","false","random","","",""
"","","","","","html-keyboard-response","56","139538","0.0-13.0-0.1-0.9","m0tctp6cv0","","m0tctp6cv0","""2024-11-13T03:53:01.375Z""","null","+","null","","","","","","",""
"","","","","","image-keyboard-response","57","140637","0.0-13.0-0.1-1.9","m0tctp6cv0","","m0tctp6cv0","""2024-11-13T03:53:01.375Z""","1094","materials/imgs/D35.png","arrowright","","[""materials/imgs/D32.png"",""materials/imgs/D53.png""]","false","random","","",""
"","","","","","html-keyboard-response","58","141141","0.0-13.0-0.1-0.10","m0tctp6cv0","","m0tctp6cv0","""2024-11-13T03:53:01.375Z""","null","+","null","","","","","","",""
"","","","","","image-keyboard-response","59","144252","0.0-13.0-0.1-1.10","m0tctp6cv0","","m0tctp6cv0","""2024-11-13T03:53:01.375Z""","3109","materials/imgs/D36.png","arrowleft","","[""materials/imgs/D83.png"",""materials/imgs/D85.png""]","false","random","","",""
"","","","","","html-keyboard-response","60","144755","0.0-13.0-0.1-0.11","m0tctp6cv0","","m0tctp6cv0","""2024-11-13T03:53:01.375Z""","null","+","null","","","","","","",""
"","","","","","image-keyboard-response","61","146163","0.0-13.0-0.1-1.11","m0tctp6cv0","","m0tctp6cv0","""2024-11-13T03:53:01.375Z""","1407","materials/imgs/D102.png","arrowright","","[""materials/imgs/D64.png"",""materials/imgs/D57.png""]","false","random","","",""
"","","","","","html-keyboard-response","62","146673","0.0-13.0-0.1-0.12","m0tctp6cv0","","m0tctp6cv0","""2024-11-13T03:53:01.375Z""","null","+","null","","","","","","",""
"","","","","","image-keyboard-response","63","149669","0.0-13.0-0.1-1.12","m0tctp6cv0","","m0tctp6cv0","""2024-11-13T03:53:01.375Z""","2993","materials/imgs/D51.png","arrowleft","","[""materials/imgs/D111.png"",""materials/imgs/D66.png""]","false","random","","",""
"","","","","","html-keyboard-response","64","150174","0.0-13.0-0.1-0.13","m0tctp6cv0","","m0tctp6cv0","""2024-11-13T03:53:01.375Z""","null","+","null","","","","","","",""
"","","","","","image-keyboard-response","65","152132","0.0-13.0-0.1-1.13","m0tctp6cv0","","m0tctp6cv0","""2024-11-13T03:53:01.375Z""","1956","materials/imgs/D37.png","arrowright","","[""materials/imgs/D35.png"",""materials/imgs/D34.png""]","false","random","","",""
"","","","","","html-keyboard-response","66","152639","0.0-13.0-1.1-0.1","m0tctp6cv0","","m0tctp6cv0","""2024-11-13T03:53:01.375Z""","null","+","null","","","","","","",""
"","","","","","image-keyboard-response","67","154647","0.0-13.0-1.1-1.1","m0tctp6cv0","","m0tctp6cv0","""2024-11-13T03:53:01.375Z""","2006","materials/imgs/D78.png","arrowright","","[""materials/imgs/D76.png"",""materials/imgs/D78.png""]","","check","materials/imgs/D78.png","1","true"
"","","","","","html-keyboard-response","68","155159","0.0-13.0-2.1-0.2","m0tctp6cv0","","m0tctp6cv0","""2024-11-13T03:53:01.375Z""","null","+","null","","","","","","",""
"","","","","","image-keyboard-response","69","156004","0.0-13.0-2.1-1.2","m0tctp6cv0","","m0tctp6cv0","""2024-11-13T03:53:01.375Z""","844","materials/imgs/D53.png","arrowleft","","[""materials/imgs/D77.png"",""materials/imgs/D75.png""]","false","validation","","",""
"","","","","","html-keyboard-response","70","156520","0.0-13.0-2.1-0.3","m0tctp6cv0","","m0tctp6cv0","""2024-11-13T03:53:01.375Z""","null","+","null","","","","","","",""
"","","","","","image-keyboard-response","71","157868","0.0-13.0-2.1-1.3","m0tctp6cv0","","m0tctp6cv0","""2024-11-13T03:53:01.375Z""","1346","materials/imgs/D82.png","arrowright","","[""materials/imgs/D83.png"",""materials/imgs/D22.png""]","false","validation","","",""
"","","","","","html-keyboard-response","72","158373","0.0-13.0-0.2-0.14","m0tctp6cv0","","m0tctp6cv0","""2024-11-13T03:53:01.375Z""","null","+","null","","","","","","",""
"","","","","","image-keyboard-response","73","159967","0.0-13.0-0.2-1.14","m0tctp6cv0","","m0tctp6cv0","""2024-11-13T03:53:01.375Z""","1591","materials/imgs/D104.png","arrowleft","","[""materials/imgs/D49.png"",""materials/imgs/D34.png""]","false","random","","",""
"","","","","","html-keyboard-response","74","160471","0.0-13.0-0.2-0.15","m0tctp6cv0","","m0tctp6cv0","""2024-11-13T03:53:01.375Z""","null","+","null","","","","","","",""
"","","","","","image-keyboard-response","75","161820","0.0-13.0-0.2-1.15","m0tctp6cv0","","m0tctp6cv0","""2024-11-13T03:53:01.375Z""","1347","materials/imgs/D82.png","arrowright","","[""materials/imgs/D53.png"",""materials/imgs/D20.png""]","false","random","","",""
"","","","","","html-keyboard-response","76","162324","0.0-13.0-0.2-0.16","m0tctp6cv0","","m0tctp6cv0","""2024-11-13T03:53:01.375Z""","null","+","null","","","","","","",""
"","","","","","image-keyboard-response","77","170182","0.0-13.0-0.2-1.16","m0tctp6cv0","","m0tctp6cv0","""2024-11-13T03:53:01.375Z""","7855","materials/imgs/D53.png","arrowright","","[""materials/imgs/D105.png"",""materials/imgs/D52.png""]","false","random","","",""
"","","","","","html-keyboard-response","78","170691","0.0-13.0-0.2-0.17","m0tctp6cv0","","m0tctp6cv0","""2024-11-13T03:53:01.375Z""","null","+","null","","","","","","",""
"","","","","","image-keyboard-response","79","172080","0.0-13.0-0.2-1.17","m0tctp6cv0","","m0tctp6cv0","""2024-11-13T03:53:01.375Z""","1388","materials/imgs/D66.png","arrowright","","[""materials/imgs/D106.png"",""materials/imgs/D18.png""]","false","random","","",""
"","","","","","html-keyboard-response","80","172590","0.0-13.0-0.2-0.18","m0tctp6cv0","","m0tctp6cv0","""2024-11-13T03:53:01.375Z""","null","+","null","","","","","","",""
"","","","","","image-keyboard-response","81","174262","0.0-13.0-0.2-1.18","m0tctp6cv0","","m0tctp6cv0","""2024-11-13T03:53:01.375Z""","1671","materials/imgs/D92.png","arrowleft","","[""materials/imgs/D21.png"",""materials/imgs/D96.png""]","false","random","","",""
"","","","","","html-keyboard-response","82","174776","0.0-13.0-0.2-0.19","m0tctp6cv0","","m0tctp6cv0","""2024-11-13T03:53:01.375Z""","null","+","null","","","","","","",""
"","","","","","image-keyboard-response","83","175853","0.0-13.0-0.2-1.19","m0tctp6cv0","","m0tctp6cv0","""2024-11-13T03:53:01.375Z""","1075","materials/imgs/D106.png","arrowright","","[""materials/imgs/D32.png"",""materials/imgs/D76.png""]","false","random","","",""
"","","","","","html-keyboard-response","84","176356","0.0-13.0-0.2-0.20","m0tctp6cv0","","m0tctp6cv0","""2024-11-13T03:53:01.375Z""","null","+","null","","","","","","",""
"","","","","","image-keyboard-response","85","177902","0.0-13.0-0.2-1.20","m0tctp6cv0","","m0tctp6cv0","""2024-11-13T03:53:01.375Z""","1545","materials/imgs/D3.png","arrowright","","[""materials/imgs/D55.png"",""materials/imgs/D52.png""]","false","random","","",""
"","","","","","html-keyboard-response","86","178407","0.0-13.0-1.2-0.2","m0tctp6cv0","","m0tctp6cv0","""2024-11-13T03:53:01.375Z""","null","+","null","","","","","","",""
"","","","","","image-keyboard-response","87","178990","0.0-13.0-1.2-1.2","m0tctp6cv0","","m0tctp6cv0","""2024-11-13T03:53:01.375Z""","582","materials/imgs/D26.png","arrowleft","","[""materials/imgs/D26.png"",""materials/imgs/D46.png""]","","check","materials/imgs/D26.png","0","true"
"","","","","","html-keyboard-response","88","179504","0.0-13.0-2.2-0.4","m0tctp6cv0","","m0tctp6cv0","""2024-11-13T03:53:01.375Z""","null","+","null","","","","","","",""
"","","","","","image-keyboard-response","89","180900","0.0-13.0-2.2-1.4","m0tctp6cv0","","m0tctp6cv0","""2024-11-13T03:53:01.375Z""","1392","materials/imgs/D105.png","arrowleft","","[""materials/imgs/D106.png"",""materials/imgs/D52.png""]","false","validation","","",""
"","","","","","html-keyboard-response","90","181406","0.0-13.0-2.2-0.5","m0tctp6cv0","","m0tctp6cv0","""2024-11-13T03:53:01.375Z""","null","+","null","","","","","","",""
"","","","","","image-keyboard-response","91","183461","0.0-13.0-2.2-1.5","m0tctp6cv0","","m0tctp6cv0","""2024-11-13T03:53:01.375Z""","2055","materials/imgs/D95.png","arrowright","","[""materials/imgs/D36.png"",""materials/imgs/D4.png""]","false","validation","","",""
"","","","","","html-keyboard-response","92","183971","0.0-13.0-0.3-0.21","m0tctp6cv0","","m0tctp6cv0","""2024-11-13T03:53:01.375Z""","null","+","null","","","","","","",""
"","","","","","image-keyboard-response","93","185069","0.0-13.0-0.3-1.21","m0tctp6cv0","","m0tctp6cv0","""2024-11-13T03:53:01.375Z""","1096","materials/imgs/D52.png","arrowright","","[""materials/imgs/D74.png"",""materials/imgs/D80.png""]","false","random","","",""
"","","","","","html-keyboard-response","94","185572","0.0-13.0-0.3-0.22","m0tctp6cv0","","m0tctp6cv0","""2024-11-13T03:53:01.375Z""","null","+","null","","","","","","",""
"","","","","","image-keyboard-response","95","186504","0.0-13.0-0.3-1.22","m0tctp6cv0","","m0tctp6cv0","""2024-11-13T03:53:01.375Z""","930","materials/imgs/D51.png","arrowright","","[""materials/imgs/D57.png"",""materials/imgs/D76.png""]","false","random","","",""
"","","","","","html-keyboard-response","96","187018","0.0-13.0-0.3-0.23","m0tctp6cv0","","m0tctp6cv0","""2024-11-13T03:53:01.375Z""","null","+","null","","","","","","",""
"","","","","","image-keyboard-response","97","188272","0.0-13.0-0.3-1.23","m0tctp6cv0","","m0tctp6cv0","""2024-11-13T03:53:01.375Z""","1252","materials/imgs/D24.png","arrowright","","[""materials/imgs/D79.png"",""materials/imgs/D87.png""]","false","random","","",""
"","","","","","html-keyboard-response","98","188788","0.0-13.0-0.3-0.24","m0tctp6cv0","","m0tctp6cv0","""2024-11-13T03:53:01.375Z""","null","+","null","","","","","","",""
"","","","","","image-keyboard-response","99","190895","0.0-13.0-0.3-1.24","m0tctp6cv0","","m0tctp6cv0","""2024-11-13T03:53:01.375Z""","2105","materials/imgs/D51.png","arrowright","","[""materials/imgs/D92.png"",""materials/imgs/D80.png""]","false","random","","",""
"","","","","","html-keyboard-response","100","191403","0.0-13.0-0.3-0.25","m0tctp6cv0","","m0tctp6cv0","""2024-11-13T03:53:01.375Z""","null","+","null","","","","","","",""
"","","","","","image-keyboard-response","101","192406","0.0-13.0-0.3-1.25","m0tctp6cv0","","m0tctp6cv0","""2024-11-13T03:53:01.375Z""","1001","materials/imgs/D57.png","arrowleft","","[""materials/imgs/D16.png"",""materials/imgs/D111.png""]","false","random","","",""
"","","","","","html-keyboard-response","102","192920","0.0-13.0-0.3-0.26","m0tctp6cv0","","m0tctp6cv0","""2024-11-13T03:53:01.375Z""","null","+","null","","","","","","",""
"","","","","","image-keyboard-response","103","195109","0.0-13.0-0.3-1.26","m0tctp6cv0","","m0tctp6cv0","""2024-11-13T03:53:01.375Z""","2187","materials/imgs/D55.png","arrowright","","[""materials/imgs/D46.png"",""materials/imgs/D79.png""]","false","random","","",""
"","","","","","html-keyboard-response","104","195618","0.0-13.0-0.3-0.27","m0tctp6cv0","","m0tctp6cv0","""2024-11-13T03:53:01.375Z""","null","+","null","","","","","","",""
"","","","","","image-keyboard-response","105","197971","0.0-13.0-0.3-1.27","m0tctp6cv0","","m0tctp6cv0","""2024-11-13T03:53:01.375Z""","2352","materials/imgs/D104.png","arrowright","","[""materials/imgs/D9.png"",""materials/imgs/D102.png""]","false","random","","",""
"","","","","","html-keyboard-response","106","198486","0.0-13.0-1.3-0.3","m0tctp6cv0","","m0tctp6cv0","""2024-11-13T03:53:01.375Z""","null","+","null","","","","","","",""
"","","","","","image-keyboard-response","107","199215","0.0-13.0-1.3-1.3","m0tctp6cv0","","m0tctp6cv0","""2024-11-13T03:53:01.375Z""","728","materials/imgs/D53.png","arrowright","","[""materials/imgs/D64.png"",""materials/imgs/D53.png""]","","check","materials/imgs/D53.png","1","true"
"","","","","","html-keyboard-response","108","199720","0.0-13.0-2.3-0.6","m0tctp6cv0","","m0tctp6cv0","""2024-11-13T03:53:01.375Z""","null","+","null","","","","","","",""
"","","","","","image-keyboard-response","109","205549","0.0-13.0-2.3-1.6","m0tctp6cv0","","m0tctp6cv0","""2024-11-13T03:53:01.375Z""","5827","materials/imgs/D56.png","arrowright","","[""materials/imgs/D25.png"",""materials/imgs/D105.png""]","false","validation","","",""
"","","","","","html-keyboard-response","110","206055","0.0-13.0-2.3-0.7","m0tctp6cv0","","m0tctp6cv0","""2024-11-13T03:53:01.375Z""","null","+","null","","","","","","",""
"","","","","","image-keyboard-response","111","207029","0.0-13.0-2.3-1.7","m0tctp6cv0","","m0tctp6cv0","""2024-11-13T03:53:01.375Z""","973","materials/imgs/D101.png","arrowright","","[""materials/imgs/D76.png"",""materials/imgs/D47.png""]","false","validation","","",""
"","","","","","html-keyboard-response","112","207538","0.0-13.0-0.4-0.28","m0tctp6cv0","","m0tctp6cv0","""2024-11-13T03:53:01.375Z""","null","+","null","","","","","","",""
"","","","","","image-keyboard-response","113","208509","0.0-13.0-0.4-1.28","m0tctp6cv0","","m0tctp6cv0","""2024-11-13T03:53:01.375Z""","970","materials/imgs/D4.png","arrowright","","[""materials/imgs/D36.png"",""materials/imgs/D77.png""]","false","random","","",""
"","","","","","html-keyboard-response","114","209020","0.0-13.0-0.4-0.29","m0tctp6cv0","","m0tctp6cv0","""2024-11-13T03:53:01.375Z""","null","+","null","","","","","","",""
"","","","","","image-keyboard-response","115","210488","0.0-13.0-0.4-1.29","m0tctp6cv0","","m0tctp6cv0","""2024-11-13T03:53:01.375Z""","1463","materials/imgs/D18.png","arrowleft","","[""materials/imgs/D20.png"",""materials/imgs/D35.png""]","false","random","","",""
"","","","","","html-keyboard-response","116","211001","0.0-13.0-0.4-0.30","m0tctp6cv0","","m0tctp6cv0","""2024-11-13T03:53:01.375Z""","null","+","null","","","","","","",""
"","","","","","image-keyboard-response","117","212819","0.0-13.0-0.4-1.30","m0tctp6cv0","","m0tctp6cv0","""2024-11-13T03:53:01.375Z""","1817","materials/imgs/D19.png","arrowright","","[""materials/imgs/D21.png"",""materials/imgs/D95.png""]","false","random","","",""
"","","","","","html-keyboard-response","118","213319","0.0-13.0-0.4-0.31","m0tctp6cv0","","m0tctp6cv0","""2024-11-13T03:53:01.375Z""","null","+","null","","","","","","",""
"","","","","","image-keyboard-response","119","214478","0.0-13.0-0.4-1.31","m0tctp6cv0","","m0tctp6cv0","""2024-11-13T03:53:01.375Z""","1157","materials/imgs/D66.png","arrowright","","[""materials/imgs/D19.png"",""materials/imgs/D48.png""]","false","random","","",""
"","","","","","html-keyboard-response","120","214986","0.0-13.0-0.4-0.32","m0tctp6cv0","","m0tctp6cv0","""2024-11-13T03:53:01.375Z""","null","+","null","","","","","","",""
"","","","","","image-keyboard-response","121","216727","0.0-13.0-0.4-1.32","m0tctp6cv0","","m0tctp6cv0","""2024-11-13T03:53:01.375Z""","1740","materials/imgs/D96.png","arrowleft","","[""materials/imgs/D81.png"",""materials/imgs/D101.png""]","false","random","","",""
"","","","","","html-keyboard-response","122","217233","0.0-13.0-0.4-0.33","m0tctp6cv0","","m0tctp6cv0","""2024-11-13T03:53:01.375Z""","null","+","null","","","","","","",""
"","","","","","image-keyboard-response","123","218545","0.0-13.0-0.4-1.33","m0tctp6cv0","","m0tctp6cv0","""2024-11-13T03:53:01.375Z""","1307","materials/imgs/D84.png","arrowleft","","[""materials/imgs/D14.png"",""materials/imgs/D35.png""]","false","random","","",""
"","","","","","html-keyboard-response","124","219051","0.0-13.0-0.4-0.34","m0tctp6cv0","","m0tctp6cv0","""2024-11-13T03:53:01.375Z""","null","+","null","","","","","","",""
"","","","","","image-keyboard-response","125","222102","0.0-13.0-0.4-1.34","m0tctp6cv0","","m0tctp6cv0","""2024-11-13T03:53:01.375Z""","3050","materials/imgs/D103.png","arrowright","","[""materials/imgs/D105.png"",""materials/imgs/D1.png""]","false","random","","",""
"","","","","","html-keyboard-response","126","222603","0.0-13.0-1.4-0.4","m0tctp6cv0","","m0tctp6cv0","""2024-11-13T03:53:01.375Z""","null","+","null","","","","","","",""
"","","","","","image-keyboard-response","127","223328","0.0-13.0-1.4-1.4","m0tctp6cv0","","m0tctp6cv0","""2024-11-13T03:53:01.375Z""","723","materials/imgs/D78.png","arrowright","","[""materials/imgs/D76.png"",""materials/imgs/D78.png""]","","check","materials/imgs/D78.png","1","true"
"","","","","","html-keyboard-response","128","223837","0.0-13.0-2.4-0.8","m0tctp6cv0","","m0tctp6cv0","""2024-11-13T03:53:01.375Z""","null","+","null","","","","","","",""
"","","","","","image-keyboard-response","129","225776","0.0-13.0-2.4-1.8","m0tctp6cv0","","m0tctp6cv0","""2024-11-13T03:53:01.375Z""","1938","materials/imgs/D84.png","arrowleft","","[""materials/imgs/D106.png"",""materials/imgs/D37.png""]","false","validation","","",""
"","","","","","html-keyboard-response","130","226285","0.0-13.0-2.4-0.9","m0tctp6cv0","","m0tctp6cv0","""2024-11-13T03:53:01.375Z""","null","+","null","","","","","","",""
"","","","","","image-keyboard-response","131","226955","0.0-13.0-2.4-1.9","m0tctp6cv0","","m0tctp6cv0","""2024-11-13T03:53:01.375Z""","669","materials/imgs/D57.png","arrowright","","[""materials/imgs/D111.png"",""materials/imgs/D4.png""]","false","validation","","",""
"","","","","","html-button-response","132","229850","0.0-14.0","m0tctp6cv0","","m0tctp6cv0","""2024-11-13T03:53:01.375Z""","2894","You have completed 25% of the trials. Please click 'Continue' when you are ready proceed.","0","","","","","","",""
"","","","","","html-keyboard-response","133","230365","0.0-15.0-0.0-0.0","m0tctp6cv0","","m0tctp6cv0","""2024-11-13T03:53:01.375Z""","null","+","null","","","","","","",""
"","","","","","image-keyboard-response","134","231860","0.0-15.0-0.0-1.0","m0tctp6cv0","","m0tctp6cv0","""2024-11-13T03:53:01.375Z""","1494","materials/imgs/D21.png","arrowleft","","[""materials/imgs/D32.png"",""materials/imgs/D82.png""]","false","random","","",""
"","","","","","html-keyboard-response","135","232369","0.0-15.0-0.0-0.1","m0tctp6cv0","","m0tctp6cv0","""2024-11-13T03:53:01.375Z""","null","+","null","","","","","","",""
"","","","","","image-keyboard-response","136","233473","0.0-15.0-0.0-1.1","m0tctp6cv0","","m0tctp6cv0","""2024-11-13T03:53:01.375Z""","1101","materials/imgs/D56.png","arrowright","","[""materials/imgs/D66.png"",""materials/imgs/D49.png""]","false","random","","",""
"","","","","","html-keyboard-response","137","233985","0.0-15.0-0.0-0.2","m0tctp6cv0","","m0tctp6cv0","""2024-11-13T03:53:01.375Z""","null","+","null","","","","","","",""
"","","","","","image-keyboard-response","138","235490","0.0-15.0-0.0-1.2","m0tctp6cv0","","m0tctp6cv0","""2024-11-13T03:53:01.375Z""","1502","materials/imgs/D105.png","arrowleft","","[""materials/imgs/D95.png"",""materials/imgs/D96.png""]","false","random","","",""
"","","","","","html-keyboard-response","139","236000","0.0-15.0-0.0-0.3","m0tctp6cv0","","m0tctp6cv0","""2024-11-13T03:53:01.375Z""","null","+","null","","","","","","",""
"","","","","","image-keyboard-response","140","239285","0.0-15.0-0.0-1.3","m0tctp6cv0","","m0tctp6cv0","""2024-11-13T03:53:01.375Z""","3283","materials/imgs/D24.png","arrowright","","[""materials/imgs/D36.png"",""materials/imgs/D81.png""]","false","random","","",""
"","","","","","html-keyboard-response","141","239799","0.0-15.0-0.0-0.4","m0tctp6cv0","","m0tctp6cv0","""2024-11-13T03:53:01.375Z""","null","+","null","","","","","","",""
"","","","","","image-keyboard-response","142","241077","0.0-15.0-0.0-1.4","m0tctp6cv0","","m0tctp6cv0","""2024-11-13T03:53:01.375Z""","1277","materials/imgs/D85.png","arrowleft","","[""materials/imgs/D64.png"",""materials/imgs/D37.png""]","false","random","","",""
"","","","","","html-keyboard-response","143","241586","0.0-15.0-0.0-0.5","m0tctp6cv0","","m0tctp6cv0","""2024-11-13T03:53:01.375Z""","null","+","null","","","","","","",""
"","","","","","image-keyboard-response","144","242303","0.0-15.0-0.0-1.5","m0tctp6cv0","","m0tctp6cv0","""2024-11-13T03:53:01.375Z""","712","materials/imgs/D14.png","arrowright","","[""materials/imgs/D87.png"",""materials/imgs/D21.png""]","false","random","","",""
"","","","","","html-keyboard-response","145","242819","0.0-15.0-0.0-0.6","m0tctp6cv0","","m0tctp6cv0","""2024-11-13T03:53:01.375Z""","null","+","null","","","","","","",""
"","","","","","image-keyboard-response","146","243451","0.0-15.0-0.0-1.6","m0tctp6cv0","","m0tctp6cv0","""2024-11-13T03:53:01.375Z""","630","materials/imgs/D56.png","arrowleft","","[""materials/imgs/D64.png"",""materials/imgs/D84.png""]","false","random","","",""
"","","","","","html-keyboard-response","147","243953","0.0-15.0-1.0-0.0","m0tctp6cv0","","m0tctp6cv0","""2024-11-13T03:53:01.375Z""","null","+","null","","","","","","",""
"","","","","","image-keyboard-response","148","244514","0.0-15.0-1.0-1.0","m0tctp6cv0","","m0tctp6cv0","""2024-11-13T03:53:01.375Z""","558","materials/imgs/D26.png","arrowleft","","[""materials/imgs/D26.png"",""materials/imgs/D46.png""]","","check","materials/imgs/D26.png","0","true"
"","","","","","html-keyboard-response","149","245020","0.0-15.0-2.0-0.0","m0tctp6cv0","","m0tctp6cv0","""2024-11-13T03:53:01.375Z""","null","+","null","","","","","","",""
"","","","","","image-keyboard-response","150","245767","0.0-15.0-2.0-1.0","m0tctp6cv0","","m0tctp6cv0","""2024-11-13T03:53:01.375Z""","746","materials/imgs/D102.png","arrowright","","[""materials/imgs/D32.png"",""materials/imgs/D111.png""]","false","validation","","",""
"","","","","","html-keyboard-response","151","246268","0.0-15.0-2.0-0.1","m0tctp6cv0","","m0tctp6cv0","""2024-11-13T03:53:01.375Z""","null","+","null","","","","","","",""
"","","","","","image-keyboard-response","152","247635","0.0-15.0-2.0-1.1","m0tctp6cv0","","m0tctp6cv0","""2024-11-13T03:53:01.375Z""","1363","materials/imgs/D26.png","arrowleft","","[""materials/imgs/D36.png"",""materials/imgs/D92.png""]","false","validation","","",""
"","","","","","html-keyboard-response","153","248138","0.0-15.0-0.1-0.7","m0tctp6cv0","","m0tctp6cv0","""2024-11-13T03:53:01.375Z""","null","+","null","","","","","","",""
"","","","","","image-keyboard-response","154","249690","0.0-15.0-0.1-1.7","m0tctp6cv0","","m0tctp6cv0","""2024-11-13T03:53:01.375Z""","1550","materials/imgs/D51.png","arrowleft","","[""materials/imgs/D103.png"",""materials/imgs/D65.png""]","false","random","","",""
"","","","","","html-keyboard-response","155","250202","0.0-15.0-0.1-0.8","m0tctp6cv0","","m0tctp6cv0","""2024-11-13T03:53:01.375Z""","null","+","null","","","","","","",""
"","","","","","image-keyboard-response","156","251940","0.0-15.0-0.1-1.8","m0tctp6cv0","","m0tctp6cv0","""2024-11-13T03:53:01.375Z""","1737","materials/imgs/D47.png","arrowleft","","[""materials/imgs/D92.png"",""materials/imgs/D96.png""]","false","random","","",""
"","","","","","html-keyboard-response","157","252451","0.0-15.0-0.1-0.9","m0tctp6cv0","","m0tctp6cv0","""2024-11-13T03:53:01.375Z""","null","+","null","","","","","","",""
"","","","","","image-keyboard-response","158","253310","0.0-15.0-0.1-1.9","m0tctp6cv0","","m0tctp6cv0","""2024-11-13T03:53:01.375Z""","857","materials/imgs/D76.png","arrowright","","[""materials/imgs/D102.png"",""materials/imgs/D82.png""]","false","random","","",""
"","","","","","html-keyboard-response","159","253819","0.0-15.0-0.1-0.10","m0tctp6cv0","","m0tctp6cv0","""2024-11-13T03:53:01.375Z""","null","+","null","","","","","","",""
"","","","","","image-keyboard-response","160","254779","0.0-15.0-0.1-1.10","m0tctp6cv0","","m0tctp6cv0","""2024-11-13T03:53:01.375Z""","959","materials/imgs/D1.png","arrowright","","[""materials/imgs/D16.png"",""materials/imgs/D102.png""]","false","random","","",""
"","","","","","html-keyboard-response","161","255283","0.0-15.0-0.1-0.11","m0tctp6cv0","","m0tctp6cv0","""2024-11-13T03:53:01.375Z""","null","+","null","","","","","","",""
"","","","","","image-keyboard-response","162","256481","0.0-15.0-0.1-1.11","m0tctp6cv0","","m0tctp6cv0","""2024-11-13T03:53:01.375Z""","1197","materials/imgs/D11.png","arrowright","","[""materials/imgs/D34.png"",""materials/imgs/D65.png""]","false","random","","",""
"","","","","","html-keyboard-response","163","256983","0.0-15.0-0.1-0.12","m0tctp6cv0","","m0tctp6cv0","""2024-11-13T03:53:01.375Z""","null","+","null","","","","","","",""
"","","","","","image-keyboard-response","164","259536","0.0-15.0-0.1-1.12","m0tctp6cv0","","m0tctp6cv0","""2024-11-13T03:53:01.375Z""","2550","materials/imgs/D19.png","arrowright","","[""materials/imgs/D35.png"",""materials/imgs/D22.png""]","false","random","","",""
"","","","","","html-keyboard-response","165","260036","0.0-15.0-0.1-0.13","m0tctp6cv0","","m0tctp6cv0","""2024-11-13T03:53:01.375Z""","null","+","null","","","","","","",""
"","","","","","image-keyboard-response","166","261694","0.0-15.0-0.1-1.13","m0tctp6cv0","","m0tctp6cv0","""2024-11-13T03:53:01.375Z""","1656","materials/imgs/D106.png","arrowleft","","[""materials/imgs/D34.png"",""materials/imgs/D75.png""]","false","random","","",""
"","","","","","html-keyboard-response","167","262201","0.0-15.0-1.1-0.1","m0tctp6cv0","","m0tctp6cv0","""2024-11-13T03:53:01.375Z""","null","+","null","","","","","","",""
"","","","","","image-keyboard-response","168","262919","0.0-15.0-1.1-1.1","m0tctp6cv0","","m0tctp6cv0","""2024-11-13T03:53:01.375Z""","714","materials/imgs/D18.png","arrowright","","[""materials/imgs/D8.png"",""materials/imgs/D18.png""]","","check","materials/imgs/D18.png","1","true"
"","","","","","html-keyboard-response","169","263435","0.0-15.0-2.1-0.2","m0tctp6cv0","","m0tctp6cv0","""2024-11-13T03:53:01.375Z""","null","+","null","","","","","","",""
"","","","","","image-keyboard-response","170","264685","0.0-15.0-2.1-1.2","m0tctp6cv0","","m0tctp6cv0","""2024-11-13T03:53:01.375Z""","1250","materials/imgs/D1.png","arrowright","","[""materials/imgs/D57.png"",""materials/imgs/D76.png""]","false","validation","","",""
"","","","","","html-keyboard-response","171","265198","0.0-15.0-2.1-0.3","m0tctp6cv0","","m0tctp6cv0","""2024-11-13T03:53:01.375Z""","null","+","null","","","","","","",""
"","","","","","image-keyboard-response","172","266410","0.0-15.0-2.1-1.3","m0tctp6cv0","","m0tctp6cv0","""2024-11-13T03:53:01.375Z""","1210","materials/imgs/D85.png","arrowleft","","[""materials/imgs/D6.png"",""materials/imgs/D111.png""]","false","validation","","",""
"","","","","","html-keyboard-response","173","266917","0.0-15.0-0.2-0.14","m0tctp6cv0","","m0tctp6cv0","""2024-11-13T03:53:01.375Z""","null","+","null","","","","","","",""
"","","","","","image-keyboard-response","174","267838","0.0-15.0-0.2-1.14","m0tctp6cv0","","m0tctp6cv0","""2024-11-13T03:53:01.375Z""","919","materials/imgs/D21.png","arrowleft","","[""materials/imgs/D53.png"",""materials/imgs/D17.png""]","false","random","","",""
"","","","","","html-keyboard-response","175","268349","0.0-15.0-0.2-0.15","m0tctp6cv0","","m0tctp6cv0","""2024-11-13T03:53:01.375Z""","null","+","null","","","","","","",""
"","","","","","image-keyboard-response","176","270284","0.0-15.0-0.2-1.15","m0tctp6cv0","","m0tctp6cv0","""2024-11-13T03:53:01.375Z""","1933","materials/imgs/D24.png","arrowright","","[""materials/imgs/D102.png"",""materials/imgs/D20.png""]","false","random","","",""
"","","","","","html-keyboard-response","177","270800","0.0-15.0-0.2-0.16","m0tctp6cv0","","m0tctp6cv0","""2024-11-13T03:53:01.375Z""","null","+","null","","","","","","",""
"","","","","","image-keyboard-response","178","271729","0.0-15.0-0.2-1.16","m0tctp6cv0","","m0tctp6cv0","""2024-11-13T03:53:01.375Z""","927","materials/imgs/D78.png","arrowright","","[""materials/imgs/D34.png"",""materials/imgs/D65.png""]","false","random","","",""
"","","","","","html-keyboard-response","179","272235","0.0-15.0-0.2-0.17","m0tctp6cv0","","m0tctp6cv0","""2024-11-13T03:53:01.375Z""","null","+","null","","","","","","",""
"","","","","","image-keyboard-response","180","273090","0.0-15.0-0.2-1.17","m0tctp6cv0","","m0tctp6cv0","""2024-11-13T03:53:01.375Z""","851","materials/imgs/D84.png","arrowright","","[""materials/imgs/D102.png"",""materials/imgs/D80.png""]","false","random","","",""
"","","","","","html-keyboard-response","181","273600","0.0-15.0-0.2-0.18","m0tctp6cv0","","m0tctp6cv0","""2024-11-13T03:53:01.375Z""","null","+","null","","","","","","",""
"","","","","","image-keyboard-response","182","275002","0.0-15.0-0.2-1.18","m0tctp6cv0","","m0tctp6cv0","""2024-11-13T03:53:01.375Z""","1401","materials/imgs/D102.png","arrowleft","","[""materials/imgs/D92.png"",""materials/imgs/D81.png""]","false","random","","",""
"","","","","","html-keyboard-response","183","275517","0.0-15.0-0.2-0.19","m0tctp6cv0","","m0tctp6cv0","""2024-11-13T03:53:01.375Z""","null","+","null","","","","","","",""
"","","","","","image-keyboard-response","184","276638","0.0-15.0-0.2-1.19","m0tctp6cv0","","m0tctp6cv0","""2024-11-13T03:53:01.375Z""","1120","materials/imgs/D19.png","arrowright","","[""materials/imgs/D52.png"",""materials/imgs/D68.png""]","false","random","","",""
"","","","","","html-keyboard-response","185","277152","0.0-15.0-0.2-0.20","m0tctp6cv0","","m0tctp6cv0","""2024-11-13T03:53:01.375Z""","null","+","null","","","","","","",""
"","","","","","image-keyboard-response","186","278094","0.0-15.0-0.2-1.20","m0tctp6cv0","","m0tctp6cv0","""2024-11-13T03:53:01.375Z""","941","materials/imgs/D8.png","arrowleft","","[""materials/imgs/D56.png"",""materials/imgs/D77.png""]","false","random","","",""
"","","","","","html-keyboard-response","187","278602","0.0-15.0-1.2-0.2","m0tctp6cv0","","m0tctp6cv0","""2024-11-13T03:53:01.375Z""","null","+","null","","","","","","",""
"","","","","","image-keyboard-response","188","279427","0.0-15.0-1.2-1.2","m0tctp6cv0","","m0tctp6cv0","""2024-11-13T03:53:01.375Z""","824","materials/imgs/D18.png","arrowright","","[""materials/imgs/D8.png"",""materials/imgs/D18.png""]","","check","materials/imgs/D18.png","1","true"
"","","","","","html-keyboard-response","189","279936","0.0-15.0-2.2-0.4","m0tctp6cv0","","m0tctp6cv0","""2024-11-13T03:53:01.375Z""","null","+","null","","","","","","",""
"","","","","","image-keyboard-response","190","281162","0.0-15.0-2.2-1.4","m0tctp6cv0","","m0tctp6cv0","""2024-11-13T03:53:01.375Z""","1225","materials/imgs/D66.png","arrowleft","","[""materials/imgs/D85.png"",""materials/imgs/D25.png""]","false","validation","","",""
"","","","","","html-keyboard-response","191","281666","0.0-15.0-2.2-0.5","m0tctp6cv0","","m0tctp6cv0","""2024-11-13T03:53:01.375Z""","null","+","null","","","","","","",""
"","","","","","image-keyboard-response","192","283590","0.0-15.0-2.2-1.5","m0tctp6cv0","","m0tctp6cv0","""2024-11-13T03:53:01.375Z""","1922","materials/imgs/D64.png","arrowleft","","[""materials/imgs/D6.png"",""materials/imgs/D81.png""]","false","validation","","",""
"","","","","","html-keyboard-response","193","284101","0.0-15.0-0.3-0.21","m0tctp6cv0","","m0tctp6cv0","""2024-11-13T03:53:01.375Z""","null","+","null","","","","","","",""
"","","","","","image-keyboard-response","194","285343","0.0-15.0-0.3-1.21","m0tctp6cv0","","m0tctp6cv0","""2024-11-13T03:53:01.375Z""","1242","materials/imgs/D37.png","arrowright","","[""materials/imgs/D65.png"",""materials/imgs/D55.png""]","false","random","","",""
"","","","","","html-keyboard-response","195","285851","0.0-15.0-0.3-0.22","m0tctp6cv0","","m0tctp6cv0","""2024-11-13T03:53:01.375Z""","null","+","null","","","","","","",""
"","","","","","image-keyboard-response","196","287063","0.0-15.0-0.3-1.22","m0tctp6cv0","","m0tctp6cv0","""2024-11-13T03:53:01.375Z""","1210","materials/imgs/D11.png","arrowleft","","[""materials/imgs/D53.png"",""materials/imgs/D6.png""]","false","random","","",""
"","","","","","html-keyboard-response","197","287567","0.0-15.0-0.3-0.23","m0tctp6cv0","","m0tctp6cv0","""2024-11-13T03:53:01.375Z""","null","+","null","","","","","","",""
"","","","","","image-keyboard-response","198","288703","0.0-15.0-0.3-1.23","m0tctp6cv0","","m0tctp6cv0","""2024-11-13T03:53:01.375Z""","1133","materials/imgs/D52.png","arrowleft","","[""materials/imgs/D55.png"",""materials/imgs/D16.png""]","false","random","","",""
"","","","","","html-keyboard-response","199","289216","0.0-15.0-0.3-0.24","m0tctp6cv0","","m0tctp6cv0","""2024-11-13T03:53:01.375Z""","null","+","null","","","","","","",""
"","","","","","image-keyboard-response","200","290675","0.0-15.0-0.3-1.24","m0tctp6cv0","","m0tctp6cv0","""2024-11-13T03:53:01.375Z""","1455","materials/imgs/D51.png","arrowleft","","[""materials/imgs/D104.png"",""materials/imgs/D56.png""]","false","random","","",""
"","","","","","html-keyboard-response","201","291183","0.0-15.0-0.3-0.25","m0tctp6cv0","","m0tctp6cv0","""2024-11-13T03:53:01.375Z""","null","+","null","","","","","","",""
"","","","","","image-keyboard-response","202","292703","0.0-15.0-0.3-1.25","m0tctp6cv0","","m0tctp6cv0","""2024-11-13T03:53:01.375Z""","1519","materials/imgs/D106.png","arrowright","","[""materials/imgs/D11.png"",""materials/imgs/D21.png""]","false","random","","",""
"","","","","","html-keyboard-response","203","293215","0.0-15.0-0.3-0.26","m0tctp6cv0","","m0tctp6cv0","""2024-11-13T03:53:01.375Z""","null","+","null","","","","","","",""
"","","","","","image-keyboard-response","204","295005","0.0-15.0-0.3-1.26","m0tctp6cv0","","m0tctp6cv0","""2024-11-13T03:53:01.375Z""","1787","materials/imgs/D9.png","arrowleft","","[""materials/imgs/D76.png"",""materials/imgs/D55.png""]","false","random","","",""
"","","","","","html-keyboard-response","205","295515","0.0-15.0-0.3-0.27","m0tctp6cv0","","m0tctp6cv0","""2024-11-13T03:53:01.375Z""","null","+","null","","","","","","",""
"","","","","","image-keyboard-response","206","323291","0.0-15.0-0.3-1.27","m0tctp6cv0","","m0tctp6cv0","""2024-11-13T03:53:01.375Z""","27782","materials/imgs/D80.png","arrowright","","[""materials/imgs/D75.png"",""materials/imgs/D105.png""]","false","random","","",""
"","","","","","html-keyboard-response","207","323807","0.0-15.0-1.3-0.3","m0tctp6cv0","","m0tctp6cv0","""2024-11-13T03:53:01.375Z""","null","+","null","","","","","","",""
"","","","","","image-keyboard-response","208","324485","0.0-15.0-1.3-1.3","m0tctp6cv0","","m0tctp6cv0","""2024-11-13T03:53:01.375Z""","677","materials/imgs/D53.png","arrowright","","[""materials/imgs/D64.png"",""materials/imgs/D53.png""]","","check","materials/imgs/D53.png","1","true"
"","","","","","html-keyboard-response","209","324989","0.0-15.0-2.3-0.6","m0tctp6cv0","","m0tctp6cv0","""2024-11-13T03:53:01.375Z""","null","+","null","","","","","","",""
"","","","","","image-keyboard-response","210","325919","0.0-15.0-2.3-1.6","m0tctp6cv0","","m0tctp6cv0","""2024-11-13T03:53:01.375Z""","928","materials/imgs/D96.png","arrowright","","[""materials/imgs/D46.png"",""materials/imgs/D18.png""]","false","validation","","",""
"","","","","","html-keyboard-response","211","326424","0.0-15.0-2.3-0.7","m0tctp6cv0","","m0tctp6cv0","""2024-11-13T03:53:01.375Z""","null","+","null","","","","","","",""
"","","","","","image-keyboard-response","212","327600","0.0-15.0-2.3-1.7","m0tctp6cv0","","m0tctp6cv0","""2024-11-13T03:53:01.375Z""","1175","materials/imgs/D81.png","arrowright","","[""materials/imgs/D105.png"",""materials/imgs/D24.png""]","false","validation","","",""
"","","","","","html-keyboard-response","213","328107","0.0-15.0-0.4-0.28","m0tctp6cv0","","m0tctp6cv0","""2024-11-13T03:53:01.375Z""","null","+","null","","","","","","",""
"","","","","","image-keyboard-response","214","329627","0.0-15.0-0.4-1.28","m0tctp6cv0","","m0tctp6cv0","""2024-11-13T03:53:01.375Z""","1519","materials/imgs/D95.png","arrowright","","[""materials/imgs/D17.png"",""materials/imgs/D24.png""]","false","random","","",""
"","","","","","html-keyboard-response","215","330140","0.0-15.0-0.4-0.29","m0tctp6cv0","","m0tctp6cv0","""2024-11-13T03:53:01.375Z""","null","+","null","","","","","","",""
"","","","","","image-keyboard-response","216","331564","0.0-15.0-0.4-1.29","m0tctp6cv0","","m0tctp6cv0","""2024-11-13T03:53:01.375Z""","1423","materials/imgs/D94.png","arrowleft","","[""materials/imgs/D75.png"",""materials/imgs/D66.png""]","false","random","","",""
"","","","","","html-keyboard-response","217","332073","0.0-15.0-0.4-0.30","m0tctp6cv0","","m0tctp6cv0","""2024-11-13T03:53:01.375Z""","null","+","null","","","","","","",""
"","","","","","image-keyboard-response","218","332886","0.0-15.0-0.4-1.30","m0tctp6cv0","","m0tctp6cv0","""2024-11-13T03:53:01.375Z""","811","materials/imgs/D32.png","arrowleft","","[""materials/imgs/D57.png"",""materials/imgs/D103.png""]","false","random","","",""
"","","","","","html-keyboard-response","219","333390","0.0-15.0-0.4-0.31","m0tctp6cv0","","m0tctp6cv0","""2024-11-13T03:53:01.375Z""","null","+","null","","","","","","",""
"","","","","","image-keyboard-response","220","334709","0.0-15.0-0.4-1.31","m0tctp6cv0","","m0tctp6cv0","""2024-11-13T03:53:01.375Z""","1316","materials/imgs/D94.png","arrowright","","[""materials/imgs/D48.png"",""materials/imgs/D32.png""]","false","random","","",""
"","","","","","html-keyboard-response","221","335223","0.0-15.0-0.4-0.32","m0tctp6cv0","","m0tctp6cv0","""2024-11-13T03:53:01.375Z""","null","+","null","","","","","","",""
"","","","","","image-keyboard-response","222","336558","0.0-15.0-0.4-1.32","m0tctp6cv0","","m0tctp6cv0","""2024-11-13T03:53:01.375Z""","1334","materials/imgs/D1.png","arrowright","","[""materials/imgs/D87.png"",""materials/imgs/D24.png""]","false","random","","",""
"","","","","","html-keyboard-response","223","337059","0.0-15.0-0.4-0.33","m0tctp6cv0","","m0tctp6cv0","""2024-11-13T03:53:01.375Z""","null","+","null","","","","","","",""
"","","","","","image-keyboard-response","224","337874","0.0-15.0-0.4-1.33","m0tctp6cv0","","m0tctp6cv0","""2024-11-13T03:53:01.375Z""","813","materials/imgs/D92.png","arrowleft","","[""materials/imgs/D84.png"",""materials/imgs/D3.png""]","false","random","","",""
"","","","","","html-keyboard-response","225","338388","0.0-15.0-0.4-0.34","m0tctp6cv0","","m0tctp6cv0","""2024-11-13T03:53:01.375Z""","null","+","null","","","","","","",""
"","","","","","image-keyboard-response","226","339949","0.0-15.0-0.4-1.34","m0tctp6cv0","","m0tctp6cv0","""2024-11-13T03:53:01.375Z""","1559","materials/imgs/D64.png","arrowleft","","[""materials/imgs/D102.png"",""materials/imgs/D87.png""]","false","random","","",""
"","","","","","html-keyboard-response","227","340456","0.0-15.0-1.4-0.4","m0tctp6cv0","","m0tctp6cv0","""2024-11-13T03:53:01.375Z""","null","+","null","","","","","","",""
"","","","","","image-keyboard-response","228","341086","0.0-15.0-1.4-1.4","m0tctp6cv0","","m0tctp6cv0","""2024-11-13T03:53:01.375Z""","630","materials/imgs/D106.png","arrowleft","","[""materials/imgs/D106.png"",""materials/imgs/D101.png""]","","check","materials/imgs/D106.png","0","true"
"","","","","","html-keyboard-response","229","341590","0.0-15.0-2.4-0.8","m0tctp6cv0","","m0tctp6cv0","""2024-11-13T03:53:01.375Z""","null","+","null","","","","","","",""
"","","","","","image-keyboard-response","230","342843","0.0-15.0-2.4-1.8","m0tctp6cv0","","m0tctp6cv0","""2024-11-13T03:53:01.375Z""","1251","materials/imgs/D51.png","arrowleft","","[""materials/imgs/D92.png"",""materials/imgs/D20.png""]","false","validation","","",""
"","","","","","html-keyboard-response","231","343354","0.0-15.0-2.4-0.9","m0tctp6cv0","","m0tctp6cv0","""2024-11-13T03:53:01.375Z""","null","+","null","","","","","","",""
"","","","","","image-keyboard-response","232","344585","0.0-15.0-2.4-1.9","m0tctp6cv0","","m0tctp6cv0","""2024-11-13T03:53:01.375Z""","1230","materials/imgs/D16.png","arrowleft","","[""materials/imgs/D52.png"",""materials/imgs/D25.png""]","false","validation","","",""
"","","","","","html-button-response","233","346848","0.0-16.0","m0tctp6cv0","","m0tctp6cv0","""2024-11-13T03:53:01.375Z""","2261","You have completed 50% of the trials. Please click 'Continue' when you are ready proceed.","0","","","","","","",""
"","","","","","html-keyboard-response","234","347354","0.0-17.0-0.0-0.0","m0tctp6cv0","","m0tctp6cv0","""2024-11-13T03:53:01.375Z""","null","+","null","","","","","","",""
"","","","","","image-keyboard-response","235","349079","0.0-17.0-0.0-1.0","m0tctp6cv0","","m0tctp6cv0","""2024-11-13T03:53:01.375Z""","1721","materials/imgs/D4.png","arrowleft","","[""materials/imgs/D21.png"",""materials/imgs/D17.png""]","false","random","","",""
"","","","","","html-keyboard-response","236","349590","0.0-17.0-0.0-0.1","m0tctp6cv0","","m0tctp6cv0","""2024-11-13T03:53:01.375Z""","null","+","null","","","","","","",""
"","","","","","image-keyboard-response","237","351442","0.0-17.0-0.0-1.1","m0tctp6cv0","","m0tctp6cv0","""2024-11-13T03:53:01.375Z""","1849","materials/imgs/D81.png","arrowright","","[""materials/imgs/D17.png"",""materials/imgs/D55.png""]","false","random","","",""
"","","","","","html-keyboard-response","238","351943","0.0-17.0-0.0-0.2","m0tctp6cv0","","m0tctp6cv0","""2024-11-13T03:53:01.375Z""","null","+","null","","","","","","",""
"","","","","","image-keyboard-response","239","353914","0.0-17.0-0.0-1.2","m0tctp6cv0","","m0tctp6cv0","""2024-11-13T03:53:01.375Z""","1969","materials/imgs/D80.png","arrowright","","[""materials/imgs/D36.png"",""materials/imgs/D20.png""]","false","random","","",""
"","","","","","html-keyboard-response","240","354421","0.0-17.0-0.0-0.3","m0tctp6cv0","","m0tctp6cv0","""2024-11-13T03:53:01.375Z""","null","+","null","","","","","","",""
"","","","","","image-keyboard-response","241","358397","0.0-17.0-0.0-1.3","m0tctp6cv0","","m0tctp6cv0","""2024-11-13T03:53:01.375Z""","3973","materials/imgs/D16.png","arrowleft","","[""materials/imgs/D51.png"",""materials/imgs/D66.png""]","false","random","","",""
"","","","","","html-keyboard-response","242","358904","0.0-17.0-0.0-0.4","m0tctp6cv0","","m0tctp6cv0","""2024-11-13T03:53:01.375Z""","null","+","null","","","","","","",""
"","","","","","image-keyboard-response","243","360387","0.0-17.0-0.0-1.4","m0tctp6cv0","","m0tctp6cv0","""2024-11-13T03:53:01.375Z""","1481","materials/imgs/D102.png","arrowleft","","[""materials/imgs/D79.png"",""materials/imgs/D65.png""]","false","random","","",""
"","","","","","html-keyboard-response","244","360888","0.0-17.0-0.0-0.5","m0tctp6cv0","","m0tctp6cv0","""2024-11-13T03:53:01.375Z""","null","+","null","","","","","","",""
"","","","","","image-keyboard-response","245","362178","0.0-17.0-0.0-1.5","m0tctp6cv0","","m0tctp6cv0","""2024-11-13T03:53:01.375Z""","1288","materials/imgs/D26.png","arrowright","","[""materials/imgs/D65.png"",""materials/imgs/D111.png""]","false","random","","",""
"","","","","","html-keyboard-response","246","362690","0.0-17.0-0.0-0.6","m0tctp6cv0","","m0tctp6cv0","""2024-11-13T03:53:01.375Z""","null","+","null","","","","","","",""
"","","","","","image-keyboard-response","247","364239","0.0-17.0-0.0-1.6","m0tctp6cv0","","m0tctp6cv0","""2024-11-13T03:53:01.375Z""","1546","materials/imgs/D36.png","arrowright","","[""materials/imgs/D92.png"",""materials/imgs/D111.png""]","false","random","","",""
"","","","","","html-keyboard-response","248","364753","0.0-17.0-1.0-0.0","m0tctp6cv0","","m0tctp6cv0","""2024-11-13T03:53:01.375Z""","null","+","null","","","","","","",""
"","","","","","image-keyboard-response","249","365476","0.0-17.0-1.0-1.0","m0tctp6cv0","","m0tctp6cv0","""2024-11-13T03:53:01.375Z""","722","materials/imgs/D78.png","arrowright","","[""materials/imgs/D76.png"",""materials/imgs/D78.png""]","","check","materials/imgs/D78.png","1","true"
"","","","","","html-keyboard-response","250","365988","0.0-17.0-2.0-0.0","m0tctp6cv0","","m0tctp6cv0","""2024-11-13T03:53:01.375Z""","null","+","null","","","","","","",""
"","","","","","image-keyboard-response","251","367868","0.0-17.0-2.0-1.0","m0tctp6cv0","","m0tctp6cv0","""2024-11-13T03:53:01.375Z""","1878","materials/imgs/D20.png","arrowleft","","[""materials/imgs/D84.png"",""materials/imgs/D85.png""]","false","validation","","",""
"","","","","","html-keyboard-response","252","368371","0.0-17.0-2.0-0.1","m0tctp6cv0","","m0tctp6cv0","""2024-11-13T03:53:01.375Z""","null","+","null","","","","","","",""
"","","","","","image-keyboard-response","253","369096","0.0-17.0-2.0-1.1","m0tctp6cv0","","m0tctp6cv0","""2024-11-13T03:53:01.375Z""","723","materials/imgs/D57.png","arrowright","","[""materials/imgs/D111.png"",""materials/imgs/D4.png""]","false","validation","","",""
"","","","","","html-keyboard-response","254","369605","0.0-17.0-0.1-0.7","m0tctp6cv0","","m0tctp6cv0","""2024-11-13T03:53:01.375Z""","null","+","null","","","","","","",""
"","","","","","image-keyboard-response","255","371107","0.0-17.0-0.1-1.7","m0tctp6cv0","","m0tctp6cv0","""2024-11-13T03:53:01.375Z""","1500","materials/imgs/D35.png","arrowright","","[""materials/imgs/D4.png"",""materials/imgs/D6.png""]","false","random","","",""
"","","","","","html-keyboard-response","256","371620","0.0-17.0-0.1-0.8","m0tctp6cv0","","m0tctp6cv0","""2024-11-13T03:53:01.375Z""","null","+","null","","","","","","",""
"","","","","","image-keyboard-response","257","373212","0.0-17.0-0.1-1.8","m0tctp6cv0","","m0tctp6cv0","""2024-11-13T03:53:01.375Z""","1589","materials/imgs/D77.png","arrowleft","","[""materials/imgs/D83.png"",""materials/imgs/D32.png""]","false","random","","",""
"","","","","","html-keyboard-response","258","373722","0.0-17.0-0.1-0.9","m0tctp6cv0","","m0tctp6cv0","""2024-11-13T03:53:01.375Z""","null","+","null","","","","","","",""
"","","","","","image-keyboard-response","259","374692","0.0-17.0-0.1-1.9","m0tctp6cv0","","m0tctp6cv0","""2024-11-13T03:53:01.375Z""","963","materials/imgs/D103.png","arrowright","","[""materials/imgs/D102.png"",""materials/imgs/D9.png""]","false","random","","",""
"","","","","","html-keyboard-response","260","375203","0.0-17.0-0.1-0.10","m0tctp6cv0","","m0tctp6cv0","""2024-11-13T03:53:01.375Z""","null","+","null","","","","","","",""
"","","","","","image-keyboard-response","261","377340","0.0-17.0-0.1-1.10","m0tctp6cv0","","m0tctp6cv0","""2024-11-13T03:53:01.375Z""","2135","materials/imgs/D55.png","arrowleft","","[""materials/imgs/D105.png"",""materials/imgs/D8.png""]","false","random","","",""
"","","","","","html-keyboard-response","262","377852","0.0-17.0-0.1-0.11","m0tctp6cv0","","m0tctp6cv0","""2024-11-13T03:53:01.375Z""","null","+","null","","","","","","",""
"","","","","","image-keyboard-response","263","378977","0.0-17.0-0.1-1.11","m0tctp6cv0","","m0tctp6cv0","""2024-11-13T03:53:01.375Z""","1123","materials/imgs/D84.png","arrowleft","","[""materials/imgs/D78.png"",""materials/imgs/D102.png""]","false","random","","",""
"","","","","","html-keyboard-response","264","379488","0.0-17.0-0.1-0.12","m0tctp6cv0","","m0tctp6cv0","""2024-11-13T03:53:01.375Z""","null","+","null","","","","","","",""
"","","","","","image-keyboard-response","265","380827","0.0-17.0-0.1-1.12","m0tctp6cv0","","m0tctp6cv0","""2024-11-13T03:53:01.375Z""","1337","materials/imgs/D77.png","arrowleft","","[""materials/imgs/D34.png"",""materials/imgs/D82.png""]","false","random","","",""
"","","","","","html-keyboard-response","266","381338","0.0-17.0-0.1-0.13","m0tctp6cv0","","m0tctp6cv0","""2024-11-13T03:53:01.375Z""","null","+","null","","","","","","",""
"","","","","","image-keyboard-response","267","382771","0.0-17.0-0.1-1.13","m0tctp6cv0","","m0tctp6cv0","""2024-11-13T03:53:01.375Z""","1432","materials/imgs/D102.png","arrowright","","[""materials/imgs/D52.png"",""materials/imgs/D35.png""]","false","random","","",""
"","","","","","html-keyboard-response","268","383287","0.0-17.0-1.1-0.1","m0tctp6cv0","","m0tctp6cv0","""2024-11-13T03:53:01.375Z""","null","+","null","","","","","","",""
"","","","","","image-keyboard-response","269","383878","0.0-17.0-1.1-1.1","m0tctp6cv0","","m0tctp6cv0","""2024-11-13T03:53:01.375Z""","581","materials/imgs/D26.png","arrowleft","","[""materials/imgs/D26.png"",""materials/imgs/D46.png""]","","check","materials/imgs/D26.png","0","true"
"","","","","","html-keyboard-response","270","384379","0.0-17.0-2.1-0.2","m0tctp6cv0","","m0tctp6cv0","""2024-11-13T03:53:01.375Z""","null","+","null","","","","","","",""
"","","","","","image-keyboard-response","271","386531","0.0-17.0-2.1-1.2","m0tctp6cv0","","m0tctp6cv0","""2024-11-13T03:53:01.375Z""","2151","materials/imgs/D49.png","arrowright","","[""materials/imgs/D8.png"",""materials/imgs/D101.png""]","false","validation","","",""
"","","","","","html-keyboard-response","272","387044","0.0-17.0-2.1-0.3","m0tctp6cv0","","m0tctp6cv0","""2024-11-13T03:53:01.375Z""","null","+","null","","","","","","",""
"","","","","","image-keyboard-response","273","388485","0.0-17.0-2.1-1.3","m0tctp6cv0","","m0tctp6cv0","""2024-11-13T03:53:01.375Z""","1439","materials/imgs/D68.png","arrowleft","","[""materials/imgs/D96.png"",""materials/imgs/D48.png""]","false","validation","","",""
"","","","","","html-keyboard-response","274","388995","0.0-17.0-0.2-0.14","m0tctp6cv0","","m0tctp6cv0","""2024-11-13T03:53:01.375Z""","null","+","null","","","","","","",""
"","","","","","image-keyboard-response","275","390402","0.0-17.0-0.2-1.14","m0tctp6cv0","","m0tctp6cv0","""2024-11-13T03:53:01.375Z""","1406","materials/imgs/D96.png","arrowright","","[""materials/imgs/D83.png"",""materials/imgs/D35.png""]","false","random","","",""
"","","","","","html-keyboard-response","276","390911","0.0-17.0-0.2-0.15","m0tctp6cv0","","m0tctp6cv0","""2024-11-13T03:53:01.375Z""","null","+","null","","","","","","",""
"","","","","","image-keyboard-response","277","392448","0.0-17.0-0.2-1.15","m0tctp6cv0","","m0tctp6cv0","""2024-11-13T03:53:01.375Z""","1535","materials/imgs/D96.png","arrowleft","","[""materials/imgs/D52.png"",""materials/imgs/D17.png""]","false","random","","",""
"","","","","","html-keyboard-response","278","392959","0.0-17.0-0.2-0.16","m0tctp6cv0","","m0tctp6cv0","""2024-11-13T03:53:01.375Z""","null","+","null","","","","","","",""
"","","","","","image-keyboard-response","279","394167","0.0-17.0-0.2-1.16","m0tctp6cv0","","m0tctp6cv0","""2024-11-13T03:53:01.375Z""","1207","materials/imgs/D92.png","arrowright","","[""materials/imgs/D106.png"",""materials/imgs/D3.png""]","false","random","","",""
"","","","","","html-keyboard-response","280","394678","0.0-17.0-0.2-0.17","m0tctp6cv0","","m0tctp6cv0","""2024-11-13T03:53:01.375Z""","null","+","null","","","","","","",""
"","","","","","image-keyboard-response","281","397455","0.0-17.0-0.2-1.17","m0tctp6cv0","","m0tctp6cv0","""2024-11-13T03:53:01.375Z""","2774","materials/imgs/D25.png","arrowright","","[""materials/imgs/D20.png"",""materials/imgs/D56.png""]","false","random","","",""
"","","","","","html-keyboard-response","282","397959","0.0-17.0-0.2-0.18","m0tctp6cv0","","m0tctp6cv0","""2024-11-13T03:53:01.375Z""","null","+","null","","","","","","",""
"","","","","","image-keyboard-response","283","399295","0.0-17.0-0.2-1.18","m0tctp6cv0","","m0tctp6cv0","""2024-11-13T03:53:01.375Z""","1335","materials/imgs/D55.png","arrowleft","","[""materials/imgs/D17.png"",""materials/imgs/D4.png""]","false","random","","",""
"","","","","","html-keyboard-response","284","399810","0.0-17.0-0.2-0.19","m0tctp6cv0","","m0tctp6cv0","""2024-11-13T03:53:01.375Z""","null","+","null","","","","","","",""
"","","","","","image-keyboard-response","285","401465","0.0-17.0-0.2-1.19","m0tctp6cv0","","m0tctp6cv0","""2024-11-13T03:53:01.375Z""","1651","materials/imgs/D26.png","arrowright","","[""materials/imgs/D51.png"",""materials/imgs/D18.png""]","false","random","","",""
"","","","","","html-keyboard-response","286","401980","0.0-17.0-0.2-0.20","m0tctp6cv0","","m0tctp6cv0","""2024-11-13T03:53:01.375Z""","null","+","null","","","","","","",""
"","","","","","image-keyboard-response","287","402810","0.0-17.0-0.2-1.20","m0tctp6cv0","","m0tctp6cv0","""2024-11-13T03:53:01.375Z""","828","materials/imgs/D32.png","arrowleft","","[""materials/imgs/D4.png"",""materials/imgs/D95.png""]","false","random","","",""
"","","","","","html-keyboard-response","288","403311","0.0-17.0-1.2-0.2","m0tctp6cv0","","m0tctp6cv0","""2024-11-13T03:53:01.375Z""","null","+","null","","","","","","",""
"","","","","","image-keyboard-response","289","404290","0.0-17.0-1.2-1.2","m0tctp6cv0","","m0tctp6cv0","""2024-11-13T03:53:01.375Z""","978","materials/imgs/D46.png","arrowleft","","[""materials/imgs/D46.png"",""materials/imgs/D26.png""]","","check","materials/imgs/D46.png","0","true"
"","","","","","html-keyboard-response","290","404793","0.0-17.0-2.2-0.4","m0tctp6cv0","","m0tctp6cv0","""2024-11-13T03:53:01.375Z""","null","+","null","","","","","","",""
"","","","","","image-keyboard-response","291","407760","0.0-17.0-2.2-1.4","m0tctp6cv0","","m0tctp6cv0","""2024-11-13T03:53:01.375Z""","2966","materials/imgs/D46.png","arrowleft","","[""materials/imgs/D92.png"",""materials/imgs/D77.png""]","false","validation","","",""
"","","","","","html-keyboard-response","292","408263","0.0-17.0-2.2-0.5","m0tctp6cv0","","m0tctp6cv0","""2024-11-13T03:53:01.375Z""","null","+","null","","","","","","",""
"","","","","","image-keyboard-response","293","409165","0.0-17.0-2.2-1.5","m0tctp6cv0","","m0tctp6cv0","""2024-11-13T03:53:01.375Z""","902","materials/imgs/D83.png","arrowleft","","[""materials/imgs/D24.png"",""materials/imgs/D8.png""]","false","validation","","",""
"","","","","","html-keyboard-response","294","409676","0.0-17.0-0.3-0.21","m0tctp6cv0","","m0tctp6cv0","""2024-11-13T03:53:01.375Z""","null","+","null","","","","","","",""
"","","","","","image-keyboard-response","295","410632","0.0-17.0-0.3-1.21","m0tctp6cv0","","m0tctp6cv0","""2024-11-13T03:53:01.375Z""","954","materials/imgs/D1.png","arrowright","","[""materials/imgs/D6.png"",""materials/imgs/D82.png""]","false","random","","",""
"","","","","","html-keyboard-response","296","411144","0.0-17.0-0.3-0.22","m0tctp6cv0","","m0tctp6cv0","""2024-11-13T03:53:01.375Z""","null","+","null","","","","","","",""
"","","","","","image-keyboard-response","297","412365","0.0-17.0-0.3-1.22","m0tctp6cv0","","m0tctp6cv0","""2024-11-13T03:53:01.375Z""","1220","materials/imgs/D64.png","arrowright","","[""materials/imgs/D66.png"",""materials/imgs/D56.png""]","false","random","","",""
"","","","","","html-keyboard-response","298","412875","0.0-17.0-0.3-0.23","m0tctp6cv0","","m0tctp6cv0","""2024-11-13T03:53:01.375Z""","null","+","null","","","","","","",""
"","","","","","image-keyboard-response","299","414538","0.0-17.0-0.3-1.23","m0tctp6cv0","","m0tctp6cv0","""2024-11-13T03:53:01.375Z""","1660","materials/imgs/D95.png","arrowleft","","[""materials/imgs/D92.png"",""materials/imgs/D36.png""]","false","random","","",""
"","","","","","html-keyboard-response","300","415044","0.0-17.0-0.3-0.24","m0tctp6cv0","","m0tctp6cv0","""2024-11-13T03:53:01.375Z""","null","+","null","","","","","","",""
"","","","","","image-keyboard-response","301","417145","0.0-17.0-0.3-1.24","m0tctp6cv0","","m0tctp6cv0","""2024-11-13T03:53:01.375Z""","2099","materials/imgs/D92.png","arrowright","","[""materials/imgs/D47.png"",""materials/imgs/D65.png""]","false","random","","",""
"","","","","","html-keyboard-response","302","417659","0.0-17.0-0.3-0.25","m0tctp6cv0","","m0tctp6cv0","""2024-11-13T03:53:01.375Z""","null","+","null","","","","","","",""
"","","","","","image-keyboard-response","303","419840","0.0-17.0-0.3-1.25","m0tctp6cv0","","m0tctp6cv0","""2024-11-13T03:53:01.375Z""","2176","materials/imgs/D4.png","arrowright","","[""materials/imgs/D47.png"",""materials/imgs/D11.png""]","false","random","","",""
"","","","","","html-keyboard-response","304","420342","0.0-17.0-0.3-0.26","m0tctp6cv0","","m0tctp6cv0","""2024-11-13T03:53:01.375Z""","null","+","null","","","","","","",""
"","","","","","image-keyboard-response","305","421802","0.0-17.0-0.3-1.26","m0tctp6cv0","","m0tctp6cv0","""2024-11-13T03:53:01.375Z""","1459","materials/imgs/D25.png","arrowright","","[""materials/imgs/D83.png"",""materials/imgs/D16.png""]","false","random","","",""
"","","","","","html-keyboard-response","306","422312","0.0-17.0-0.3-0.27","m0tctp6cv0","","m0tctp6cv0","""2024-11-13T03:53:01.375Z""","null","+","null","","","","","","",""
"","","","","","image-keyboard-response","307","423184","0.0-17.0-0.3-1.27","m0tctp6cv0","","m0tctp6cv0","""2024-11-13T03:53:01.375Z""","872","materials/imgs/D77.png","arrowleft","","[""materials/imgs/D49.png"",""materials/imgs/D36.png""]","false","random","","",""
"","","","","","html-keyboard-response","308","423691","0.0-17.0-1.3-0.3","m0tctp6cv0","","m0tctp6cv0","""2024-11-13T03:53:01.375Z""","null","+","null","","","","","","",""
"","","","","","image-keyboard-response","309","424256","0.0-17.0-1.3-1.3","m0tctp6cv0","","m0tctp6cv0","""2024-11-13T03:53:01.375Z""","563","materials/imgs/D46.png","arrowleft","","[""materials/imgs/D46.png"",""materials/imgs/D26.png""]","","check","materials/imgs/D46.png","0","true"
"","","","","","html-keyboard-response","310","424759","0.0-17.0-2.3-0.6","m0tctp6cv0","","m0tctp6cv0","""2024-11-13T03:53:01.375Z""","null","+","null","","","","","","",""
"","","","","","image-keyboard-response","311","425433","0.0-17.0-2.3-1.6","m0tctp6cv0","","m0tctp6cv0","""2024-11-13T03:53:01.375Z""","672","materials/imgs/D9.png","arrowright","","[""materials/imgs/D103.png"",""materials/imgs/D4.png""]","false","validation","","",""
"","","","","","html-keyboard-response","312","425943","0.0-17.0-2.3-0.7","m0tctp6cv0","","m0tctp6cv0","""2024-11-13T03:53:01.375Z""","null","+","null","","","","","","",""
"","","","","","image-keyboard-response","313","427639","0.0-17.0-2.3-1.7","m0tctp6cv0","","m0tctp6cv0","""2024-11-13T03:53:01.375Z""","1694","materials/imgs/D49.png","arrowright","","[""materials/imgs/D8.png"",""materials/imgs/D101.png""]","false","validation","","",""
"","","","","","html-keyboard-response","314","428143","0.0-17.0-0.4-0.28","m0tctp6cv0","","m0tctp6cv0","""2024-11-13T03:53:01.375Z""","null","+","null","","","","","","",""
"","","","","","image-keyboard-response","315","429678","0.0-17.0-0.4-1.28","m0tctp6cv0","","m0tctp6cv0","""2024-11-13T03:53:01.375Z""","1530","materials/imgs/D52.png","arrowleft","","[""materials/imgs/D92.png"",""materials/imgs/D11.png""]","false","random","","",""
"","","","","","html-keyboard-response","316","430191","0.0-17.0-0.4-0.29","m0tctp6cv0","","m0tctp6cv0","""2024-11-13T03:53:01.375Z""","null","+","null","","","","","","",""
"","","","","","image-keyboard-response","317","431372","0.0-17.0-0.4-1.29","m0tctp6cv0","","m0tctp6cv0","""2024-11-13T03:53:01.375Z""","1179","materials/imgs/D26.png","arrowleft","","[""materials/imgs/D35.png"",""materials/imgs/D34.png""]","false","random","","",""
"","","","","","html-keyboard-response","318","431878","0.0-17.0-0.4-0.30","m0tctp6cv0","","m0tctp6cv0","""2024-11-13T03:53:01.375Z""","null","+","null","","","","","","",""
"","","","","","image-keyboard-response","319","433349","0.0-17.0-0.4-1.30","m0tctp6cv0","","m0tctp6cv0","""2024-11-13T03:53:01.375Z""","1470","materials/imgs/D1.png","arrowleft","","[""materials/imgs/D4.png"",""materials/imgs/D102.png""]","false","random","","",""
"","","","","","html-keyboard-response","320","433860","0.0-17.0-0.4-0.31","m0tctp6cv0","","m0tctp6cv0","""2024-11-13T03:53:01.375Z""","null","+","null","","","","","","",""
"","","","","","image-keyboard-response","321","434991","0.0-17.0-0.4-1.31","m0tctp6cv0","","m0tctp6cv0","""2024-11-13T03:53:01.375Z""","1129","materials/imgs/D20.png","arrowright","","[""materials/imgs/D85.png"",""materials/imgs/D56.png""]","false","random","","",""
"","","","","","html-keyboard-response","322","435505","0.0-17.0-0.4-0.32","m0tctp6cv0","","m0tctp6cv0","""2024-11-13T03:53:01.375Z""","null","+","null","","","","","","",""
"","","","","","image-keyboard-response","323","436235","0.0-17.0-0.4-1.32","m0tctp6cv0","","m0tctp6cv0","""2024-11-13T03:53:01.375Z""","726","materials/imgs/D65.png","arrowleft","","[""materials/imgs/D20.png"",""materials/imgs/D32.png""]","false","random","","",""
"","","","","","html-keyboard-response","324","436741","0.0-17.0-0.4-0.33","m0tctp6cv0","","m0tctp6cv0","""2024-11-13T03:53:01.375Z""","null","+","null","","","","","","",""
"","","","","","image-keyboard-response","325","438720","0.0-17.0-0.4-1.33","m0tctp6cv0","","m0tctp6cv0","""2024-11-13T03:53:01.375Z""","1978","materials/imgs/D76.png","arrowright","","[""materials/imgs/D47.png"",""materials/imgs/D53.png""]","false","random","","",""
"","","","","","html-keyboard-response","326","439222","0.0-17.0-0.4-0.34","m0tctp6cv0","","m0tctp6cv0","""2024-11-13T03:53:01.375Z""","null","+","null","","","","","","",""
"","","","","","image-keyboard-response","327","440304","0.0-17.0-0.4-1.34","m0tctp6cv0","","m0tctp6cv0","""2024-11-13T03:53:01.375Z""","1080","materials/imgs/D76.png","arrowright","","[""materials/imgs/D37.png"",""materials/imgs/D51.png""]","false","random","","",""
"","","","","","html-keyboard-response","328","440812","0.0-17.0-1.4-0.4","m0tctp6cv0","","m0tctp6cv0","""2024-11-13T03:53:01.375Z""","null","+","null","","","","","","",""
"","","","","","image-keyboard-response","329","441495","0.0-17.0-1.4-1.4","m0tctp6cv0","","m0tctp6cv0","""2024-11-13T03:53:01.375Z""","680","materials/imgs/D101.png","arrowright","","[""materials/imgs/D106.png"",""materials/imgs/D101.png""]","","check","materials/imgs/D101.png","1","true"
"","","","","","html-keyboard-response","330","442009","0.0-17.0-2.4-0.8","m0tctp6cv0","","m0tctp6cv0","""2024-11-13T03:53:01.375Z""","null","+","null","","","","","","",""
"","","","","","image-keyboard-response","331","443569","0.0-17.0-2.4-1.8","m0tctp6cv0","","m0tctp6cv0","""2024-11-13T03:53:01.375Z""","1562","materials/imgs/D4.png","arrowleft","","[""materials/imgs/D52.png"",""materials/imgs/D83.png""]","false","validation","","",""
"","","","","","html-keyboard-response","332","444073","0.0-17.0-2.4-0.9","m0tctp6cv0","","m0tctp6cv0","""2024-11-13T03:53:01.375Z""","null","+","null","","","","","","",""
"","","","","","image-keyboard-response","333","445376","0.0-17.0-2.4-1.9","m0tctp6cv0","","m0tctp6cv0","""2024-11-13T03:53:01.375Z""","1300","materials/imgs/D11.png","arrowleft","","[""materials/imgs/D83.png"",""materials/imgs/D48.png""]","false","validation","","",""
"","","","","","html-button-response","334","446438","0.0-18.0","m0tctp6cv0","","m0tctp6cv0","""2024-11-13T03:53:01.375Z""","1062","You have completed 75% of the trials. Please click 'Continue' when you are ready proceed.","0","","","","","","",""
"","","","","","html-keyboard-response","335","446940","0.0-19.0-0.0-0.0","m0tctp6cv0","","m0tctp6cv0","""2024-11-13T03:53:01.375Z""","null","+","null","","","","","","",""
"","","","","","image-keyboard-response","336","448038","0.0-19.0-0.0-1.0","m0tctp6cv0","","m0tctp6cv0","""2024-11-13T03:53:01.375Z""","1096","materials/imgs/D65.png","arrowleft","","[""materials/imgs/D20.png"",""materials/imgs/D102.png""]","false","random","","",""
"","","","","","html-keyboard-response","337","448542","0.0-19.0-0.0-0.1","m0tctp6cv0","","m0tctp6cv0","""2024-11-13T03:53:01.375Z""","null","+","null","","","","","","",""
"","","","","","image-keyboard-response","338","450855","0.0-19.0-0.0-1.1","m0tctp6cv0","","m0tctp6cv0","""2024-11-13T03:53:01.375Z""","2310","materials/imgs/D51.png","arrowleft","","[""materials/imgs/D46.png"",""materials/imgs/D111.png""]","false","random","","",""
"","","","","","html-keyboard-response","339","451369","0.0-19.0-0.0-0.2","m0tctp6cv0","","m0tctp6cv0","""2024-11-13T03:53:01.375Z""","null","+","null","","","","","","",""
"","","","","","image-keyboard-response","340","452372","0.0-19.0-0.0-1.2","m0tctp6cv0","","m0tctp6cv0","""2024-11-13T03:53:01.375Z""","1002","materials/imgs/D78.png","arrowleft","","[""materials/imgs/D51.png"",""materials/imgs/D48.png""]","false","random","","",""
"","","","","","html-keyboard-response","341","452874","0.0-19.0-0.0-0.3","m0tctp6cv0","","m0tctp6cv0","""2024-11-13T03:53:01.375Z""","null","+","null","","","","","","",""
"","","","","","image-keyboard-response","342","454447","0.0-19.0-0.0-1.3","m0tctp6cv0","","m0tctp6cv0","""2024-11-13T03:53:01.375Z""","1571","materials/imgs/D82.png","arrowright","","[""materials/imgs/D87.png"",""materials/imgs/D104.png""]","false","random","","",""
"","","","","","html-keyboard-response","343","454954","0.0-19.0-0.0-0.4","m0tctp6cv0","","m0tctp6cv0","""2024-11-13T03:53:01.375Z""","null","+","null","","","","","","",""
"","","","","","image-keyboard-response","344","456748","0.0-19.0-0.0-1.4","m0tctp6cv0","","m0tctp6cv0","""2024-11-13T03:53:01.375Z""","1791","materials/imgs/D104.png","arrowright","","[""materials/imgs/D102.png"",""materials/imgs/D78.png""]","false","random","","",""
"","","","","","html-keyboard-response","345","457254","0.0-19.0-0.0-0.5","m0tctp6cv0","","m0tctp6cv0","""2024-11-13T03:53:01.375Z""","null","+","null","","","","","","",""
"","","","","","image-keyboard-response","346","458545","0.0-19.0-0.0-1.5","m0tctp6cv0","","m0tctp6cv0","""2024-11-13T03:53:01.375Z""","1290","materials/imgs/D14.png","arrowleft","","[""materials/imgs/D47.png"",""materials/imgs/D26.png""]","false","random","","",""
"","","","","","html-keyboard-response","347","459054","0.0-19.0-0.0-0.6","m0tctp6cv0","","m0tctp6cv0","""2024-11-13T03:53:01.375Z""","null","+","null","","","","","","",""
"","","","","","image-keyboard-response","348","460568","0.0-19.0-0.0-1.6","m0tctp6cv0","","m0tctp6cv0","""2024-11-13T03:53:01.375Z""","1514","materials/imgs/D83.png","arrowright","","[""materials/imgs/D87.png"",""materials/imgs/D17.png""]","false","random","","",""
"","","","","","html-keyboard-response","349","461072","0.0-19.0-1.0-0.0","m0tctp6cv0","","m0tctp6cv0","""2024-11-13T03:53:01.375Z""","null","+","null","","","","","","",""
"","","","","","image-keyboard-response","350","461633","0.0-19.0-1.0-1.0","m0tctp6cv0","","m0tctp6cv0","""2024-11-13T03:53:01.375Z""","558","materials/imgs/D8.png","arrowright","","[""materials/imgs/D18.png"",""materials/imgs/D8.png""]","","check","materials/imgs/D8.png","1","true"
"","","","","","html-keyboard-response","351","462140","0.0-19.0-2.0-0.0","m0tctp6cv0","","m0tctp6cv0","""2024-11-13T03:53:01.375Z""","null","+","null","","","","","","",""
"","","","","","image-keyboard-response","352","463733","0.0-19.0-2.0-1.0","m0tctp6cv0","","m0tctp6cv0","""2024-11-13T03:53:01.375Z""","1592","materials/imgs/D79.png","arrowleft","","[""materials/imgs/D51.png"",""materials/imgs/D64.png""]","false","validation","","",""
"","","","","","html-keyboard-response","353","464238","0.0-19.0-2.0-0.1","m0tctp6cv0","","m0tctp6cv0","""2024-11-13T03:53:01.375Z""","null","+","null","","","","","","",""
"","","","","","image-keyboard-response","354","465690","0.0-19.0-2.0-1.1","m0tctp6cv0","","m0tctp6cv0","""2024-11-13T03:53:01.375Z""","1452","materials/imgs/D36.png","arrowleft","","[""materials/imgs/D47.png"",""materials/imgs/D49.png""]","false","validation","","",""
"","","","","","html-keyboard-response","355","466206","0.0-19.0-0.1-0.7","m0tctp6cv0","","m0tctp6cv0","""2024-11-13T03:53:01.375Z""","null","+","null","","","","","","",""
"","","","","","image-keyboard-response","356","467275","0.0-19.0-0.1-1.7","m0tctp6cv0","","m0tctp6cv0","""2024-11-13T03:53:01.375Z""","1067","materials/imgs/D78.png","arrowleft","","[""materials/imgs/D77.png"",""materials/imgs/D101.png""]","false","random","","",""
"","","","","","html-keyboard-response","357","467788","0.0-19.0-0.1-0.8","m0tctp6cv0","","m0tctp6cv0","""2024-11-13T03:53:01.375Z""","null","+","null","","","","","","",""
"","","","","","image-keyboard-response","358","468708","0.0-19.0-0.1-1.8","m0tctp6cv0","","m0tctp6cv0","""2024-11-13T03:53:01.375Z""","919","materials/imgs/D32.png","arrowright","","[""materials/imgs/D65.png"",""materials/imgs/D77.png""]","false","random","","",""
"","","","","","html-keyboard-response","359","469222","0.0-19.0-0.1-0.9","m0tctp6cv0","","m0tctp6cv0","""2024-11-13T03:53:01.375Z""","null","+","null","","","","","","",""
"","","","","","image-keyboard-response","360","470991","0.0-19.0-0.1-1.9","m0tctp6cv0","","m0tctp6cv0","""2024-11-13T03:53:01.375Z""","1768","materials/imgs/D65.png","arrowleft","","[""materials/imgs/D1.png"",""materials/imgs/D105.png""]","false","random","","",""
"","","","","","html-keyboard-response","361","471504","0.0-19.0-0.1-0.10","m0tctp6cv0","","m0tctp6cv0","""2024-11-13T03:53:01.375Z""","null","+","null","","","","","","",""
"","","","","","image-keyboard-response","362","473126","0.0-19.0-0.1-1.10","m0tctp6cv0","","m0tctp6cv0","""2024-11-13T03:53:01.375Z""","1620","materials/imgs/D3.png","arrowleft","","[""materials/imgs/D19.png"",""materials/imgs/D11.png""]","false","random","","",""
"","","","","","html-keyboard-response","363","473639","0.0-19.0-0.1-0.11","m0tctp6cv0","","m0tctp6cv0","""2024-11-13T03:53:01.375Z""","null","+","null","","","","","","",""
"","","","","","image-keyboard-response","364","475301","0.0-19.0-0.1-1.11","m0tctp6cv0","","m0tctp6cv0","""2024-11-13T03:53:01.375Z""","1659","materials/imgs/D8.png","arrowleft","","[""materials/imgs/D34.png"",""materials/imgs/D22.png""]","false","random","","",""
"","","","","","html-keyboard-response","365","475803","0.0-19.0-0.1-0.12","m0tctp6cv0","","m0tctp6cv0","""2024-11-13T03:53:01.375Z""","null","+","null","","","","","","",""
"","","","","","image-keyboard-response","366","476886","0.0-19.0-0.1-1.12","m0tctp6cv0","","m0tctp6cv0","""2024-11-13T03:53:01.375Z""","1082","materials/imgs/D37.png","arrowright","","[""materials/imgs/D21.png"",""materials/imgs/D77.png""]","false","random","","",""
"","","","","","html-keyboard-response","367","477390","0.0-19.0-0.1-0.13","m0tctp6cv0","","m0tctp6cv0","""2024-11-13T03:53:01.375Z""","null","+","null","","","","","","",""
"","","","","","image-keyboard-response","368","478895","0.0-19.0-0.1-1.13","m0tctp6cv0","","m0tctp6cv0","""2024-11-13T03:53:01.375Z""","1503","materials/imgs/D17.png","arrowright","","[""materials/imgs/D95.png"",""materials/imgs/D55.png""]","false","random","","",""
"","","","","","html-keyboard-response","369","479408","0.0-19.0-1.1-0.1","m0tctp6cv0","","m0tctp6cv0","""2024-11-13T03:53:01.375Z""","null","+","null","","","","","","",""
"","","","","","image-keyboard-response","370","480005","0.0-19.0-1.1-1.1","m0tctp6cv0","","m0tctp6cv0","""2024-11-13T03:53:01.375Z""","596","materials/imgs/D76.png","arrowleft","","[""materials/imgs/D76.png"",""materials/imgs/D78.png""]","","check","materials/imgs/D76.png","0","true"
"","","","","","html-keyboard-response","371","480519","0.0-19.0-2.1-0.2","m0tctp6cv0","","m0tctp6cv0","""2024-11-13T03:53:01.375Z""","null","+","null","","","","","","",""
"","","","","","image-keyboard-response","372","482888","0.0-19.0-2.1-1.2","m0tctp6cv0","","m0tctp6cv0","""2024-11-13T03:53:01.375Z""","2368","materials/imgs/D18.png","arrowright","","[""materials/imgs/D32.png"",""materials/imgs/D57.png""]","false","validation","","",""
"","","","","","html-keyboard-response","373","483404","0.0-19.0-2.1-0.3","m0tctp6cv0","","m0tctp6cv0","""2024-11-13T03:53:01.375Z""","null","+","null","","","","","","",""
"","","","","","image-keyboard-response","374","485201","0.0-19.0-2.1-1.3","m0tctp6cv0","","m0tctp6cv0","""2024-11-13T03:53:01.375Z""","1795","materials/imgs/D81.png","arrowright","","[""materials/imgs/D105.png"",""materials/imgs/D24.png""]","false","validation","","",""
"","","","","","html-keyboard-response","375","485704","0.0-19.0-0.2-0.14","m0tctp6cv0","","m0tctp6cv0","""2024-11-13T03:53:01.375Z""","null","+","null","","","","","","",""
"","","","","","image-keyboard-response","376","487567","0.0-19.0-0.2-1.14","m0tctp6cv0","","m0tctp6cv0","""2024-11-13T03:53:01.375Z""","1861","materials/imgs/D101.png","arrowright","","[""materials/imgs/D55.png"",""materials/imgs/D65.png""]","false","random","","",""
"","","","","","html-keyboard-response","377","488070","0.0-19.0-0.2-0.15","m0tctp6cv0","","m0tctp6cv0","""2024-11-13T03:53:01.375Z""","null","+","null","","","","","","",""
"","","","","","image-keyboard-response","378","489522","0.0-19.0-0.2-1.15","m0tctp6cv0","","m0tctp6cv0","""2024-11-13T03:53:01.375Z""","1450","materials/imgs/D18.png","arrowright","","[""materials/imgs/D57.png"",""materials/imgs/D24.png""]","false","random","","",""
"","","","","","html-keyboard-response","379","490036","0.0-19.0-0.2-0.16","m0tctp6cv0","","m0tctp6cv0","""2024-11-13T03:53:01.375Z""","null","+","null","","","","","","",""
"","","","","","image-keyboard-response","380","490852","0.0-19.0-0.2-1.16","m0tctp6cv0","","m0tctp6cv0","""2024-11-13T03:53:01.375Z""","814","materials/imgs/D82.png","arrowleft","","[""materials/imgs/D92.png"",""materials/imgs/D34.png""]","false","random","","",""
"","","","","","html-keyboard-response","381","491357","0.0-19.0-0.2-0.17","m0tctp6cv0","","m0tctp6cv0","""2024-11-13T03:53:01.375Z""","null","+","null","","","","","","",""
"","","","","","image-keyboard-response","382","492025","0.0-19.0-0.2-1.17","m0tctp6cv0","","m0tctp6cv0","""2024-11-13T03:53:01.375Z""","666","materials/imgs/D84.png","arrowleft","","[""materials/imgs/D29.png"",""materials/imgs/D111.png""]","false","random","","",""
"","","","","","html-keyboard-response","383","492541","0.0-19.0-0.2-0.18","m0tctp6cv0","","m0tctp6cv0","""2024-11-13T03:53:01.375Z""","null","+","null","","","","","","",""
"","","","","","image-keyboard-response","384","494382","0.0-19.0-0.2-1.18","m0tctp6cv0","","m0tctp6cv0","""2024-11-13T03:53:01.375Z""","1840","materials/imgs/D55.png","arrowleft","","[""materials/imgs/D57.png"",""materials/imgs/D17.png""]","false","random","","",""
"","","","","","html-keyboard-response","385","494886","0.0-19.0-0.2-0.19","m0tctp6cv0","","m0tctp6cv0","""2024-11-13T03:53:01.375Z""","null","+","null","","","","","","",""
"","","","","","image-keyboard-response","386","495876","0.0-19.0-0.2-1.19","m0tctp6cv0","","m0tctp6cv0","""2024-11-13T03:53:01.375Z""","982","materials/imgs/D83.png","arrowright","","[""materials/imgs/D101.png"",""materials/imgs/D25.png""]","false","random","","",""
"","","","","","html-keyboard-response","387","496388","0.0-19.0-0.2-0.20","m0tctp6cv0","","m0tctp6cv0","""2024-11-13T03:53:01.375Z""","null","+","null","","","","","","",""
"","","","","","image-keyboard-response","388","498012","0.0-19.0-0.2-1.20","m0tctp6cv0","","m0tctp6cv0","""2024-11-13T03:53:01.375Z""","1622","materials/imgs/D17.png","arrowright","","[""materials/imgs/D9.png"",""materials/imgs/D21.png""]","false","random","","",""
"","","","","","html-keyboard-response","389","498520","0.0-19.0-1.2-0.2","m0tctp6cv0","","m0tctp6cv0","""2024-11-13T03:53:01.375Z""","null","+","null","","","","","","",""
"","","","","","image-keyboard-response","390","499153","0.0-19.0-1.2-1.2","m0tctp6cv0","","m0tctp6cv0","""2024-11-13T03:53:01.375Z""","631","materials/imgs/D8.png","arrowright","","[""materials/imgs/D18.png"",""materials/imgs/D8.png""]","","check","materials/imgs/D8.png","1","true"
"","","","","","html-keyboard-response","391","499654","0.0-19.0-2.2-0.4","m0tctp6cv0","","m0tctp6cv0","""2024-11-13T03:53:01.375Z""","null","+","null","","","","","","",""
"","","","","","image-keyboard-response","392","500930","0.0-19.0-2.2-1.4","m0tctp6cv0","","m0tctp6cv0","""2024-11-13T03:53:01.375Z""","1274","materials/imgs/D36.png","arrowleft","","[""materials/imgs/D47.png"",""materials/imgs/D49.png""]","false","validation","","",""
"","","","","","html-keyboard-response","393","501438","0.0-19.0-2.2-0.5","m0tctp6cv0","","m0tctp6cv0","""2024-11-13T03:53:01.375Z""","null","+","null","","","","","","",""
"","","","","","image-keyboard-response","394","502521","0.0-19.0-2.2-1.5","m0tctp6cv0","","m0tctp6cv0","""2024-11-13T03:53:01.375Z""","1081","materials/imgs/D92.png","arrowright","","[""materials/imgs/D56.png"",""materials/imgs/D77.png""]","false","validation","","",""
"","","","","","html-keyboard-response","395","503033","0.0-19.0-0.3-0.21","m0tctp6cv0","","m0tctp6cv0","""2024-11-13T03:53:01.375Z""","null","+","null","","","","","","",""
"","","","","","image-keyboard-response","396","504311","0.0-19.0-0.3-1.21","m0tctp6cv0","","m0tctp6cv0","""2024-11-13T03:53:01.375Z""","1275","materials/imgs/D81.png","arrowright","","[""materials/imgs/D96.png"",""materials/imgs/D21.png""]","false","random","","",""
"","","","","","html-keyboard-response","397","504818","0.0-19.0-0.3-0.22","m0tctp6cv0","","m0tctp6cv0","""2024-11-13T03:53:01.375Z""","null","+","null","","","","","","",""
"","","","","","image-keyboard-response","398","506018","0.0-19.0-0.3-1.22","m0tctp6cv0","","m0tctp6cv0","""2024-11-13T03:53:01.375Z""","1195","materials/imgs/D51.png","arrowleft","","[""materials/imgs/D53.png"",""materials/imgs/D29.png""]","false","random","","",""
"","","","","","html-keyboard-response","399","506519","0.0-19.0-0.3-0.23","m0tctp6cv0","","m0tctp6cv0","""2024-11-13T03:53:01.375Z""","null","+","null","","","","","","",""
"","","","","","image-keyboard-response","400","507590","0.0-19.0-0.3-1.23","m0tctp6cv0","","m0tctp6cv0","""2024-11-13T03:53:01.375Z""","1070","materials/imgs/D35.png","arrowright","","[""materials/imgs/D9.png"",""materials/imgs/D65.png""]","false","random","","",""
"","","","","","html-keyboard-response","401","508104","0.0-19.0-0.3-0.24","m0tctp6cv0","","m0tctp6cv0","""2024-11-13T03:53:01.375Z""","null","+","null","","","","","","",""
"","","","","","image-keyboard-response","402","509055","0.0-19.0-0.3-1.24","m0tctp6cv0","","m0tctp6cv0","""2024-11-13T03:53:01.375Z""","949","materials/imgs/D18.png","arrowleft","","[""materials/imgs/D76.png"",""materials/imgs/D17.png""]","false","random","","",""
"","","","","","html-keyboard-response","403","509570","0.0-19.0-0.3-0.25","m0tctp6cv0","","m0tctp6cv0","""2024-11-13T03:53:01.375Z""","null","+","null","","","","","","",""
"","","","","","image-keyboard-response","404","510915","0.0-19.0-0.3-1.25","m0tctp6cv0","","m0tctp6cv0","""2024-11-13T03:53:01.375Z""","1342","materials/imgs/D74.png","arrowleft","","[""materials/imgs/D1.png"",""materials/imgs/D76.png""]","false","random","","",""
"","","","","","html-keyboard-response","405","511417","0.0-19.0-0.3-0.26","m0tctp6cv0","","m0tctp6cv0","""2024-11-13T03:53:01.375Z""","null","+","null","","","","","","",""
"","","","","","image-keyboard-response","406","512449","0.0-19.0-0.3-1.26","m0tctp6cv0","","m0tctp6cv0","""2024-11-13T03:53:01.375Z""","1030","materials/imgs/D68.png","arrowright","","[""materials/imgs/D95.png"",""materials/imgs/D51.png""]","false","random","","",""
"","","","","","html-keyboard-response","407","512951","0.0-19.0-0.3-0.27","m0tctp6cv0","","m0tctp6cv0","""2024-11-13T03:53:01.375Z""","null","+","null","","","","","","",""
"","","","","","image-keyboard-response","408","514854","0.0-19.0-0.3-1.27","m0tctp6cv0","","m0tctp6cv0","""2024-11-13T03:53:01.375Z""","1901","materials/imgs/D32.png","arrowleft","","[""materials/imgs/D4.png"",""materials/imgs/D68.png""]","false","random","","",""
"","","","","","html-keyboard-response","409","515367","0.0-19.0-1.3-0.3","m0tctp6cv0","","m0tctp6cv0","""2024-11-13T03:53:01.375Z""","null","+","null","","","","","","",""
"","","","","","image-keyboard-response","410","515992","0.0-19.0-1.3-1.3","m0tctp6cv0","","m0tctp6cv0","""2024-11-13T03:53:01.375Z""","624","materials/imgs/D64.png","arrowright","","[""materials/imgs/D64.png"",""materials/imgs/D53.png""]","","check","materials/imgs/D53.png","1","false"
"","","","","","html-keyboard-response","411","520759","0.0-19.0-1.3-2.3-0.3","m0tctp6cv0","","m0tctp6cv0","""2024-11-13T03:53:01.375Z""","4767","<p><strong>Incorrect!</strong></p>That was an attention check. Please pay attention while completing this task.<p>Press 'y' to continue.</p>","y","","","","","","",""
"","","","","","html-keyboard-response","412","521265","0.0-19.0-2.3-0.6","m0tctp6cv0","","m0tctp6cv0","""2024-11-13T03:53:01.375Z""","null","+","null","","","","","","",""
"","","","","","image-keyboard-response","413","530657","0.0-19.0-2.3-1.6","m0tctp6cv0","","m0tctp6cv0","""2024-11-13T03:53:01.375Z""","9391","materials/imgs/D84.png","arrowleft","","[""materials/imgs/D106.png"",""materials/imgs/D37.png""]","false","validation","","",""
"","","","","","html-keyboard-response","414","531167","0.0-19.0-2.3-0.7","m0tctp6cv0","","m0tctp6cv0","""2024-11-13T03:53:01.375Z""","null","+","null","","","","","","",""
"","","","","","image-keyboard-response","415","532895","0.0-19.0-2.3-1.7","m0tctp6cv0","","m0tctp6cv0","""2024-11-13T03:53:01.375Z""","1727","materials/imgs/D52.png","arrowright","","[""materials/imgs/D9.png"",""materials/imgs/D19.png""]","false","validation","","",""
"","","","","","html-keyboard-response","416","533401","0.0-19.0-0.4-0.28","m0tctp6cv0","","m0tctp6cv0","""2024-11-13T03:53:01.375Z""","null","+","null","","","","","","",""
"","","","","","image-keyboard-response","417","536550","0.0-19.0-0.4-1.28","m0tctp6cv0","","m0tctp6cv0","""2024-11-13T03:53:01.375Z""","3145","materials/imgs/D94.png","arrowright","","[""materials/imgs/D11.png"",""materials/imgs/D1.png""]","false","random","","",""
"","","","","","html-keyboard-response","418","537051","0.0-19.0-0.4-0.29","m0tctp6cv0","","m0tctp6cv0","""2024-11-13T03:53:01.375Z""","null","+","null","","","","","","",""
"","","","","","image-keyboard-response","419","538117","0.0-19.0-0.4-1.29","m0tctp6cv0","","m0tctp6cv0","""2024-11-13T03:53:01.375Z""","1064","materials/imgs/D102.png","arrowleft","","[""materials/imgs/D77.png"",""materials/imgs/D26.png""]","false","random","","",""
"","","","","","html-keyboard-response","420","538633","0.0-19.0-0.4-0.30","m0tctp6cv0","","m0tctp6cv0","""2024-11-13T03:53:01.375Z""","null","+","null","","","","","","",""
"","","","","","image-keyboard-response","421","539922","0.0-19.0-0.4-1.30","m0tctp6cv0","","m0tctp6cv0","""2024-11-13T03:53:01.375Z""","1289","materials/imgs/D37.png","arrowleft","","[""materials/imgs/D49.png"",""materials/imgs/D22.png""]","false","random","","",""
"","","","","","html-keyboard-response","422","540434","0.0-19.0-0.4-0.31","m0tctp6cv0","","m0tctp6cv0","""2024-11-13T03:53:01.375Z""","null","+","null","","","","","","",""
"","","","","","image-keyboard-response","423","541480","0.0-19.0-0.4-1.31","m0tctp6cv0","","m0tctp6cv0","""2024-11-13T03:53:01.375Z""","1045","materials/imgs/D82.png","arrowleft","","[""materials/imgs/D79.png"",""materials/imgs/D48.png""]","false","random","","",""
"","","","","","html-keyboard-response","424","541981","0.0-19.0-0.4-0.32","m0tctp6cv0","","m0tctp6cv0","""2024-11-13T03:53:01.375Z""","null","+","null","","","","","","",""
"","","","","","image-keyboard-response","425","543130","0.0-19.0-0.4-1.32","m0tctp6cv0","","m0tctp6cv0","""2024-11-13T03:53:01.375Z""","1146","materials/imgs/D55.png","arrowleft","","[""materials/imgs/D77.png"",""materials/imgs/D51.png""]","false","random","","",""
"","","","","","html-keyboard-response","426","543634","0.0-19.0-0.4-0.33","m0tctp6cv0","","m0tctp6cv0","""2024-11-13T03:53:01.375Z""","null","+","null","","","","","","",""
"","","","","","image-keyboard-response","427","544658","0.0-19.0-0.4-1.33","m0tctp6cv0","","m0tctp6cv0","""2024-11-13T03:53:01.375Z""","1022","materials/imgs/D14.png","arrowleft","","[""materials/imgs/D55.png"",""materials/imgs/D96.png""]","false","random","","",""
"","","","","","html-keyboard-response","428","545169","0.0-19.0-0.4-0.34","m0tctp6cv0","","m0tctp6cv0","""2024-11-13T03:53:01.375Z""","null","+","null","","","","","","",""
"","","","","","image-keyboard-response","429","548339","0.0-19.0-0.4-1.34","m0tctp6cv0","","m0tctp6cv0","""2024-11-13T03:53:01.375Z""","3168","materials/imgs/D26.png","arrowleft","","[""materials/imgs/D78.png"",""materials/imgs/D52.png""]","false","random","","",""
"","","","","","html-keyboard-response","430","548849","0.0-19.0-1.4-0.4","m0tctp6cv0","","m0tctp6cv0","""2024-11-13T03:53:01.375Z""","null","+","null","","","","","","",""
"","","","","","image-keyboard-response","431","549462","0.0-19.0-1.4-1.4","m0tctp6cv0","","m0tctp6cv0","""2024-11-13T03:53:01.375Z""","610","materials/imgs/D106.png","arrowleft","","[""materials/imgs/D106.png"",""materials/imgs/D101.png""]","","check","materials/imgs/D106.png","0","true"
"","","","","","html-keyboard-response","432","549965","0.0-19.0-2.4-0.8","m0tctp6cv0","","m0tctp6cv0","""2024-11-13T03:53:01.375Z""","null","+","null","","","","","","",""
"","","","","","image-keyboard-response","433","551444","0.0-19.0-2.4-1.8","m0tctp6cv0","","m0tctp6cv0","""2024-11-13T03:53:01.375Z""","1477","materials/imgs/D6.png","arrowright","","[""materials/imgs/D26.png"",""materials/imgs/D76.png""]","false","validation","","",""
"","","","","","html-keyboard-response","434","551948","0.0-19.0-2.4-0.9","m0tctp6cv0","","m0tctp6cv0","""2024-11-13T03:53:01.375Z""","null","+","null","","","","","","",""
"","","","","","image-keyboard-response","435","552963","0.0-19.0-2.4-1.9","m0tctp6cv0","","m0tctp6cv0","""2024-11-13T03:53:01.375Z""","1013","materials/imgs/D35.png","arrowright","","[""materials/imgs/D83.png"",""materials/imgs/D24.png""]","false","validation","","",""
