"success","timeout","failed_images","failed_audio","failed_video","trial_type","trial_index","time_elapsed","internal_node_id","subject_id","sona_id","subjectID","dateInfo","rt","stimulus","response","question_order","choices","speedy","sampleAlg","selected_image","selected_index","correct"
"true","false","[]","[]","[]","preload","0","287","0.0-0.0","mxg3vzrhzc","","mxg3vzrhzc","""2024-11-12T18:22:18.440Z""","","","","","","","","","",""
"true","","","","","fullscreen","1","2625","0.0-1.0","mxg3vzrhzc","","mxg3vzrhzc","""2024-11-12T18:22:18.440Z""","","","","","","","","","",""
"","","","","","html-keyboard-response","2","2639","0.0-2.0","mxg3vzrhzc","","mxg3vzrhzc","""2024-11-12T18:22:18.440Z""","null","","null","","","","","","",""
"","","","","","html-button-response","3","11290","0.0-3.0","mxg3vzrhzc","","mxg3vzrhzc","""2024-11-12T18:22:18.440Z""","8649","<div style='text-align:center; font-size:20px; line-height:25px; width: 1200px;'>
                Welcome to our experiment! <br>
                <br>At the bottom of this screen, you will see a button that says 'Begin Experiment.
                <br>Please only click that button when you are ready to complete the 25 minute experiment in one sitting. <br>
                <br> Once you click that button, it will not be possible to restart the experiment. <br><br>","0","","","","","","",""
"true","","","","","fullscreen","4","13471","0.0-4.0","mxg3vzrhzc","","mxg3vzrhzc","""2024-11-12T18:22:18.440Z""","","","","","","","","","",""
"","","","","","survey-multi-select","5","19854","0.0-5.0","mxg3vzrhzc","","mxg3vzrhzc","""2024-11-12T18:22:18.440Z""","6378","","{""Consent"":[""<strong>I consent</strong>""]}","[0]","","","","","",""
"","","","","","html-button-response","6","21256","0.0-6.0","mxg3vzrhzc","","mxg3vzrhzc","""2024-11-12T18:22:18.440Z""","1399","Welcome! <p> This experiment involves two parts: demographic information, followed by the experimental task.<p> It will take about 25 minutes to complete both parts.","0","","","","","","",""
"","","","","","survey-text","7","28096","0.0-7.0","mxg3vzrhzc","","mxg3vzrhzc","""2024-11-12T18:22:18.440Z""","6836","","{""Age"":""18"",""Gender"":""female"",""Race/ethnicity"":""white""}","","","","","","",""
"","","","","","html-button-response","8","43961","0.0-8.0","mxg3vzrhzc","","mxg3vzrhzc","""2024-11-12T18:22:18.440Z""","15924","<div style='text-align: center;'>
      <p>In each trial of this task, you will see three texture images: one target item on top, and two choices beneath the target item.</p>
      <p><strong>Please select the item that is most like the target item.</strong></p>
      <p>To select the option on the <strong>LEFT</strong>, press the <strong>LEFT ARROW</strong> key. 
      To select the option on the <strong>RIGHT</strong>, press the <strong>RIGHT ARROW</strong> key.</p>
                  <!-- Target Image at the Top -->
      <div style='margin: 20px;'>
        <img src='materials/imgs/instruction_images/InstructionImg1D78.png' alt='Target Image' style='width:200px; height:auto;' />
        <p><em>Target Image</em></p>
      </div>

      <!-- Two Choice Images Below -->
      <div style='display: flex; justify-content: center;'>
        <div style='margin-right: 50px;'>
          <img src='materials/imgs/instruction_images/InstructionImg2D34.png' alt='Choice Image 1' style='width:150px; height:auto;' />
          <p><em><strong>LEFT ARROW</strong></em></p>
        </div>
        <div style='margin-left: 50px;'>
          <img src='materials/imgs/instruction_images/InstructionImg3D80.png' alt='Choice Image 2' style='width:150px; height:auto;' />
          <p><em><strong>RIGHT ARROW</strong></em></p>
        </div>
      </div>
    </div>

      <p>When you are ready to proceed, please click 'Continue' to begin practice.</p>","0","","","","","","",""
"","","","","","html-keyboard-response","9","46464","0.0-9.0","mxg3vzrhzc","","mxg3vzrhzc","""2024-11-12T18:22:18.440Z""","null","+","null","","","","","","",""
"","","","","","html-keyboard-response","10","46966","0.0-10.0-0.0-0.0","mxg3vzrhzc","","mxg3vzrhzc","""2024-11-12T18:22:18.440Z""","null","+","null","","","","","","",""
"","","","","","image-keyboard-response","11","51169","0.0-10.0-0.0-1.0","mxg3vzrhzc","","mxg3vzrhzc","""2024-11-12T18:22:18.440Z""","4198","materials/imgs/D81.png","arrowleft","","[""materials/imgs/D14.png"",""materials/imgs/D36.png""]","false","random","","",""
"","","","","","html-keyboard-response","12","51672","0.0-10.0-0.0-0.1","mxg3vzrhzc","","mxg3vzrhzc","""2024-11-12T18:22:18.440Z""","null","+","null","","","","","","",""
"","","","","","image-keyboard-response","13","54938","0.0-10.0-0.0-1.1","mxg3vzrhzc","","mxg3vzrhzc","""2024-11-12T18:22:18.440Z""","3264","materials/imgs/D77.png","arrowleft","","[""materials/imgs/D49.png"",""materials/imgs/D32.png""]","false","random","","",""
"","","","","","html-keyboard-response","14","55440","0.0-10.0-0.0-0.2","mxg3vzrhzc","","mxg3vzrhzc","""2024-11-12T18:22:18.440Z""","null","+","null","","","","","","",""
"","","","","","image-keyboard-response","15","57133","0.0-10.0-0.0-1.2","mxg3vzrhzc","","mxg3vzrhzc","""2024-11-12T18:22:18.440Z""","1691","materials/imgs/D92.png","arrowright","","[""materials/imgs/D105.png"",""materials/imgs/D22.png""]","false","random","","",""
"","","","","","html-keyboard-response","16","57634","0.0-10.0-0.0-0.3","mxg3vzrhzc","","mxg3vzrhzc","""2024-11-12T18:22:18.440Z""","null","+","null","","","","","","",""
"","","","","","image-keyboard-response","17","59624","0.0-10.0-0.0-1.3","mxg3vzrhzc","","mxg3vzrhzc","""2024-11-12T18:22:18.440Z""","1987","materials/imgs/D56.png","arrowright","","[""materials/imgs/D21.png"",""materials/imgs/D49.png""]","false","random","","",""
"","","","","","html-keyboard-response","18","60126","0.0-10.0-0.0-0.4","mxg3vzrhzc","","mxg3vzrhzc","""2024-11-12T18:22:18.440Z""","null","+","null","","","","","","",""
"","","","","","image-keyboard-response","19","62595","0.0-10.0-0.0-1.4","mxg3vzrhzc","","mxg3vzrhzc","""2024-11-12T18:22:18.440Z""","2466","materials/imgs/D68.png","arrowright","","[""materials/imgs/D65.png"",""materials/imgs/D77.png""]","false","random","","",""
"","","","","","html-keyboard-response","20","63098","0.0-10.0-0.0-0.5","mxg3vzrhzc","","mxg3vzrhzc","""2024-11-12T18:22:18.440Z""","null","+","null","","","","","","",""
"","","","","","image-keyboard-response","21","65566","0.0-10.0-0.0-1.5","mxg3vzrhzc","","mxg3vzrhzc","""2024-11-12T18:22:18.440Z""","2465","materials/imgs/D65.png","arrowright","","[""materials/imgs/D14.png"",""materials/imgs/D8.png""]","false","random","","",""
"","","","","","html-keyboard-response","22","66067","0.0-10.0-0.0-0.6","mxg3vzrhzc","","mxg3vzrhzc","""2024-11-12T18:22:18.440Z""","null","+","null","","","","","","",""
"","","","","","image-keyboard-response","23","67169","0.0-10.0-0.0-1.6","mxg3vzrhzc","","mxg3vzrhzc","""2024-11-12T18:22:18.440Z""","1099","materials/imgs/D14.png","arrowright","","[""materials/imgs/D85.png"",""materials/imgs/D6.png""]","false","random","","",""
"","","","","","html-keyboard-response","24","67670","0.0-10.0-0.0-0.7","mxg3vzrhzc","","mxg3vzrhzc","""2024-11-12T18:22:18.440Z""","null","+","null","","","","","","",""
"","","","","","image-keyboard-response","25","71073","0.0-10.0-0.0-1.7","mxg3vzrhzc","","mxg3vzrhzc","""2024-11-12T18:22:18.440Z""","3400","materials/imgs/D1.png","arrowleft","","[""materials/imgs/D47.png"",""materials/imgs/D32.png""]","false","random","","",""
"","","","","","html-keyboard-response","26","71574","0.0-10.0-0.0-0.8","mxg3vzrhzc","","mxg3vzrhzc","""2024-11-12T18:22:18.440Z""","null","+","null","","","","","","",""
"","","","","","image-keyboard-response","27","72869","0.0-10.0-0.0-1.8","mxg3vzrhzc","","mxg3vzrhzc","""2024-11-12T18:22:18.440Z""","1292","materials/imgs/D51.png","arrowright","","[""materials/imgs/D57.png"",""materials/imgs/D79.png""]","false","random","","",""
"","","","","","html-keyboard-response","28","73370","0.0-10.0-0.0-0.9","mxg3vzrhzc","","mxg3vzrhzc","""2024-11-12T18:22:18.440Z""","null","+","null","","","","","","",""
"","","","","","image-keyboard-response","29","76954","0.0-10.0-0.0-1.9","mxg3vzrhzc","","mxg3vzrhzc","""2024-11-12T18:22:18.440Z""","3582","materials/imgs/D36.png","arrowright","","[""materials/imgs/D82.png"",""materials/imgs/D77.png""]","false","random","","",""
"","","","","","html-button-response","30","80332","0.0-11.0","mxg3vzrhzc","","mxg3vzrhzc","""2024-11-12T18:22:18.440Z""","3377","<p>Great job!</p>
      <p>You are now ready to begin the experiment.</p>
      <p>There will be around 200 trials. You will have opportunities to take breaks at three stages of the trials.</p>
      <p>When you are ready to begin please click 'Continue'.</p>","0","","","","","","",""
"","","","","","html-keyboard-response","31","82837","0.0-12.0","mxg3vzrhzc","","mxg3vzrhzc","""2024-11-12T18:22:18.440Z""","null","+","null","","","","","","",""
"","","","","","html-keyboard-response","32","83340","0.0-13.0-0.0-0.0","mxg3vzrhzc","","mxg3vzrhzc","""2024-11-12T18:22:18.440Z""","null","+","null","","","","","","",""
"","","","","","image-keyboard-response","33","85890","0.0-13.0-0.0-1.0","mxg3vzrhzc","","mxg3vzrhzc","""2024-11-12T18:22:18.440Z""","2548","materials/imgs/D16.png","arrowleft","","[""materials/imgs/D103.png"",""materials/imgs/D34.png""]","false","random","","",""
"","","","","","html-keyboard-response","34","86392","0.0-13.0-0.0-0.1","mxg3vzrhzc","","mxg3vzrhzc","""2024-11-12T18:22:18.440Z""","null","+","null","","","","","","",""
"","","","","","image-keyboard-response","35","87714","0.0-13.0-0.0-1.1","mxg3vzrhzc","","mxg3vzrhzc","""2024-11-12T18:22:18.440Z""","1320","materials/imgs/D21.png","arrowleft","","[""materials/imgs/D76.png"",""materials/imgs/D57.png""]","false","random","","",""
"","","","","","html-keyboard-response","36","88216","0.0-13.0-0.0-0.2","mxg3vzrhzc","","mxg3vzrhzc","""2024-11-12T18:22:18.440Z""","null","+","null","","","","","","",""
"","","","","","image-keyboard-response","37","91187","0.0-13.0-0.0-1.2","mxg3vzrhzc","","mxg3vzrhzc","""2024-11-12T18:22:18.440Z""","2970","materials/imgs/D53.png","arrowleft","","[""materials/imgs/D29.png"",""materials/imgs/D65.png""]","false","random","","",""
"","","","","","html-keyboard-response","38","91689","0.0-13.0-0.0-0.3","mxg3vzrhzc","","mxg3vzrhzc","""2024-11-12T18:22:18.440Z""","null","+","null","","","","","","",""
"","","","","","image-keyboard-response","39","93390","0.0-13.0-0.0-1.3","mxg3vzrhzc","","mxg3vzrhzc","""2024-11-12T18:22:18.440Z""","1700","materials/imgs/D111.png","arrowleft","","[""materials/imgs/D9.png"",""materials/imgs/D8.png""]","false","random","","",""
"","","","","","html-keyboard-response","40","93891","0.0-13.0-0.0-0.4","mxg3vzrhzc","","mxg3vzrhzc","""2024-11-12T18:22:18.440Z""","null","+","null","","","","","","",""
"","","","","","image-keyboard-response","41","96567","0.0-13.0-0.0-1.4","mxg3vzrhzc","","mxg3vzrhzc","""2024-11-12T18:22:18.440Z""","2675","materials/imgs/D84.png","arrowright","","[""materials/imgs/D101.png"",""materials/imgs/D8.png""]","false","random","","",""
"","","","","","html-keyboard-response","42","97068","0.0-13.0-0.0-0.5","mxg3vzrhzc","","mxg3vzrhzc","""2024-11-12T18:22:18.440Z""","null","+","null","","","","","","",""
"","","","","","image-keyboard-response","43","98853","0.0-13.0-0.0-1.5","mxg3vzrhzc","","mxg3vzrhzc","""2024-11-12T18:22:18.440Z""","1782","materials/imgs/D51.png","arrowleft","","[""materials/imgs/D87.png"",""materials/imgs/D18.png""]","false","random","","",""
"","","","","","html-keyboard-response","44","99354","0.0-13.0-0.0-0.6","mxg3vzrhzc","","mxg3vzrhzc","""2024-11-12T18:22:18.440Z""","null","+","null","","","","","","",""
"","","","","","image-keyboard-response","45","100896","0.0-13.0-0.0-1.6","mxg3vzrhzc","","mxg3vzrhzc","""2024-11-12T18:22:18.440Z""","1540","materials/imgs/D1.png","arrowright","","[""materials/imgs/D81.png"",""materials/imgs/D82.png""]","false","random","","",""
"","","","","","html-keyboard-response","46","101398","0.0-13.0-1.0-0.0","mxg3vzrhzc","","mxg3vzrhzc","""2024-11-12T18:22:18.440Z""","null","+","null","","","","","","",""
"","","","","","image-keyboard-response","47","102180","0.0-13.0-1.0-1.0","mxg3vzrhzc","","mxg3vzrhzc","""2024-11-12T18:22:18.440Z""","780","materials/imgs/D64.png","arrowleft","","[""materials/imgs/D64.png"",""materials/imgs/D53.png""]","","check","materials/imgs/D64.png","0","true"
"","","","","","html-keyboard-response","48","102682","0.0-13.0-2.0-0.0","mxg3vzrhzc","","mxg3vzrhzc","""2024-11-12T18:22:18.440Z""","null","+","null","","","","","","",""
"","","","","","image-keyboard-response","49","104473","0.0-13.0-2.0-1.0","mxg3vzrhzc","","mxg3vzrhzc","""2024-11-12T18:22:18.440Z""","1788","materials/imgs/D3.png","arrowleft","","[""materials/imgs/D79.png"",""materials/imgs/D48.png""]","false","validation","","",""
"","","","","","html-keyboard-response","50","104975","0.0-13.0-2.0-0.1","mxg3vzrhzc","","mxg3vzrhzc","""2024-11-12T18:22:18.440Z""","null","+","null","","","","","","",""
"","","","","","image-keyboard-response","51","108479","0.0-13.0-2.0-1.1","mxg3vzrhzc","","mxg3vzrhzc","""2024-11-12T18:22:18.440Z""","3503","materials/imgs/D68.png","arrowleft","","[""materials/imgs/D96.png"",""materials/imgs/D48.png""]","false","validation","","",""
"","","","","","html-keyboard-response","52","108981","0.0-13.0-0.1-0.7","mxg3vzrhzc","","mxg3vzrhzc","""2024-11-12T18:22:18.440Z""","null","+","null","","","","","","",""
"","","","","","image-keyboard-response","53","110480","0.0-13.0-0.1-1.7","mxg3vzrhzc","","mxg3vzrhzc","""2024-11-12T18:22:18.440Z""","1497","materials/imgs/D3.png","arrowright","","[""materials/imgs/D49.png"",""materials/imgs/D81.png""]","false","random","","",""
"","","","","","html-keyboard-response","54","110981","0.0-13.0-0.1-0.8","mxg3vzrhzc","","mxg3vzrhzc","""2024-11-12T18:22:18.440Z""","null","+","null","","","","","","",""
"","","","","","image-keyboard-response","55","115392","0.0-13.0-0.1-1.8","mxg3vzrhzc","","mxg3vzrhzc","""2024-11-12T18:22:18.440Z""","4409","materials/imgs/D11.png","arrowright","","[""materials/imgs/D74.png"",""materials/imgs/D20.png""]","false","random","","",""
"","","","","","html-keyboard-response","56","115893","0.0-13.0-0.1-0.9","mxg3vzrhzc","","mxg3vzrhzc","""2024-11-12T18:22:18.440Z""","null","+","null","","","","","","",""
"","","","","","image-keyboard-response","57","117720","0.0-13.0-0.1-1.9","mxg3vzrhzc","","mxg3vzrhzc","""2024-11-12T18:22:18.440Z""","1824","materials/imgs/D85.png","arrowright","","[""materials/imgs/D75.png"",""materials/imgs/D101.png""]","false","random","","",""
"","","","","","html-keyboard-response","58","118222","0.0-13.0-0.1-0.10","mxg3vzrhzc","","mxg3vzrhzc","""2024-11-12T18:22:18.440Z""","null","+","null","","","","","","",""
"","","","","","image-keyboard-response","59","120519","0.0-13.0-0.1-1.10","mxg3vzrhzc","","mxg3vzrhzc","""2024-11-12T18:22:18.440Z""","2295","materials/imgs/D55.png","arrowright","","[""materials/imgs/D37.png"",""materials/imgs/D78.png""]","false","random","","",""
"","","","","","html-keyboard-response","60","121020","0.0-13.0-0.1-0.11","mxg3vzrhzc","","mxg3vzrhzc","""2024-11-12T18:22:18.440Z""","null","+","null","","","","","","",""
"","","","","","image-keyboard-response","61","122664","0.0-13.0-0.1-1.11","mxg3vzrhzc","","mxg3vzrhzc","""2024-11-12T18:22:18.440Z""","1642","materials/imgs/D87.png","arrowright","","[""materials/imgs/D26.png"",""materials/imgs/D66.png""]","false","random","","",""
"","","","","","html-keyboard-response","62","123165","0.0-13.0-0.1-0.12","mxg3vzrhzc","","mxg3vzrhzc","""2024-11-12T18:22:18.440Z""","null","+","null","","","","","","",""
"","","","","","image-keyboard-response","63","125373","0.0-13.0-0.1-1.12","mxg3vzrhzc","","mxg3vzrhzc","""2024-11-12T18:22:18.440Z""","2207","materials/imgs/D35.png","arrowright","","[""materials/imgs/D48.png"",""materials/imgs/D37.png""]","false","random","","",""
"","","","","","html-keyboard-response","64","125874","0.0-13.0-0.1-0.13","mxg3vzrhzc","","mxg3vzrhzc","""2024-11-12T18:22:18.440Z""","null","+","null","","","","","","",""
"","","","","","image-keyboard-response","65","127358","0.0-13.0-0.1-1.13","mxg3vzrhzc","","mxg3vzrhzc","""2024-11-12T18:22:18.440Z""","1482","materials/imgs/D64.png","arrowright","","[""materials/imgs/D78.png"",""materials/imgs/D104.png""]","false","random","","",""
"","","","","","html-keyboard-response","66","127860","0.0-13.0-1.1-0.1","mxg3vzrhzc","","mxg3vzrhzc","""2024-11-12T18:22:18.440Z""","null","+","null","","","","","","",""
"","","","","","image-keyboard-response","67","128751","0.0-13.0-1.1-1.1","mxg3vzrhzc","","mxg3vzrhzc","""2024-11-12T18:22:18.440Z""","890","materials/imgs/D78.png","arrowright","","[""materials/imgs/D76.png"",""materials/imgs/D78.png""]","","check","materials/imgs/D78.png","1","true"
"","","","","","html-keyboard-response","68","129252","0.0-13.0-2.1-0.2","mxg3vzrhzc","","mxg3vzrhzc","""2024-11-12T18:22:18.440Z""","null","+","null","","","","","","",""
"","","","","","image-keyboard-response","69","131302","0.0-13.0-2.1-1.2","mxg3vzrhzc","","mxg3vzrhzc","""2024-11-12T18:22:18.440Z""","2049","materials/imgs/D66.png","arrowleft","","[""materials/imgs/D85.png"",""materials/imgs/D25.png""]","false","validation","","",""
"","","","","","html-keyboard-response","70","131803","0.0-13.0-2.1-0.3","mxg3vzrhzc","","mxg3vzrhzc","""2024-11-12T18:22:18.440Z""","null","+","null","","","","","","",""
"","","","","","image-keyboard-response","71","133624","0.0-13.0-2.1-1.3","mxg3vzrhzc","","mxg3vzrhzc","""2024-11-12T18:22:18.440Z""","1819","materials/imgs/D52.png","arrowright","","[""materials/imgs/D9.png"",""materials/imgs/D19.png""]","false","validation","","",""
"","","","","","html-keyboard-response","72","134125","0.0-13.0-0.2-0.14","mxg3vzrhzc","","mxg3vzrhzc","""2024-11-12T18:22:18.440Z""","null","+","null","","","","","","",""
"","","","","","image-keyboard-response","73","137412","0.0-13.0-0.2-1.14","mxg3vzrhzc","","mxg3vzrhzc","""2024-11-12T18:22:18.440Z""","3285","materials/imgs/D94.png","arrowright","","[""materials/imgs/D111.png"",""materials/imgs/D8.png""]","false","random","","",""
"","","","","","html-keyboard-response","74","137914","0.0-13.0-0.2-0.15","mxg3vzrhzc","","mxg3vzrhzc","""2024-11-12T18:22:18.440Z""","null","+","null","","","","","","",""
"","","","","","image-keyboard-response","75","139694","0.0-13.0-0.2-1.15","mxg3vzrhzc","","mxg3vzrhzc","""2024-11-12T18:22:18.440Z""","1778","materials/imgs/D8.png","arrowright","","[""materials/imgs/D49.png"",""materials/imgs/D92.png""]","false","random","","",""
"","","","","","html-keyboard-response","76","140196","0.0-13.0-0.2-0.16","mxg3vzrhzc","","mxg3vzrhzc","""2024-11-12T18:22:18.440Z""","null","+","null","","","","","","",""
"","","","","","image-keyboard-response","77","142128","0.0-13.0-0.2-1.16","mxg3vzrhzc","","mxg3vzrhzc","""2024-11-12T18:22:18.440Z""","1930","materials/imgs/D36.png","arrowright","","[""materials/imgs/D105.png"",""materials/imgs/D66.png""]","false","random","","",""
"","","","","","html-keyboard-response","78","142629","0.0-13.0-0.2-0.17","mxg3vzrhzc","","mxg3vzrhzc","""2024-11-12T18:22:18.440Z""","null","+","null","","","","","","",""
"","","","","","image-keyboard-response","79","143500","0.0-13.0-0.2-1.17","mxg3vzrhzc","","mxg3vzrhzc","""2024-11-12T18:22:18.440Z""","868","materials/imgs/D75.png","arrowright","","[""materials/imgs/D25.png"",""materials/imgs/D111.png""]","false","random","","",""
"","","","","","html-keyboard-response","80","144001","0.0-13.0-0.2-0.18","mxg3vzrhzc","","mxg3vzrhzc","""2024-11-12T18:22:18.440Z""","null","+","null","","","","","","",""
"","","","","","image-keyboard-response","81","145634","0.0-13.0-0.2-1.18","mxg3vzrhzc","","mxg3vzrhzc","""2024-11-12T18:22:18.440Z""","1631","materials/imgs/D47.png","arrowright","","[""materials/imgs/D84.png"",""materials/imgs/D64.png""]","false","random","","",""
"","","","","","html-keyboard-response","82","146135","0.0-13.0-0.2-0.19","mxg3vzrhzc","","mxg3vzrhzc","""2024-11-12T18:22:18.440Z""","null","+","null","","","","","","",""
"","","","","","image-keyboard-response","83","146870","0.0-13.0-0.2-1.19","mxg3vzrhzc","","mxg3vzrhzc","""2024-11-12T18:22:18.440Z""","733","materials/imgs/D64.png","arrowleft","","[""materials/imgs/D18.png"",""materials/imgs/D105.png""]","false","random","","",""
"","","","","","html-keyboard-response","84","147372","0.0-13.0-0.2-0.20","mxg3vzrhzc","","mxg3vzrhzc","""2024-11-12T18:22:18.440Z""","null","+","null","","","","","","",""
"","","","","","image-keyboard-response","85","148487","0.0-13.0-0.2-1.20","mxg3vzrhzc","","mxg3vzrhzc","""2024-11-12T18:22:18.440Z""","1114","materials/imgs/D51.png","arrowright","","[""materials/imgs/D84.png"",""materials/imgs/D79.png""]","false","random","","",""
"","","","","","html-keyboard-response","86","148989","0.0-13.0-1.2-0.2","mxg3vzrhzc","","mxg3vzrhzc","""2024-11-12T18:22:18.440Z""","null","+","null","","","","","","",""
"","","","","","image-keyboard-response","87","149637","0.0-13.0-1.2-1.2","mxg3vzrhzc","","mxg3vzrhzc","""2024-11-12T18:22:18.440Z""","646","materials/imgs/D106.png","arrowleft","","[""materials/imgs/D106.png"",""materials/imgs/D101.png""]","","check","materials/imgs/D106.png","0","true"
"","","","","","html-keyboard-response","88","150138","0.0-13.0-2.2-0.4","mxg3vzrhzc","","mxg3vzrhzc","""2024-11-12T18:22:18.440Z""","null","+","null","","","","","","",""
"","","","","","image-keyboard-response","89","152339","0.0-13.0-2.2-1.4","mxg3vzrhzc","","mxg3vzrhzc","""2024-11-12T18:22:18.440Z""","2199","materials/imgs/D37.png","arrowright","","[""materials/imgs/D84.png"",""materials/imgs/D111.png""]","false","validation","","",""
"","","","","","html-keyboard-response","90","152840","0.0-13.0-2.2-0.5","mxg3vzrhzc","","mxg3vzrhzc","""2024-11-12T18:22:18.440Z""","null","+","null","","","","","","",""
"","","","","","image-keyboard-response","91","156695","0.0-13.0-2.2-1.5","mxg3vzrhzc","","mxg3vzrhzc","""2024-11-12T18:22:18.440Z""","3853","materials/imgs/D101.png","arrowright","","[""materials/imgs/D76.png"",""materials/imgs/D47.png""]","false","validation","","",""
"","","","","","html-keyboard-response","92","157196","0.0-13.0-0.3-0.21","mxg3vzrhzc","","mxg3vzrhzc","""2024-11-12T18:22:18.440Z""","null","+","null","","","","","","",""
"","","","","","image-keyboard-response","93","161729","0.0-13.0-0.3-1.21","mxg3vzrhzc","","mxg3vzrhzc","""2024-11-12T18:22:18.440Z""","4531","materials/imgs/D77.png","arrowright","","[""materials/imgs/D95.png"",""materials/imgs/D101.png""]","false","random","","",""
"","","","","","html-keyboard-response","94","162230","0.0-13.0-0.3-0.22","mxg3vzrhzc","","mxg3vzrhzc","""2024-11-12T18:22:18.440Z""","null","+","null","","","","","","",""
"","","","","","image-keyboard-response","95","163511","0.0-13.0-0.3-1.22","mxg3vzrhzc","","mxg3vzrhzc","""2024-11-12T18:22:18.440Z""","1278","materials/imgs/D48.png","arrowright","","[""materials/imgs/D56.png"",""materials/imgs/D4.png""]","false","random","","",""
"","","","","","html-keyboard-response","96","164012","0.0-13.0-0.3-0.23","mxg3vzrhzc","","mxg3vzrhzc","""2024-11-12T18:22:18.440Z""","null","+","null","","","","","","",""
"","","","","","image-keyboard-response","97","165670","0.0-13.0-0.3-1.23","mxg3vzrhzc","","mxg3vzrhzc","""2024-11-12T18:22:18.440Z""","1656","materials/imgs/D16.png","arrowleft","","[""materials/imgs/D21.png"",""materials/imgs/D52.png""]","false","random","","",""
"","","","","","html-keyboard-response","98","166171","0.0-13.0-0.3-0.24","mxg3vzrhzc","","mxg3vzrhzc","""2024-11-12T18:22:18.440Z""","null","+","null","","","","","","",""
"","","","","","image-keyboard-response","99","167931","0.0-13.0-0.3-1.24","mxg3vzrhzc","","mxg3vzrhzc","""2024-11-12T18:22:18.440Z""","1759","materials/imgs/D80.png","arrowleft","","[""materials/imgs/D111.png"",""materials/imgs/D75.png""]","false","random","","",""
"","","","","","html-keyboard-response","100","168432","0.0-13.0-0.3-0.25","mxg3vzrhzc","","mxg3vzrhzc","""2024-11-12T18:22:18.440Z""","null","+","null","","","","","","",""
"","","","","","image-keyboard-response","101","173139","0.0-13.0-0.3-1.25","mxg3vzrhzc","","mxg3vzrhzc","""2024-11-12T18:22:18.440Z""","4704","materials/imgs/D65.png","arrowleft","","[""materials/imgs/D14.png"",""materials/imgs/D16.png""]","false","random","","",""
"","","","","","html-keyboard-response","102","173640","0.0-13.0-0.3-0.26","mxg3vzrhzc","","mxg3vzrhzc","""2024-11-12T18:22:18.440Z""","null","+","null","","","","","","",""
"","","","","","image-keyboard-response","103","177419","0.0-13.0-0.3-1.26","mxg3vzrhzc","","mxg3vzrhzc","""2024-11-12T18:22:18.440Z""","3777","materials/imgs/D111.png","arrowleft","","[""materials/imgs/D80.png"",""materials/imgs/D82.png""]","false","random","","",""
"","","","","","html-keyboard-response","104","177921","0.0-13.0-0.3-0.27","mxg3vzrhzc","","mxg3vzrhzc","""2024-11-12T18:22:18.440Z""","null","+","null","","","","","","",""
"","","","","","image-keyboard-response","105","179743","0.0-13.0-0.3-1.27","mxg3vzrhzc","","mxg3vzrhzc","""2024-11-12T18:22:18.440Z""","1820","materials/imgs/D8.png","arrowleft","","[""materials/imgs/D24.png"",""materials/imgs/D85.png""]","false","random","","",""
"","","","","","html-keyboard-response","106","180246","0.0-13.0-1.3-0.3","mxg3vzrhzc","","mxg3vzrhzc","""2024-11-12T18:22:18.440Z""","null","+","null","","","","","","",""
"","","","","","image-keyboard-response","107","181043","0.0-13.0-1.3-1.3","mxg3vzrhzc","","mxg3vzrhzc","""2024-11-12T18:22:18.440Z""","796","materials/imgs/D26.png","arrowleft","","[""materials/imgs/D26.png"",""materials/imgs/D46.png""]","","check","materials/imgs/D26.png","0","true"
"","","","","","html-keyboard-response","108","181545","0.0-13.0-2.3-0.6","mxg3vzrhzc","","mxg3vzrhzc","""2024-11-12T18:22:18.440Z""","null","+","null","","","","","","",""
"","","","","","image-keyboard-response","109","183064","0.0-13.0-2.3-1.6","mxg3vzrhzc","","mxg3vzrhzc","""2024-11-12T18:22:18.440Z""","1518","materials/imgs/D79.png","arrowleft","","[""materials/imgs/D51.png"",""materials/imgs/D64.png""]","false","validation","","",""
"","","","","","html-keyboard-response","110","183566","0.0-13.0-2.3-0.7","mxg3vzrhzc","","mxg3vzrhzc","""2024-11-12T18:22:18.440Z""","null","+","null","","","","","","",""
"","","","","","image-keyboard-response","111","187391","0.0-13.0-2.3-1.7","mxg3vzrhzc","","mxg3vzrhzc","""2024-11-12T18:22:18.440Z""","3825","materials/imgs/D95.png","arrowright","","[""materials/imgs/D36.png"",""materials/imgs/D4.png""]","false","validation","","",""
"","","","","","html-keyboard-response","112","187893","0.0-13.0-0.4-0.28","mxg3vzrhzc","","mxg3vzrhzc","""2024-11-12T18:22:18.440Z""","null","+","null","","","","","","",""
"","","","","","image-keyboard-response","113","189590","0.0-13.0-0.4-1.28","mxg3vzrhzc","","mxg3vzrhzc","""2024-11-12T18:22:18.440Z""","1694","materials/imgs/D48.png","arrowleft","","[""materials/imgs/D85.png"",""materials/imgs/D51.png""]","false","random","","",""
"","","","","","html-keyboard-response","114","190092","0.0-13.0-0.4-0.29","mxg3vzrhzc","","mxg3vzrhzc","""2024-11-12T18:22:18.440Z""","null","+","null","","","","","","",""
"","","","","","image-keyboard-response","115","190961","0.0-13.0-0.4-1.29","mxg3vzrhzc","","mxg3vzrhzc","""2024-11-12T18:22:18.440Z""","867","materials/imgs/D18.png","arrowleft","","[""materials/imgs/D47.png"",""materials/imgs/D22.png""]","false","random","","",""
"","","","","","html-keyboard-response","116","191462","0.0-13.0-0.4-0.30","mxg3vzrhzc","","mxg3vzrhzc","""2024-11-12T18:22:18.440Z""","null","+","null","","","","","","",""
"","","","","","image-keyboard-response","117","193740","0.0-13.0-0.4-1.30","mxg3vzrhzc","","mxg3vzrhzc","""2024-11-12T18:22:18.440Z""","2275","materials/imgs/D74.png","arrowright","","[""materials/imgs/D56.png"",""materials/imgs/D46.png""]","false","random","","",""
"","","","","","html-keyboard-response","118","194241","0.0-13.0-0.4-0.31","mxg3vzrhzc","","mxg3vzrhzc","""2024-11-12T18:22:18.440Z""","null","+","null","","","","","","",""
"","","","","","image-keyboard-response","119","195968","0.0-13.0-0.4-1.31","mxg3vzrhzc","","mxg3vzrhzc","""2024-11-12T18:22:18.440Z""","1725","materials/imgs/D101.png","arrowleft","","[""materials/imgs/D92.png"",""materials/imgs/D29.png""]","false","random","","",""
"","","","","","html-keyboard-response","120","196469","0.0-13.0-0.4-0.32","mxg3vzrhzc","","mxg3vzrhzc","""2024-11-12T18:22:18.440Z""","null","+","null","","","","","","",""
"","","","","","image-keyboard-response","121","199782","0.0-13.0-0.4-1.32","mxg3vzrhzc","","mxg3vzrhzc","""2024-11-12T18:22:18.440Z""","3311","materials/imgs/D46.png","arrowright","","[""materials/imgs/D65.png"",""materials/imgs/D74.png""]","false","random","","",""
"","","","","","html-keyboard-response","122","200284","0.0-13.0-0.4-0.33","mxg3vzrhzc","","mxg3vzrhzc","""2024-11-12T18:22:18.440Z""","null","+","null","","","","","","",""
"","","","","","image-keyboard-response","123","202600","0.0-13.0-0.4-1.33","mxg3vzrhzc","","mxg3vzrhzc","""2024-11-12T18:22:18.440Z""","2314","materials/imgs/D76.png","arrowleft","","[""materials/imgs/D1.png"",""materials/imgs/D26.png""]","false","random","","",""
"","","","","","html-keyboard-response","124","203101","0.0-13.0-0.4-0.34","mxg3vzrhzc","","mxg3vzrhzc","""2024-11-12T18:22:18.440Z""","null","+","null","","","","","","",""
"","","","","","image-keyboard-response","125","204381","0.0-13.0-0.4-1.34","mxg3vzrhzc","","mxg3vzrhzc","""2024-11-12T18:22:18.440Z""","1278","materials/imgs/D53.png","arrowright","","[""materials/imgs/D34.png"",""materials/imgs/D16.png""]","false","random","","",""
"","","","","","html-keyboard-response","126","204885","0.0-13.0-1.4-0.4","mxg3vzrhzc","","mxg3vzrhzc","""2024-11-12T18:22:18.440Z""","null","+","null","","","","","","",""
"","","","","","image-keyboard-response","127","205990","0.0-13.0-1.4-1.4","mxg3vzrhzc","","mxg3vzrhzc","""2024-11-12T18:22:18.440Z""","1103","materials/imgs/D18.png","arrowright","","[""materials/imgs/D8.png"",""materials/imgs/D18.png""]","","check","materials/imgs/D18.png","1","true"
"","","","","","html-keyboard-response","128","206491","0.0-13.0-2.4-0.8","mxg3vzrhzc","","mxg3vzrhzc","""2024-11-12T18:22:18.440Z""","null","+","null","","","","","","",""
"","","","","","image-keyboard-response","129","207861","0.0-13.0-2.4-1.8","mxg3vzrhzc","","mxg3vzrhzc","""2024-11-12T18:22:18.440Z""","1369","materials/imgs/D32.png","arrowleft","","[""materials/imgs/D68.png"",""materials/imgs/D96.png""]","false","validation","","",""
"","","","","","html-keyboard-response","130","208362","0.0-13.0-2.4-0.9","mxg3vzrhzc","","mxg3vzrhzc","""2024-11-12T18:22:18.440Z""","null","+","null","","","","","","",""
"","","","","","image-keyboard-response","131","210756","0.0-13.0-2.4-1.9","mxg3vzrhzc","","mxg3vzrhzc","""2024-11-12T18:22:18.440Z""","2393","materials/imgs/D48.png","arrowleft","","[""materials/imgs/D4.png"",""materials/imgs/D37.png""]","false","validation","","",""
"","","","","","html-button-response","132","212715","0.0-14.0","mxg3vzrhzc","","mxg3vzrhzc","""2024-11-12T18:22:18.440Z""","1958","You have completed 25% of the trials. Please click 'Continue' when you are ready proceed.","0","","","","","","",""
"","","","","","html-keyboard-response","133","213217","0.0-15.0-0.0-0.0","mxg3vzrhzc","","mxg3vzrhzc","""2024-11-12T18:22:18.440Z""","null","+","null","","","","","","",""
"","","","","","image-keyboard-response","134","214716","0.0-15.0-0.0-1.0","mxg3vzrhzc","","mxg3vzrhzc","""2024-11-12T18:22:18.440Z""","1498","materials/imgs/D55.png","arrowright","","[""materials/imgs/D29.png"",""materials/imgs/D17.png""]","false","random","","",""
"","","","","","html-keyboard-response","135","215217","0.0-15.0-0.0-0.1","mxg3vzrhzc","","mxg3vzrhzc","""2024-11-12T18:22:18.440Z""","null","+","null","","","","","","",""
"","","","","","image-keyboard-response","136","216414","0.0-15.0-0.0-1.1","mxg3vzrhzc","","mxg3vzrhzc","""2024-11-12T18:22:18.440Z""","1195","materials/imgs/D19.png","arrowright","","[""materials/imgs/D77.png"",""materials/imgs/D24.png""]","false","random","","",""
"","","","","","html-keyboard-response","137","216916","0.0-15.0-0.0-0.2","mxg3vzrhzc","","mxg3vzrhzc","""2024-11-12T18:22:18.440Z""","null","+","null","","","","","","",""
"","","","","","image-keyboard-response","138","217967","0.0-15.0-0.0-1.2","mxg3vzrhzc","","mxg3vzrhzc","""2024-11-12T18:22:18.440Z""","1048","materials/imgs/D11.png","arrowleft","","[""materials/imgs/D21.png"",""materials/imgs/D74.png""]","false","random","","",""
"","","","","","html-keyboard-response","139","218469","0.0-15.0-0.0-0.3","mxg3vzrhzc","","mxg3vzrhzc","""2024-11-12T18:22:18.440Z""","null","+","null","","","","","","",""
"","","","","","image-keyboard-response","140","219577","0.0-15.0-0.0-1.3","mxg3vzrhzc","","mxg3vzrhzc","""2024-11-12T18:22:18.440Z""","1106","materials/imgs/D94.png","arrowright","","[""materials/imgs/D48.png"",""materials/imgs/D83.png""]","false","random","","",""
"","","","","","html-keyboard-response","141","220079","0.0-15.0-0.0-0.4","mxg3vzrhzc","","mxg3vzrhzc","""2024-11-12T18:22:18.440Z""","null","+","null","","","","","","",""
"","","","","","image-keyboard-response","142","220957","0.0-15.0-0.0-1.4","mxg3vzrhzc","","mxg3vzrhzc","""2024-11-12T18:22:18.440Z""","876","materials/imgs/D34.png","arrowright","","[""materials/imgs/D84.png"",""materials/imgs/D3.png""]","false","random","","",""
"","","","","","html-keyboard-response","143","221458","0.0-15.0-0.0-0.5","mxg3vzrhzc","","mxg3vzrhzc","""2024-11-12T18:22:18.440Z""","null","+","null","","","","","","",""
"","","","","","image-keyboard-response","144","222871","0.0-15.0-0.0-1.5","mxg3vzrhzc","","mxg3vzrhzc","""2024-11-12T18:22:18.440Z""","1411","materials/imgs/D65.png","arrowleft","","[""materials/imgs/D103.png"",""materials/imgs/D85.png""]","false","random","","",""
"","","","","","html-keyboard-response","145","223372","0.0-15.0-0.0-0.6","mxg3vzrhzc","","mxg3vzrhzc","""2024-11-12T18:22:18.440Z""","null","+","null","","","","","","",""
"","","","","","image-keyboard-response","146","224922","0.0-15.0-0.0-1.6","mxg3vzrhzc","","mxg3vzrhzc","""2024-11-12T18:22:18.440Z""","1548","materials/imgs/D37.png","arrowright","","[""materials/imgs/D85.png"",""materials/imgs/D36.png""]","false","random","","",""
"","","","","","html-keyboard-response","147","225424","0.0-15.0-1.0-0.0","mxg3vzrhzc","","mxg3vzrhzc","""2024-11-12T18:22:18.440Z""","null","+","null","","","","","","",""
"","","","","","image-keyboard-response","148","226115","0.0-15.0-1.0-1.0","mxg3vzrhzc","","mxg3vzrhzc","""2024-11-12T18:22:18.440Z""","689","materials/imgs/D106.png","arrowleft","","[""materials/imgs/D106.png"",""materials/imgs/D101.png""]","","check","materials/imgs/D106.png","0","true"
"","","","","","html-keyboard-response","149","226616","0.0-15.0-2.0-0.0","mxg3vzrhzc","","mxg3vzrhzc","""2024-11-12T18:22:18.440Z""","null","+","null","","","","","","",""
"","","","","","image-keyboard-response","150","228745","0.0-15.0-2.0-1.0","mxg3vzrhzc","","mxg3vzrhzc","""2024-11-12T18:22:18.440Z""","2128","materials/imgs/D96.png","arrowright","","[""materials/imgs/D46.png"",""materials/imgs/D18.png""]","false","validation","","",""
"","","","","","html-keyboard-response","151","229247","0.0-15.0-2.0-0.1","mxg3vzrhzc","","mxg3vzrhzc","""2024-11-12T18:22:18.440Z""","null","+","null","","","","","","",""
"","","","","","image-keyboard-response","152","230219","0.0-15.0-2.0-1.1","mxg3vzrhzc","","mxg3vzrhzc","""2024-11-12T18:22:18.440Z""","970","materials/imgs/D48.png","arrowleft","","[""materials/imgs/D4.png"",""materials/imgs/D37.png""]","false","validation","","",""
"","","","","","html-keyboard-response","153","230720","0.0-15.0-0.1-0.7","mxg3vzrhzc","","mxg3vzrhzc","""2024-11-12T18:22:18.440Z""","null","+","null","","","","","","",""
"","","","","","image-keyboard-response","154","234000","0.0-15.0-0.1-1.7","mxg3vzrhzc","","mxg3vzrhzc","""2024-11-12T18:22:18.440Z""","3277","materials/imgs/D20.png","arrowright","","[""materials/imgs/D105.png"",""materials/imgs/D9.png""]","false","random","","",""
"","","","","","html-keyboard-response","155","234501","0.0-15.0-0.1-0.8","mxg3vzrhzc","","mxg3vzrhzc","""2024-11-12T18:22:18.440Z""","null","+","null","","","","","","",""
"","","","","","image-keyboard-response","156","237763","0.0-15.0-0.1-1.8","mxg3vzrhzc","","mxg3vzrhzc","""2024-11-12T18:22:18.440Z""","3259","materials/imgs/D19.png","arrowleft","","[""materials/imgs/D111.png"",""materials/imgs/D34.png""]","false","random","","",""
"","","","","","html-keyboard-response","157","238264","0.0-15.0-0.1-0.9","mxg3vzrhzc","","mxg3vzrhzc","""2024-11-12T18:22:18.440Z""","null","+","null","","","","","","",""
"","","","","","image-keyboard-response","158","239661","0.0-15.0-0.1-1.9","mxg3vzrhzc","","mxg3vzrhzc","""2024-11-12T18:22:18.440Z""","1395","materials/imgs/D104.png","arrowright","","[""materials/imgs/D94.png"",""materials/imgs/D34.png""]","false","random","","",""
"","","","","","html-keyboard-response","159","240163","0.0-15.0-0.1-0.10","mxg3vzrhzc","","mxg3vzrhzc","""2024-11-12T18:22:18.440Z""","null","+","null","","","","","","",""
"","","","","","image-keyboard-response","160","244335","0.0-15.0-0.1-1.10","mxg3vzrhzc","","mxg3vzrhzc","""2024-11-12T18:22:18.440Z""","4162","materials/imgs/D4.png","arrowright","","[""materials/imgs/D18.png"",""materials/imgs/D76.png""]","false","random","","",""
"","","","","","html-keyboard-response","161","244837","0.0-15.0-0.1-0.11","mxg3vzrhzc","","mxg3vzrhzc","""2024-11-12T18:22:18.440Z""","null","+","null","","","","","","",""
"","","","","","image-keyboard-response","162","249640","0.0-15.0-0.1-1.11","mxg3vzrhzc","","mxg3vzrhzc","""2024-11-12T18:22:18.440Z""","4801","materials/imgs/D51.png","arrowright","","[""materials/imgs/D81.png"",""materials/imgs/D29.png""]","false","random","","",""
"","","","","","html-keyboard-response","163","250141","0.0-15.0-0.1-0.12","mxg3vzrhzc","","mxg3vzrhzc","""2024-11-12T18:22:18.440Z""","null","+","null","","","","","","",""
"","","","","","image-keyboard-response","164","254690","0.0-15.0-0.1-1.12","mxg3vzrhzc","","mxg3vzrhzc","""2024-11-12T18:22:18.440Z""","4546","materials/imgs/D81.png","arrowleft","","[""materials/imgs/D87.png"",""materials/imgs/D4.png""]","false","random","","",""
"","","","","","html-keyboard-response","165","255190","0.0-15.0-0.1-0.13","mxg3vzrhzc","","mxg3vzrhzc","""2024-11-12T18:22:18.440Z""","null","+","null","","","","","","",""
"","","","","","image-keyboard-response","166","256235","0.0-15.0-0.1-1.13","mxg3vzrhzc","","mxg3vzrhzc","""2024-11-12T18:22:18.440Z""","1042","materials/imgs/D22.png","arrowleft","","[""materials/imgs/D17.png"",""materials/imgs/D96.png""]","false","random","","",""
"","","","","","html-keyboard-response","167","256736","0.0-15.0-1.1-0.1","mxg3vzrhzc","","mxg3vzrhzc","""2024-11-12T18:22:18.440Z""","null","+","null","","","","","","",""
"","","","","","image-keyboard-response","168","257435","0.0-15.0-1.1-1.1","mxg3vzrhzc","","mxg3vzrhzc","""2024-11-12T18:22:18.440Z""","697","materials/imgs/D53.png","arrowright","","[""materials/imgs/D64.png"",""materials/imgs/D53.png""]","","check","materials/imgs/D53.png","1","true"
"","","","","","html-keyboard-response","169","257937","0.0-15.0-2.1-0.2","mxg3vzrhzc","","mxg3vzrhzc","""2024-11-12T18:22:18.440Z""","null","+","null","","","","","","",""
"","","","","","image-keyboard-response","170","259324","0.0-15.0-2.1-1.2","mxg3vzrhzc","","mxg3vzrhzc","""2024-11-12T18:22:18.440Z""","1385","materials/imgs/D32.png","arrowleft","","[""materials/imgs/D68.png"",""materials/imgs/D96.png""]","false","validation","","",""
"","","","","","html-keyboard-response","171","259826","0.0-15.0-2.1-0.3","mxg3vzrhzc","","mxg3vzrhzc","""2024-11-12T18:22:18.440Z""","null","+","null","","","","","","",""
"","","","","","image-keyboard-response","172","260600","0.0-15.0-2.1-1.3","mxg3vzrhzc","","mxg3vzrhzc","""2024-11-12T18:22:18.440Z""","773","materials/imgs/D22.png","arrowleft","","[""materials/imgs/D4.png"",""materials/imgs/D25.png""]","false","validation","","",""
"","","","","","html-keyboard-response","173","261102","0.0-15.0-0.2-0.14","mxg3vzrhzc","","mxg3vzrhzc","""2024-11-12T18:22:18.440Z""","null","+","null","","","","","","",""
"","","","","","image-keyboard-response","174","263500","0.0-15.0-0.2-1.14","mxg3vzrhzc","","mxg3vzrhzc","""2024-11-12T18:22:18.440Z""","2395","materials/imgs/D48.png","arrowright","","[""materials/imgs/D55.png"",""materials/imgs/D17.png""]","false","random","","",""
"","","","","","html-keyboard-response","175","264001","0.0-15.0-0.2-0.15","mxg3vzrhzc","","mxg3vzrhzc","""2024-11-12T18:22:18.440Z""","null","+","null","","","","","","",""
"","","","","","image-keyboard-response","176","264816","0.0-15.0-0.2-1.15","mxg3vzrhzc","","mxg3vzrhzc","""2024-11-12T18:22:18.440Z""","813","materials/imgs/D85.png","arrowright","","[""materials/imgs/D81.png"",""materials/imgs/D17.png""]","false","random","","",""
"","","","","","html-keyboard-response","177","265320","0.0-15.0-0.2-0.16","mxg3vzrhzc","","mxg3vzrhzc","""2024-11-12T18:22:18.440Z""","null","+","null","","","","","","",""
"","","","","","image-keyboard-response","178","266990","0.0-15.0-0.2-1.16","mxg3vzrhzc","","mxg3vzrhzc","""2024-11-12T18:22:18.440Z""","1668","materials/imgs/D78.png","arrowleft","","[""materials/imgs/D49.png"",""materials/imgs/D3.png""]","false","random","","",""
"","","","","","html-keyboard-response","179","267491","0.0-15.0-0.2-0.17","mxg3vzrhzc","","mxg3vzrhzc","""2024-11-12T18:22:18.440Z""","null","+","null","","","","","","",""
"","","","","","image-keyboard-response","180","268645","0.0-15.0-0.2-1.17","mxg3vzrhzc","","mxg3vzrhzc","""2024-11-12T18:22:18.440Z""","1153","materials/imgs/D82.png","arrowright","","[""materials/imgs/D74.png"",""materials/imgs/D21.png""]","false","random","","",""
"","","","","","html-keyboard-response","181","269147","0.0-15.0-0.2-0.18","mxg3vzrhzc","","mxg3vzrhzc","""2024-11-12T18:22:18.440Z""","null","+","null","","","","","","",""
"","","","","","image-keyboard-response","182","271192","0.0-15.0-0.2-1.18","mxg3vzrhzc","","mxg3vzrhzc","""2024-11-12T18:22:18.440Z""","2044","materials/imgs/D75.png","arrowleft","","[""materials/imgs/D3.png"",""materials/imgs/D80.png""]","false","random","","",""
"","","","","","html-keyboard-response","183","271694","0.0-15.0-0.2-0.19","mxg3vzrhzc","","mxg3vzrhzc","""2024-11-12T18:22:18.440Z""","null","+","null","","","","","","",""
"","","","","","image-keyboard-response","184","273277","0.0-15.0-0.2-1.19","mxg3vzrhzc","","mxg3vzrhzc","""2024-11-12T18:22:18.440Z""","1581","materials/imgs/D68.png","arrowright","","[""materials/imgs/D75.png"",""materials/imgs/D84.png""]","false","random","","",""
"","","","","","html-keyboard-response","185","273778","0.0-15.0-0.2-0.20","mxg3vzrhzc","","mxg3vzrhzc","""2024-11-12T18:22:18.440Z""","null","+","null","","","","","","",""
"","","","","","image-keyboard-response","186","276956","0.0-15.0-0.2-1.20","mxg3vzrhzc","","mxg3vzrhzc","""2024-11-12T18:22:18.440Z""","3176","materials/imgs/D78.png","arrowright","","[""materials/imgs/D57.png"",""materials/imgs/D77.png""]","false","random","","",""
"","","","","","html-keyboard-response","187","277458","0.0-15.0-1.2-0.2","mxg3vzrhzc","","mxg3vzrhzc","""2024-11-12T18:22:18.440Z""","null","+","null","","","","","","",""
"","","","","","image-keyboard-response","188","278106","0.0-15.0-1.2-1.2","mxg3vzrhzc","","mxg3vzrhzc","""2024-11-12T18:22:18.440Z""","647","materials/imgs/D26.png","arrowleft","","[""materials/imgs/D26.png"",""materials/imgs/D46.png""]","","check","materials/imgs/D26.png","0","true"
"","","","","","html-keyboard-response","189","278607","0.0-15.0-2.2-0.4","mxg3vzrhzc","","mxg3vzrhzc","""2024-11-12T18:22:18.440Z""","null","+","null","","","","","","",""
"","","","","","image-keyboard-response","190","279758","0.0-15.0-2.2-1.4","mxg3vzrhzc","","mxg3vzrhzc","""2024-11-12T18:22:18.440Z""","1149","materials/imgs/D4.png","arrowleft","","[""materials/imgs/D52.png"",""materials/imgs/D83.png""]","false","validation","","",""
"","","","","","html-keyboard-response","191","280259","0.0-15.0-2.2-0.5","mxg3vzrhzc","","mxg3vzrhzc","""2024-11-12T18:22:18.440Z""","null","+","null","","","","","","",""
"","","","","","image-keyboard-response","192","281811","0.0-15.0-2.2-1.5","mxg3vzrhzc","","mxg3vzrhzc","""2024-11-12T18:22:18.440Z""","1550","materials/imgs/D19.png","arrowleft","","[""materials/imgs/D111.png"",""materials/imgs/D56.png""]","false","validation","","",""
"","","","","","html-keyboard-response","193","282312","0.0-15.0-0.3-0.21","mxg3vzrhzc","","mxg3vzrhzc","""2024-11-12T18:22:18.440Z""","null","+","null","","","","","","",""
"","","","","","image-keyboard-response","194","283113","0.0-15.0-0.3-1.21","mxg3vzrhzc","","mxg3vzrhzc","""2024-11-12T18:22:18.440Z""","799","materials/imgs/D1.png","arrowright","","[""materials/imgs/D66.png"",""materials/imgs/D65.png""]","false","random","","",""
"","","","","","html-keyboard-response","195","283615","0.0-15.0-0.3-0.22","mxg3vzrhzc","","mxg3vzrhzc","""2024-11-12T18:22:18.440Z""","null","+","null","","","","","","",""
"","","","","","image-keyboard-response","196","284653","0.0-15.0-0.3-1.22","mxg3vzrhzc","","mxg3vzrhzc","""2024-11-12T18:22:18.440Z""","1036","materials/imgs/D8.png","arrowright","","[""materials/imgs/D36.png"",""materials/imgs/D3.png""]","false","random","","",""
"","","","","","html-keyboard-response","197","285154","0.0-15.0-0.3-0.23","mxg3vzrhzc","","mxg3vzrhzc","""2024-11-12T18:22:18.440Z""","null","+","null","","","","","","",""
"","","","","","image-keyboard-response","198","286832","0.0-15.0-0.3-1.23","mxg3vzrhzc","","mxg3vzrhzc","""2024-11-12T18:22:18.440Z""","1677","materials/imgs/D111.png","arrowright","","[""materials/imgs/D64.png"",""materials/imgs/D46.png""]","false","random","","",""
"","","","","","html-keyboard-response","199","287333","0.0-15.0-0.3-0.24","mxg3vzrhzc","","mxg3vzrhzc","""2024-11-12T18:22:18.440Z""","null","+","null","","","","","","",""
"","","","","","image-keyboard-response","200","289407","0.0-15.0-0.3-1.24","mxg3vzrhzc","","mxg3vzrhzc","""2024-11-12T18:22:18.440Z""","2072","materials/imgs/D85.png","arrowleft","","[""materials/imgs/D47.png"",""materials/imgs/D37.png""]","false","random","","",""
"","","","","","html-keyboard-response","201","289909","0.0-15.0-0.3-0.25","mxg3vzrhzc","","mxg3vzrhzc","""2024-11-12T18:22:18.440Z""","null","+","null","","","","","","",""
"","","","","","image-keyboard-response","202","291938","0.0-15.0-0.3-1.25","mxg3vzrhzc","","mxg3vzrhzc","""2024-11-12T18:22:18.440Z""","2027","materials/imgs/D6.png","arrowleft","","[""materials/imgs/D20.png"",""materials/imgs/D37.png""]","false","random","","",""
"","","","","","html-keyboard-response","203","292440","0.0-15.0-0.3-0.26","mxg3vzrhzc","","mxg3vzrhzc","""2024-11-12T18:22:18.440Z""","null","+","null","","","","","","",""
"","","","","","image-keyboard-response","204","294849","0.0-15.0-0.3-1.26","mxg3vzrhzc","","mxg3vzrhzc","""2024-11-12T18:22:18.440Z""","2407","materials/imgs/D36.png","arrowright","","[""materials/imgs/D29.png"",""materials/imgs/D77.png""]","false","random","","",""
"","","","","","html-keyboard-response","205","295352","0.0-15.0-0.3-0.27","mxg3vzrhzc","","mxg3vzrhzc","""2024-11-12T18:22:18.440Z""","null","+","null","","","","","","",""
"","","","","","image-keyboard-response","206","296328","0.0-15.0-0.3-1.27","mxg3vzrhzc","","mxg3vzrhzc","""2024-11-12T18:22:18.440Z""","974","materials/imgs/D29.png","arrowright","","[""materials/imgs/D101.png"",""materials/imgs/D57.png""]","false","random","","",""
"","","","","","html-keyboard-response","207","296829","0.0-15.0-1.3-0.3","mxg3vzrhzc","","mxg3vzrhzc","""2024-11-12T18:22:18.440Z""","null","+","null","","","","","","",""
"","","","","","image-keyboard-response","208","297506","0.0-15.0-1.3-1.3","mxg3vzrhzc","","mxg3vzrhzc","""2024-11-12T18:22:18.440Z""","675","materials/imgs/D8.png","arrowright","","[""materials/imgs/D18.png"",""materials/imgs/D8.png""]","","check","materials/imgs/D8.png","1","true"
"","","","","","html-keyboard-response","209","298007","0.0-15.0-2.3-0.6","mxg3vzrhzc","","mxg3vzrhzc","""2024-11-12T18:22:18.440Z""","null","+","null","","","","","","",""
"","","","","","image-keyboard-response","210","299231","0.0-15.0-2.3-1.6","mxg3vzrhzc","","mxg3vzrhzc","""2024-11-12T18:22:18.440Z""","1223","materials/imgs/D85.png","arrowleft","","[""materials/imgs/D6.png"",""materials/imgs/D111.png""]","false","validation","","",""
"","","","","","html-keyboard-response","211","299732","0.0-15.0-2.3-0.7","mxg3vzrhzc","","mxg3vzrhzc","""2024-11-12T18:22:18.440Z""","null","+","null","","","","","","",""
"","","","","","image-keyboard-response","212","300369","0.0-15.0-2.3-1.7","mxg3vzrhzc","","mxg3vzrhzc","""2024-11-12T18:22:18.440Z""","635","materials/imgs/D82.png","arrowright","","[""materials/imgs/D83.png"",""materials/imgs/D22.png""]","false","validation","","",""
"","","","","","html-keyboard-response","213","300870","0.0-15.0-0.4-0.28","mxg3vzrhzc","","mxg3vzrhzc","""2024-11-12T18:22:18.440Z""","null","+","null","","","","","","",""
"","","","","","image-keyboard-response","214","302098","0.0-15.0-0.4-1.28","mxg3vzrhzc","","mxg3vzrhzc","""2024-11-12T18:22:18.440Z""","1228","materials/imgs/D14.png","arrowleft","","[""materials/imgs/D46.png"",""materials/imgs/D95.png""]","false","random","","",""
"","","","","","html-keyboard-response","215","302600","0.0-15.0-0.4-0.29","mxg3vzrhzc","","mxg3vzrhzc","""2024-11-12T18:22:18.440Z""","null","+","null","","","","","","",""
"","","","","","image-keyboard-response","216","304576","0.0-15.0-0.4-1.29","mxg3vzrhzc","","mxg3vzrhzc","""2024-11-12T18:22:18.440Z""","1974","materials/imgs/D47.png","arrowright","","[""materials/imgs/D56.png"",""materials/imgs/D101.png""]","false","random","","",""
"","","","","","html-keyboard-response","217","305078","0.0-15.0-0.4-0.30","mxg3vzrhzc","","mxg3vzrhzc","""2024-11-12T18:22:18.440Z""","null","+","null","","","","","","",""
"","","","","","image-keyboard-response","218","305976","0.0-15.0-0.4-1.30","mxg3vzrhzc","","mxg3vzrhzc","""2024-11-12T18:22:18.440Z""","897","materials/imgs/D82.png","arrowleft","","[""materials/imgs/D55.png"",""materials/imgs/D81.png""]","false","random","","",""
"","","","","","html-keyboard-response","219","306478","0.0-15.0-0.4-0.31","mxg3vzrhzc","","mxg3vzrhzc","""2024-11-12T18:22:18.440Z""","null","+","null","","","","","","",""
"","","","","","image-keyboard-response","220","309725","0.0-15.0-0.4-1.31","mxg3vzrhzc","","mxg3vzrhzc","""2024-11-12T18:22:18.440Z""","3245","materials/imgs/D104.png","arrowleft","","[""materials/imgs/D64.png"",""materials/imgs/D9.png""]","false","random","","",""
"","","","","","html-keyboard-response","221","310226","0.0-15.0-0.4-0.32","mxg3vzrhzc","","mxg3vzrhzc","""2024-11-12T18:22:18.440Z""","null","+","null","","","","","","",""
"","","","","","image-keyboard-response","222","311391","0.0-15.0-0.4-1.32","mxg3vzrhzc","","mxg3vzrhzc","""2024-11-12T18:22:18.440Z""","1163","materials/imgs/D34.png","arrowright","","[""materials/imgs/D84.png"",""materials/imgs/D66.png""]","false","random","","",""
"","","","","","html-keyboard-response","223","311892","0.0-15.0-0.4-0.33","mxg3vzrhzc","","mxg3vzrhzc","""2024-11-12T18:22:18.440Z""","null","+","null","","","","","","",""
"","","","","","image-keyboard-response","224","314118","0.0-15.0-0.4-1.33","mxg3vzrhzc","","mxg3vzrhzc","""2024-11-12T18:22:18.440Z""","2224","materials/imgs/D17.png","arrowleft","","[""materials/imgs/D37.png"",""materials/imgs/D75.png""]","false","random","","",""
"","","","","","html-keyboard-response","225","314620","0.0-15.0-0.4-0.34","mxg3vzrhzc","","mxg3vzrhzc","""2024-11-12T18:22:18.440Z""","null","+","null","","","","","","",""
"","","","","","image-keyboard-response","226","316083","0.0-15.0-0.4-1.34","mxg3vzrhzc","","mxg3vzrhzc","""2024-11-12T18:22:18.440Z""","1462","materials/imgs/D35.png","arrowright","","[""materials/imgs/D57.png"",""materials/imgs/D66.png""]","false","random","","",""
"","","","","","html-keyboard-response","227","316585","0.0-15.0-1.4-0.4","mxg3vzrhzc","","mxg3vzrhzc","""2024-11-12T18:22:18.440Z""","null","+","null","","","","","","",""
"","","","","","image-keyboard-response","228","317326","0.0-15.0-1.4-1.4","mxg3vzrhzc","","mxg3vzrhzc","""2024-11-12T18:22:18.440Z""","740","materials/imgs/D26.png","arrowleft","","[""materials/imgs/D26.png"",""materials/imgs/D46.png""]","","check","materials/imgs/D26.png","0","true"
"","","","","","html-keyboard-response","229","317828","0.0-15.0-2.4-0.8","mxg3vzrhzc","","mxg3vzrhzc","""2024-11-12T18:22:18.440Z""","null","+","null","","","","","","",""
"","","","","","image-keyboard-response","230","321697","0.0-15.0-2.4-1.8","mxg3vzrhzc","","mxg3vzrhzc","""2024-11-12T18:22:18.440Z""","3867","materials/imgs/D51.png","arrowright","","[""materials/imgs/D92.png"",""materials/imgs/D20.png""]","false","validation","","",""
"","","","","","html-keyboard-response","231","322198","0.0-15.0-2.4-0.9","mxg3vzrhzc","","mxg3vzrhzc","""2024-11-12T18:22:18.440Z""","null","+","null","","","","","","",""
"","","","","","image-keyboard-response","232","324547","0.0-15.0-2.4-1.9","mxg3vzrhzc","","mxg3vzrhzc","""2024-11-12T18:22:18.440Z""","2348","materials/imgs/D18.png","arrowright","","[""materials/imgs/D32.png"",""materials/imgs/D57.png""]","false","validation","","",""
"","","","","","html-button-response","233","326031","0.0-16.0","mxg3vzrhzc","","mxg3vzrhzc","""2024-11-12T18:22:18.440Z""","1484","You have completed 50% of the trials. Please click 'Continue' when you are ready proceed.","0","","","","","","",""
"","","","","","html-keyboard-response","234","326532","0.0-17.0-0.0-0.0","mxg3vzrhzc","","mxg3vzrhzc","""2024-11-12T18:22:18.440Z""","null","+","null","","","","","","",""
"","","","","","image-keyboard-response","235","327376","0.0-17.0-0.0-1.0","mxg3vzrhzc","","mxg3vzrhzc","""2024-11-12T18:22:18.440Z""","842","materials/imgs/D94.png","arrowright","","[""materials/imgs/D32.png"",""materials/imgs/D26.png""]","false","random","","",""
"","","","","","html-keyboard-response","236","327878","0.0-17.0-0.0-0.1","mxg3vzrhzc","","mxg3vzrhzc","""2024-11-12T18:22:18.440Z""","null","+","null","","","","","","",""
"","","","","","image-keyboard-response","237","328863","0.0-17.0-0.0-1.1","mxg3vzrhzc","","mxg3vzrhzc","""2024-11-12T18:22:18.440Z""","983","materials/imgs/D85.png","arrowleft","","[""materials/imgs/D24.png"",""materials/imgs/D47.png""]","false","random","","",""
"","","","","","html-keyboard-response","238","329365","0.0-17.0-0.0-0.2","mxg3vzrhzc","","mxg3vzrhzc","""2024-11-12T18:22:18.440Z""","null","+","null","","","","","","",""
"","","","","","image-keyboard-response","239","330823","0.0-17.0-0.0-1.2","mxg3vzrhzc","","mxg3vzrhzc","""2024-11-12T18:22:18.440Z""","1456","materials/imgs/D6.png","arrowright","","[""materials/imgs/D25.png"",""materials/imgs/D65.png""]","false","random","","",""
"","","","","","html-keyboard-response","240","331324","0.0-17.0-0.0-0.3","mxg3vzrhzc","","mxg3vzrhzc","""2024-11-12T18:22:18.440Z""","null","+","null","","","","","","",""
"","","","","","image-keyboard-response","241","332239","0.0-17.0-0.0-1.3","mxg3vzrhzc","","mxg3vzrhzc","""2024-11-12T18:22:18.440Z""","913","materials/imgs/D66.png","arrowright","","[""materials/imgs/D85.png"",""materials/imgs/D87.png""]","false","random","","",""
"","","","","","html-keyboard-response","242","332740","0.0-17.0-0.0-0.4","mxg3vzrhzc","","mxg3vzrhzc","""2024-11-12T18:22:18.440Z""","null","+","null","","","","","","",""
"","","","","","image-keyboard-response","243","334409","0.0-17.0-0.0-1.4","mxg3vzrhzc","","mxg3vzrhzc","""2024-11-12T18:22:18.440Z""","1667","materials/imgs/D68.png","arrowright","","[""materials/imgs/D20.png"",""materials/imgs/D80.png""]","false","random","","",""
"","","","","","html-keyboard-response","244","334911","0.0-17.0-0.0-0.5","mxg3vzrhzc","","mxg3vzrhzc","""2024-11-12T18:22:18.440Z""","null","+","null","","","","","","",""
"","","","","","image-keyboard-response","245","336805","0.0-17.0-0.0-1.5","mxg3vzrhzc","","mxg3vzrhzc","""2024-11-12T18:22:18.440Z""","1893","materials/imgs/D103.png","arrowleft","","[""materials/imgs/D18.png"",""materials/imgs/D94.png""]","false","random","","",""
"","","","","","html-keyboard-response","246","337307","0.0-17.0-0.0-0.6","mxg3vzrhzc","","mxg3vzrhzc","""2024-11-12T18:22:18.440Z""","null","+","null","","","","","","",""
"","","","","","image-keyboard-response","247","338704","0.0-17.0-0.0-1.6","mxg3vzrhzc","","mxg3vzrhzc","""2024-11-12T18:22:18.440Z""","1395","materials/imgs/D103.png","arrowright","","[""materials/imgs/D11.png"",""materials/imgs/D85.png""]","false","random","","",""
"","","","","","html-keyboard-response","248","339206","0.0-17.0-1.0-0.0","mxg3vzrhzc","","mxg3vzrhzc","""2024-11-12T18:22:18.440Z""","null","+","null","","","","","","",""
"","","","","","image-keyboard-response","249","340056","0.0-17.0-1.0-1.0","mxg3vzrhzc","","mxg3vzrhzc","""2024-11-12T18:22:18.440Z""","850","materials/imgs/D78.png","arrowright","","[""materials/imgs/D76.png"",""materials/imgs/D78.png""]","","check","materials/imgs/D78.png","1","true"
"","","","","","html-keyboard-response","250","340557","0.0-17.0-2.0-0.0","mxg3vzrhzc","","mxg3vzrhzc","""2024-11-12T18:22:18.440Z""","null","+","null","","","","","","",""
"","","","","","image-keyboard-response","251","342210","0.0-17.0-2.0-1.0","mxg3vzrhzc","","mxg3vzrhzc","""2024-11-12T18:22:18.440Z""","1651","materials/imgs/D20.png","arrowleft","","[""materials/imgs/D84.png"",""materials/imgs/D85.png""]","false","validation","","",""
"","","","","","html-keyboard-response","252","342714","0.0-17.0-2.0-0.1","mxg3vzrhzc","","mxg3vzrhzc","""2024-11-12T18:22:18.440Z""","null","+","null","","","","","","",""
"","","","","","image-keyboard-response","253","343515","0.0-17.0-2.0-1.1","mxg3vzrhzc","","mxg3vzrhzc","""2024-11-12T18:22:18.440Z""","799","materials/imgs/D4.png","arrowleft","","[""materials/imgs/D52.png"",""materials/imgs/D83.png""]","false","validation","","",""
"","","","","","html-keyboard-response","254","344016","0.0-17.0-0.1-0.7","mxg3vzrhzc","","mxg3vzrhzc","""2024-11-12T18:22:18.440Z""","null","+","null","","","","","","",""
"","","","","","image-keyboard-response","255","347704","0.0-17.0-0.1-1.7","mxg3vzrhzc","","mxg3vzrhzc","""2024-11-12T18:22:18.440Z""","3687","materials/imgs/D64.png","arrowleft","","[""materials/imgs/D49.png"",""materials/imgs/D105.png""]","false","random","","",""
"","","","","","html-keyboard-response","256","348205","0.0-17.0-0.1-0.8","mxg3vzrhzc","","mxg3vzrhzc","""2024-11-12T18:22:18.440Z""","null","+","null","","","","","","",""
"","","","","","image-keyboard-response","257","349968","0.0-17.0-0.1-1.8","mxg3vzrhzc","","mxg3vzrhzc","""2024-11-12T18:22:18.440Z""","1761","materials/imgs/D101.png","arrowright","","[""materials/imgs/D29.png"",""materials/imgs/D4.png""]","false","random","","",""
"","","","","","html-keyboard-response","258","350469","0.0-17.0-0.1-0.9","mxg3vzrhzc","","mxg3vzrhzc","""2024-11-12T18:22:18.440Z""","null","+","null","","","","","","",""
"","","","","","image-keyboard-response","259","351736","0.0-17.0-0.1-1.9","mxg3vzrhzc","","mxg3vzrhzc","""2024-11-12T18:22:18.440Z""","1265","materials/imgs/D47.png","arrowright","","[""materials/imgs/D46.png"",""materials/imgs/D26.png""]","false","random","","",""
"","","","","","html-keyboard-response","260","352239","0.0-17.0-0.1-0.10","mxg3vzrhzc","","mxg3vzrhzc","""2024-11-12T18:22:18.440Z""","null","+","null","","","","","","",""
"","","","","","image-keyboard-response","261","355026","0.0-17.0-0.1-1.10","mxg3vzrhzc","","mxg3vzrhzc","""2024-11-12T18:22:18.440Z""","2785","materials/imgs/D52.png","arrowleft","","[""materials/imgs/D92.png"",""materials/imgs/D111.png""]","false","random","","",""
"","","","","","html-keyboard-response","262","355527","0.0-17.0-0.1-0.11","mxg3vzrhzc","","mxg3vzrhzc","""2024-11-12T18:22:18.440Z""","null","+","null","","","","","","",""
"","","","","","image-keyboard-response","263","357397","0.0-17.0-0.1-1.11","mxg3vzrhzc","","mxg3vzrhzc","""2024-11-12T18:22:18.440Z""","1867","materials/imgs/D56.png","arrowleft","","[""materials/imgs/D4.png"",""materials/imgs/D21.png""]","false","random","","",""
"","","","","","html-keyboard-response","264","357899","0.0-17.0-0.1-0.12","mxg3vzrhzc","","mxg3vzrhzc","""2024-11-12T18:22:18.440Z""","null","+","null","","","","","","",""
"","","","","","image-keyboard-response","265","360033","0.0-17.0-0.1-1.12","mxg3vzrhzc","","mxg3vzrhzc","""2024-11-12T18:22:18.440Z""","2132","materials/imgs/D36.png","arrowright","","[""materials/imgs/D106.png"",""materials/imgs/D16.png""]","false","random","","",""
"","","","","","html-keyboard-response","266","360534","0.0-17.0-0.1-0.13","mxg3vzrhzc","","mxg3vzrhzc","""2024-11-12T18:22:18.440Z""","null","+","null","","","","","","",""
"","","","","","image-keyboard-response","267","361797","0.0-17.0-0.1-1.13","mxg3vzrhzc","","mxg3vzrhzc","""2024-11-12T18:22:18.440Z""","1261","materials/imgs/D76.png","arrowright","","[""materials/imgs/D101.png"",""materials/imgs/D68.png""]","false","random","","",""
"","","","","","html-keyboard-response","268","362298","0.0-17.0-1.1-0.1","mxg3vzrhzc","","mxg3vzrhzc","""2024-11-12T18:22:18.440Z""","null","+","null","","","","","","",""
"","","","","","image-keyboard-response","269","363032","0.0-17.0-1.1-1.1","mxg3vzrhzc","","mxg3vzrhzc","""2024-11-12T18:22:18.440Z""","732","materials/imgs/D106.png","arrowleft","","[""materials/imgs/D106.png"",""materials/imgs/D101.png""]","","check","materials/imgs/D106.png","0","true"
"","","","","","html-keyboard-response","270","363533","0.0-17.0-2.1-0.2","mxg3vzrhzc","","mxg3vzrhzc","""2024-11-12T18:22:18.440Z""","null","+","null","","","","","","",""
"","","","","","image-keyboard-response","271","367176","0.0-17.0-2.1-1.2","mxg3vzrhzc","","mxg3vzrhzc","""2024-11-12T18:22:18.440Z""","3643","materials/imgs/D52.png","arrowright","","[""materials/imgs/D9.png"",""materials/imgs/D19.png""]","false","validation","","",""
"","","","","","html-keyboard-response","272","367678","0.0-17.0-2.1-0.3","mxg3vzrhzc","","mxg3vzrhzc","""2024-11-12T18:22:18.440Z""","null","+","null","","","","","","",""
"","","","","","image-keyboard-response","273","369996","0.0-17.0-2.1-1.3","mxg3vzrhzc","","mxg3vzrhzc","""2024-11-12T18:22:18.440Z""","2317","materials/imgs/D26.png","arrowright","","[""materials/imgs/D36.png"",""materials/imgs/D92.png""]","false","validation","","",""
"","","","","","html-keyboard-response","274","370500","0.0-17.0-0.2-0.14","mxg3vzrhzc","","mxg3vzrhzc","""2024-11-12T18:22:18.440Z""","null","+","null","","","","","","",""
"","","","","","image-keyboard-response","275","371753","0.0-17.0-0.2-1.14","mxg3vzrhzc","","mxg3vzrhzc","""2024-11-12T18:22:18.440Z""","1251","materials/imgs/D64.png","arrowright","","[""materials/imgs/D102.png"",""materials/imgs/D26.png""]","false","random","","",""
"","","","","","html-keyboard-response","276","372254","0.0-17.0-0.2-0.15","mxg3vzrhzc","","mxg3vzrhzc","""2024-11-12T18:22:18.440Z""","null","+","null","","","","","","",""
"","","","","","image-keyboard-response","277","373420","0.0-17.0-0.2-1.15","mxg3vzrhzc","","mxg3vzrhzc","""2024-11-12T18:22:18.440Z""","1164","materials/imgs/D47.png","arrowright","","[""materials/imgs/D17.png"",""materials/imgs/D65.png""]","false","random","","",""
"","","","","","html-keyboard-response","278","373921","0.0-17.0-0.2-0.16","mxg3vzrhzc","","mxg3vzrhzc","""2024-11-12T18:22:18.440Z""","null","+","null","","","","","","",""
"","","","","","image-keyboard-response","279","375633","0.0-17.0-0.2-1.16","mxg3vzrhzc","","mxg3vzrhzc","""2024-11-12T18:22:18.440Z""","1710","materials/imgs/D16.png","arrowleft","","[""materials/imgs/D68.png"",""materials/imgs/D11.png""]","false","random","","",""
"","","","","","html-keyboard-response","280","376134","0.0-17.0-0.2-0.17","mxg3vzrhzc","","mxg3vzrhzc","""2024-11-12T18:22:18.440Z""","null","+","null","","","","","","",""
"","","","","","image-keyboard-response","281","377552","0.0-17.0-0.2-1.17","mxg3vzrhzc","","mxg3vzrhzc","""2024-11-12T18:22:18.440Z""","1415","materials/imgs/D17.png","arrowright","","[""materials/imgs/D92.png"",""materials/imgs/D52.png""]","false","random","","",""
"","","","","","html-keyboard-response","282","378052","0.0-17.0-0.2-0.18","mxg3vzrhzc","","mxg3vzrhzc","""2024-11-12T18:22:18.440Z""","null","+","null","","","","","","",""
"","","","","","image-keyboard-response","283","379051","0.0-17.0-0.2-1.18","mxg3vzrhzc","","mxg3vzrhzc","""2024-11-12T18:22:18.440Z""","996","materials/imgs/D32.png","arrowright","","[""materials/imgs/D47.png"",""materials/imgs/D34.png""]","false","random","","",""
"","","","","","html-keyboard-response","284","379552","0.0-17.0-0.2-0.19","mxg3vzrhzc","","mxg3vzrhzc","""2024-11-12T18:22:18.440Z""","null","+","null","","","","","","",""
"","","","","","image-keyboard-response","285","381282","0.0-17.0-0.2-1.19","mxg3vzrhzc","","mxg3vzrhzc","""2024-11-12T18:22:18.440Z""","1728","materials/imgs/D75.png","arrowright","","[""materials/imgs/D16.png"",""materials/imgs/D1.png""]","false","random","","",""
"","","","","","html-keyboard-response","286","381783","0.0-17.0-0.2-0.20","mxg3vzrhzc","","mxg3vzrhzc","""2024-11-12T18:22:18.440Z""","null","+","null","","","","","","",""
"","","","","","image-keyboard-response","287","382626","0.0-17.0-0.2-1.20","mxg3vzrhzc","","mxg3vzrhzc","""2024-11-12T18:22:18.440Z""","833","materials/imgs/D56.png","arrowleft","","[""materials/imgs/D95.png"",""materials/imgs/D6.png""]","false","random","","",""
"","","","","","html-keyboard-response","288","383127","0.0-17.0-1.2-0.2","mxg3vzrhzc","","mxg3vzrhzc","""2024-11-12T18:22:18.440Z""","null","+","null","","","","","","",""
"","","","","","image-keyboard-response","289","383748","0.0-17.0-1.2-1.2","mxg3vzrhzc","","mxg3vzrhzc","""2024-11-12T18:22:18.440Z""","618","materials/imgs/D8.png","arrowright","","[""materials/imgs/D18.png"",""materials/imgs/D8.png""]","","check","materials/imgs/D8.png","1","true"
"","","","","","html-keyboard-response","290","384249","0.0-17.0-2.2-0.4","mxg3vzrhzc","","mxg3vzrhzc","""2024-11-12T18:22:18.440Z""","null","+","null","","","","","","",""
"","","","","","image-keyboard-response","291","386190","0.0-17.0-2.2-1.4","mxg3vzrhzc","","mxg3vzrhzc","""2024-11-12T18:22:18.440Z""","1939","materials/imgs/D66.png","arrowleft","","[""materials/imgs/D85.png"",""materials/imgs/D25.png""]","false","validation","","",""
"","","","","","html-keyboard-response","292","386691","0.0-17.0-2.2-0.5","mxg3vzrhzc","","mxg3vzrhzc","""2024-11-12T18:22:18.440Z""","null","+","null","","","","","","",""
"","","","","","image-keyboard-response","293","389374","0.0-17.0-2.2-1.5","mxg3vzrhzc","","mxg3vzrhzc","""2024-11-12T18:22:18.440Z""","2681","materials/imgs/D8.png","arrowleft","","[""materials/imgs/D101.png"",""materials/imgs/D52.png""]","false","validation","","",""
"","","","","","html-keyboard-response","294","389875","0.0-17.0-0.3-0.21","mxg3vzrhzc","","mxg3vzrhzc","""2024-11-12T18:22:18.440Z""","null","+","null","","","","","","",""
"","","","","","image-keyboard-response","295","391035","0.0-17.0-0.3-1.21","mxg3vzrhzc","","mxg3vzrhzc","""2024-11-12T18:22:18.440Z""","1158","materials/imgs/D18.png","arrowleft","","[""materials/imgs/D16.png"",""materials/imgs/D102.png""]","false","random","","",""
"","","","","","html-keyboard-response","296","391536","0.0-17.0-0.3-0.22","mxg3vzrhzc","","mxg3vzrhzc","""2024-11-12T18:22:18.440Z""","null","+","null","","","","","","",""
"","","","","","image-keyboard-response","297","393472","0.0-17.0-0.3-1.22","mxg3vzrhzc","","mxg3vzrhzc","""2024-11-12T18:22:18.440Z""","1933","materials/imgs/D26.png","arrowright","","[""materials/imgs/D8.png"",""materials/imgs/D21.png""]","false","random","","",""
"","","","","","html-keyboard-response","298","393973","0.0-17.0-0.3-0.23","mxg3vzrhzc","","mxg3vzrhzc","""2024-11-12T18:22:18.440Z""","null","+","null","","","","","","",""
"","","","","","image-keyboard-response","299","395549","0.0-17.0-0.3-1.23","mxg3vzrhzc","","mxg3vzrhzc","""2024-11-12T18:22:18.440Z""","1574","materials/imgs/D76.png","arrowleft","","[""materials/imgs/D92.png"",""materials/imgs/D48.png""]","false","random","","",""
"","","","","","html-keyboard-response","300","396050","0.0-17.0-0.3-0.24","mxg3vzrhzc","","mxg3vzrhzc","""2024-11-12T18:22:18.440Z""","null","+","null","","","","","","",""
"","","","","","image-keyboard-response","301","398002","0.0-17.0-0.3-1.24","mxg3vzrhzc","","mxg3vzrhzc","""2024-11-12T18:22:18.440Z""","1952","materials/imgs/D81.png","arrowright","","[""materials/imgs/D83.png"",""materials/imgs/D16.png""]","false","random","","",""
"","","","","","html-keyboard-response","302","398504","0.0-17.0-0.3-0.25","mxg3vzrhzc","","mxg3vzrhzc","""2024-11-12T18:22:18.440Z""","null","+","null","","","","","","",""
"","","","","","image-keyboard-response","303","399687","0.0-17.0-0.3-1.25","mxg3vzrhzc","","mxg3vzrhzc","""2024-11-12T18:22:18.440Z""","1181","materials/imgs/D101.png","arrowleft","","[""materials/imgs/D111.png"",""materials/imgs/D68.png""]","false","random","","",""
"","","","","","html-keyboard-response","304","400189","0.0-17.0-0.3-0.26","mxg3vzrhzc","","mxg3vzrhzc","""2024-11-12T18:22:18.440Z""","null","+","null","","","","","","",""
"","","","","","image-keyboard-response","305","402439","0.0-17.0-0.3-1.26","mxg3vzrhzc","","mxg3vzrhzc","""2024-11-12T18:22:18.440Z""","2248","materials/imgs/D87.png","arrowleft","","[""materials/imgs/D46.png"",""materials/imgs/D55.png""]","false","random","","",""
"","","","","","html-keyboard-response","306","402939","0.0-17.0-0.3-0.27","mxg3vzrhzc","","mxg3vzrhzc","""2024-11-12T18:22:18.440Z""","null","+","null","","","","","","",""
"","","","","","image-keyboard-response","307","406021","0.0-17.0-0.3-1.27","mxg3vzrhzc","","mxg3vzrhzc","""2024-11-12T18:22:18.440Z""","3080","materials/imgs/D29.png","arrowleft","","[""materials/imgs/D18.png"",""materials/imgs/D83.png""]","false","random","","",""
"","","","","","html-keyboard-response","308","406523","0.0-17.0-1.3-0.3","mxg3vzrhzc","","mxg3vzrhzc","""2024-11-12T18:22:18.440Z""","null","+","null","","","","","","",""
"","","","","","image-keyboard-response","309","407243","0.0-17.0-1.3-1.3","mxg3vzrhzc","","mxg3vzrhzc","""2024-11-12T18:22:18.440Z""","719","materials/imgs/D53.png","arrowright","","[""materials/imgs/D64.png"",""materials/imgs/D53.png""]","","check","materials/imgs/D53.png","1","true"
"","","","","","html-keyboard-response","310","407746","0.0-17.0-2.3-0.6","mxg3vzrhzc","","mxg3vzrhzc","""2024-11-12T18:22:18.440Z""","null","+","null","","","","","","",""
"","","","","","image-keyboard-response","311","409405","0.0-17.0-2.3-1.6","mxg3vzrhzc","","mxg3vzrhzc","""2024-11-12T18:22:18.440Z""","1657","materials/imgs/D11.png","arrowleft","","[""materials/imgs/D83.png"",""materials/imgs/D48.png""]","false","validation","","",""
"","","","","","html-keyboard-response","312","409907","0.0-17.0-2.3-0.7","mxg3vzrhzc","","mxg3vzrhzc","""2024-11-12T18:22:18.440Z""","null","+","null","","","","","","",""
"","","","","","image-keyboard-response","313","410708","0.0-17.0-2.3-1.7","mxg3vzrhzc","","mxg3vzrhzc","""2024-11-12T18:22:18.440Z""","800","materials/imgs/D81.png","arrowright","","[""materials/imgs/D105.png"",""materials/imgs/D24.png""]","false","validation","","",""
"","","","","","html-keyboard-response","314","411210","0.0-17.0-0.4-0.28","mxg3vzrhzc","","mxg3vzrhzc","""2024-11-12T18:22:18.440Z""","null","+","null","","","","","","",""
"","","","","","image-keyboard-response","315","413563","0.0-17.0-0.4-1.28","mxg3vzrhzc","","mxg3vzrhzc","""2024-11-12T18:22:18.440Z""","2352","materials/imgs/D105.png","arrowleft","","[""materials/imgs/D20.png"",""materials/imgs/D29.png""]","false","random","","",""
"","","","","","html-keyboard-response","316","414065","0.0-17.0-0.4-0.29","mxg3vzrhzc","","mxg3vzrhzc","""2024-11-12T18:22:18.440Z""","null","+","null","","","","","","",""
"","","","","","image-keyboard-response","317","415393","0.0-17.0-0.4-1.29","mxg3vzrhzc","","mxg3vzrhzc","""2024-11-12T18:22:18.440Z""","1326","materials/imgs/D35.png","arrowleft","","[""materials/imgs/D37.png"",""materials/imgs/D49.png""]","false","random","","",""
"","","","","","html-keyboard-response","318","415894","0.0-17.0-0.4-0.30","mxg3vzrhzc","","mxg3vzrhzc","""2024-11-12T18:22:18.440Z""","null","+","null","","","","","","",""
"","","","","","image-keyboard-response","319","417260","0.0-17.0-0.4-1.30","mxg3vzrhzc","","mxg3vzrhzc","""2024-11-12T18:22:18.440Z""","1365","materials/imgs/D51.png","arrowright","","[""materials/imgs/D56.png"",""materials/imgs/D17.png""]","false","random","","",""
"","","","","","html-keyboard-response","320","417761","0.0-17.0-0.4-0.31","mxg3vzrhzc","","mxg3vzrhzc","""2024-11-12T18:22:18.440Z""","null","+","null","","","","","","",""
"","","","","","image-keyboard-response","321","418885","0.0-17.0-0.4-1.31","mxg3vzrhzc","","mxg3vzrhzc","""2024-11-12T18:22:18.440Z""","1122","materials/imgs/D65.png","arrowright","","[""materials/imgs/D66.png"",""materials/imgs/D94.png""]","false","random","","",""
"","","","","","html-keyboard-response","322","419386","0.0-17.0-0.4-0.32","mxg3vzrhzc","","mxg3vzrhzc","""2024-11-12T18:22:18.440Z""","null","+","null","","","","","","",""
"","","","","","image-keyboard-response","323","420196","0.0-17.0-0.4-1.32","mxg3vzrhzc","","mxg3vzrhzc","""2024-11-12T18:22:18.440Z""","809","materials/imgs/D3.png","arrowright","","[""materials/imgs/D16.png"",""materials/imgs/D22.png""]","false","random","","",""
"","","","","","html-keyboard-response","324","420698","0.0-17.0-0.4-0.33","mxg3vzrhzc","","mxg3vzrhzc","""2024-11-12T18:22:18.440Z""","null","+","null","","","","","","",""
"","","","","","image-keyboard-response","325","421592","0.0-17.0-0.4-1.33","mxg3vzrhzc","","mxg3vzrhzc","""2024-11-12T18:22:18.440Z""","893","materials/imgs/D17.png","arrowleft","","[""materials/imgs/D3.png"",""materials/imgs/D66.png""]","false","random","","",""
"","","","","","html-keyboard-response","326","422093","0.0-17.0-0.4-0.34","mxg3vzrhzc","","mxg3vzrhzc","""2024-11-12T18:22:18.440Z""","null","+","null","","","","","","",""
"","","","","","image-keyboard-response","327","424803","0.0-17.0-0.4-1.34","mxg3vzrhzc","","mxg3vzrhzc","""2024-11-12T18:22:18.440Z""","2708","materials/imgs/D95.png","arrowright","","[""materials/imgs/D24.png"",""materials/imgs/D85.png""]","false","random","","",""
"","","","","","html-keyboard-response","328","425304","0.0-17.0-1.4-0.4","mxg3vzrhzc","","mxg3vzrhzc","""2024-11-12T18:22:18.440Z""","null","+","null","","","","","","",""
"","","","","","image-keyboard-response","329","425969","0.0-17.0-1.4-1.4","mxg3vzrhzc","","mxg3vzrhzc","""2024-11-12T18:22:18.440Z""","663","materials/imgs/D76.png","arrowleft","","[""materials/imgs/D76.png"",""materials/imgs/D78.png""]","","check","materials/imgs/D76.png","0","true"
"","","","","","html-keyboard-response","330","426471","0.0-17.0-2.4-0.8","mxg3vzrhzc","","mxg3vzrhzc","""2024-11-12T18:22:18.440Z""","null","+","null","","","","","","",""
"","","","","","image-keyboard-response","331","427809","0.0-17.0-2.4-1.8","mxg3vzrhzc","","mxg3vzrhzc","""2024-11-12T18:22:18.440Z""","1337","materials/imgs/D106.png","arrowleft","","[""materials/imgs/D57.png"",""materials/imgs/D18.png""]","false","validation","","",""
"","","","","","html-keyboard-response","332","428310","0.0-17.0-2.4-0.9","mxg3vzrhzc","","mxg3vzrhzc","""2024-11-12T18:22:18.440Z""","null","+","null","","","","","","",""
"","","","","","image-keyboard-response","333","429637","0.0-17.0-2.4-1.9","mxg3vzrhzc","","mxg3vzrhzc","""2024-11-12T18:22:18.440Z""","1325","materials/imgs/D79.png","arrowleft","","[""materials/imgs/D51.png"",""materials/imgs/D64.png""]","false","validation","","",""
"","","","","","html-button-response","334","431143","0.0-18.0","mxg3vzrhzc","","mxg3vzrhzc","""2024-11-12T18:22:18.440Z""","1505","You have completed 75% of the trials. Please click 'Continue' when you are ready proceed.","0","","","","","","",""
"","","","","","html-keyboard-response","335","431644","0.0-19.0-0.0-0.0","mxg3vzrhzc","","mxg3vzrhzc","""2024-11-12T18:22:18.440Z""","null","+","null","","","","","","",""
"","","","","","image-keyboard-response","336","432514","0.0-19.0-0.0-1.0","mxg3vzrhzc","","mxg3vzrhzc","""2024-11-12T18:22:18.440Z""","868","materials/imgs/D18.png","arrowleft","","[""materials/imgs/D95.png"",""materials/imgs/D9.png""]","false","random","","",""
"","","","","","html-keyboard-response","337","433016","0.0-19.0-0.0-0.1","mxg3vzrhzc","","mxg3vzrhzc","""2024-11-12T18:22:18.440Z""","null","+","null","","","","","","",""
"","","","","","image-keyboard-response","338","433933","0.0-19.0-0.0-1.1","mxg3vzrhzc","","mxg3vzrhzc","""2024-11-12T18:22:18.440Z""","916","materials/imgs/D20.png","arrowright","","[""materials/imgs/D64.png"",""materials/imgs/D101.png""]","false","random","","",""
"","","","","","html-keyboard-response","339","434435","0.0-19.0-0.0-0.2","mxg3vzrhzc","","mxg3vzrhzc","""2024-11-12T18:22:18.440Z""","null","+","null","","","","","","",""
"","","","","","image-keyboard-response","340","435073","0.0-19.0-0.0-1.2","mxg3vzrhzc","","mxg3vzrhzc","""2024-11-12T18:22:18.440Z""","636","materials/imgs/D29.png","arrowleft","","[""materials/imgs/D92.png"",""materials/imgs/D95.png""]","false","random","","",""
"","","","","","html-keyboard-response","341","435575","0.0-19.0-0.0-0.3","mxg3vzrhzc","","mxg3vzrhzc","""2024-11-12T18:22:18.440Z""","null","+","null","","","","","","",""
"","","","","","image-keyboard-response","342","436174","0.0-19.0-0.0-1.3","mxg3vzrhzc","","mxg3vzrhzc","""2024-11-12T18:22:18.440Z""","597","materials/imgs/D36.png","arrowright","","[""materials/imgs/D11.png"",""materials/imgs/D21.png""]","false","random","","",""
"","","","","","html-keyboard-response","343","436675","0.0-19.0-0.0-0.4","mxg3vzrhzc","","mxg3vzrhzc","""2024-11-12T18:22:18.440Z""","null","+","null","","","","","","",""
"","","","","","image-keyboard-response","344","437238","0.0-19.0-0.0-1.4","mxg3vzrhzc","","mxg3vzrhzc","""2024-11-12T18:22:18.440Z""","560","materials/imgs/D21.png","arrowright","","[""materials/imgs/D35.png"",""materials/imgs/D49.png""]","false","random","","",""
"","","","","","html-keyboard-response","345","437740","0.0-19.0-0.0-0.5","mxg3vzrhzc","","mxg3vzrhzc","""2024-11-12T18:22:18.440Z""","null","+","null","","","","","","",""
"","","","","","image-keyboard-response","346","438352","0.0-19.0-0.0-1.5","mxg3vzrhzc","","mxg3vzrhzc","""2024-11-12T18:22:18.440Z""","610","materials/imgs/D78.png","arrowleft","","[""materials/imgs/D105.png"",""materials/imgs/D34.png""]","false","random","","",""
"","","","","","html-keyboard-response","347","438852","0.0-19.0-0.0-0.6","mxg3vzrhzc","","mxg3vzrhzc","""2024-11-12T18:22:18.440Z""","null","+","null","","","","","","",""
"","","","","","image-keyboard-response","348","439550","0.0-19.0-0.0-1.6","mxg3vzrhzc","","mxg3vzrhzc","""2024-11-12T18:22:18.440Z""","696","materials/imgs/D81.png","arrowright","","[""materials/imgs/D74.png"",""materials/imgs/D14.png""]","false","random","","",""
"","","","","","html-keyboard-response","349","440052","0.0-19.0-1.0-0.0","mxg3vzrhzc","","mxg3vzrhzc","""2024-11-12T18:22:18.440Z""","null","+","null","","","","","","",""
"","","","","","image-keyboard-response","350","440590","0.0-19.0-1.0-1.0","mxg3vzrhzc","","mxg3vzrhzc","""2024-11-12T18:22:18.440Z""","537","materials/imgs/D8.png","arrowright","","[""materials/imgs/D18.png"",""materials/imgs/D8.png""]","","check","materials/imgs/D8.png","1","true"
"","","","","","html-keyboard-response","351","441092","0.0-19.0-2.0-0.0","mxg3vzrhzc","","mxg3vzrhzc","""2024-11-12T18:22:18.440Z""","null","+","null","","","","","","",""
"","","","","","image-keyboard-response","352","443606","0.0-19.0-2.0-1.0","mxg3vzrhzc","","mxg3vzrhzc","""2024-11-12T18:22:18.440Z""","2512","materials/imgs/D64.png","arrowright","","[""materials/imgs/D6.png"",""materials/imgs/D81.png""]","false","validation","","",""
"","","","","","html-keyboard-response","353","444107","0.0-19.0-2.0-0.1","mxg3vzrhzc","","mxg3vzrhzc","""2024-11-12T18:22:18.440Z""","null","+","null","","","","","","",""
"","","","","","image-keyboard-response","354","447155","0.0-19.0-2.0-1.1","mxg3vzrhzc","","mxg3vzrhzc","""2024-11-12T18:22:18.440Z""","3046","materials/imgs/D101.png","arrowright","","[""materials/imgs/D76.png"",""materials/imgs/D47.png""]","false","validation","","",""
"","","","","","html-keyboard-response","355","447656","0.0-19.0-0.1-0.7","mxg3vzrhzc","","mxg3vzrhzc","""2024-11-12T18:22:18.440Z""","null","+","null","","","","","","",""
"","","","","","image-keyboard-response","356","448644","0.0-19.0-0.1-1.7","mxg3vzrhzc","","mxg3vzrhzc","""2024-11-12T18:22:18.440Z""","986","materials/imgs/D111.png","arrowleft","","[""materials/imgs/D75.png"",""materials/imgs/D49.png""]","false","random","","",""
"","","","","","html-keyboard-response","357","449145","0.0-19.0-0.1-0.8","mxg3vzrhzc","","mxg3vzrhzc","""2024-11-12T18:22:18.440Z""","null","+","null","","","","","","",""
"","","","","","image-keyboard-response","358","451675","0.0-19.0-0.1-1.8","mxg3vzrhzc","","mxg3vzrhzc","""2024-11-12T18:22:18.440Z""","2528","materials/imgs/D77.png","arrowright","","[""materials/imgs/D52.png"",""materials/imgs/D17.png""]","false","random","","",""
"","","","","","html-keyboard-response","359","452176","0.0-19.0-0.1-0.9","mxg3vzrhzc","","mxg3vzrhzc","""2024-11-12T18:22:18.440Z""","null","+","null","","","","","","",""
"","","","","","image-keyboard-response","360","453160","0.0-19.0-0.1-1.9","mxg3vzrhzc","","mxg3vzrhzc","""2024-11-12T18:22:18.440Z""","982","materials/imgs/D75.png","arrowleft","","[""materials/imgs/D22.png"",""materials/imgs/D20.png""]","false","random","","",""
"","","","","","html-keyboard-response","361","453662","0.0-19.0-0.1-0.10","mxg3vzrhzc","","mxg3vzrhzc","""2024-11-12T18:22:18.440Z""","null","+","null","","","","","","",""
"","","","","","image-keyboard-response","362","455232","0.0-19.0-0.1-1.10","mxg3vzrhzc","","mxg3vzrhzc","""2024-11-12T18:22:18.440Z""","1568","materials/imgs/D26.png","arrowright","","[""materials/imgs/D92.png"",""materials/imgs/D85.png""]","false","random","","",""
"","","","","","html-keyboard-response","363","455733","0.0-19.0-0.1-0.11","mxg3vzrhzc","","mxg3vzrhzc","""2024-11-12T18:22:18.440Z""","null","+","null","","","","","","",""
"","","","","","image-keyboard-response","364","457884","0.0-19.0-0.1-1.11","mxg3vzrhzc","","mxg3vzrhzc","""2024-11-12T18:22:18.440Z""","2148","materials/imgs/D52.png","arrowright","","[""materials/imgs/D77.png"",""materials/imgs/D3.png""]","false","random","","",""
"","","","","","html-keyboard-response","365","458385","0.0-19.0-0.1-0.12","mxg3vzrhzc","","mxg3vzrhzc","""2024-11-12T18:22:18.440Z""","null","+","null","","","","","","",""
"","","","","","image-keyboard-response","366","461579","0.0-19.0-0.1-1.12","mxg3vzrhzc","","mxg3vzrhzc","""2024-11-12T18:22:18.440Z""","3192","materials/imgs/D95.png","arrowleft","","[""materials/imgs/D32.png"",""materials/imgs/D68.png""]","false","random","","",""
"","","","","","html-keyboard-response","367","462081","0.0-19.0-0.1-0.13","mxg3vzrhzc","","mxg3vzrhzc","""2024-11-12T18:22:18.440Z""","null","+","null","","","","","","",""
"","","","","","image-keyboard-response","368","462890","0.0-19.0-0.1-1.13","mxg3vzrhzc","","mxg3vzrhzc","""2024-11-12T18:22:18.440Z""","807","materials/imgs/D9.png","arrowleft","","[""materials/imgs/D57.png"",""materials/imgs/D83.png""]","false","random","","",""
"","","","","","html-keyboard-response","369","463392","0.0-19.0-1.1-0.1","mxg3vzrhzc","","mxg3vzrhzc","""2024-11-12T18:22:18.440Z""","null","+","null","","","","","","",""
"","","","","","image-keyboard-response","370","464088","0.0-19.0-1.1-1.1","mxg3vzrhzc","","mxg3vzrhzc","""2024-11-12T18:22:18.440Z""","694","materials/imgs/D53.png","arrowright","","[""materials/imgs/D64.png"",""materials/imgs/D53.png""]","","check","materials/imgs/D53.png","1","true"
"","","","","","html-keyboard-response","371","464589","0.0-19.0-2.1-0.2","mxg3vzrhzc","","mxg3vzrhzc","""2024-11-12T18:22:18.440Z""","null","+","null","","","","","","",""
"","","","","","image-keyboard-response","372","466306","0.0-19.0-2.1-1.2","mxg3vzrhzc","","mxg3vzrhzc","""2024-11-12T18:22:18.440Z""","1715","materials/imgs/D76.png","arrowleft","","[""materials/imgs/D83.png"",""materials/imgs/D6.png""]","false","validation","","",""
"","","","","","html-keyboard-response","373","466808","0.0-19.0-2.1-0.3","mxg3vzrhzc","","mxg3vzrhzc","""2024-11-12T18:22:18.440Z""","null","+","null","","","","","","",""
"","","","","","image-keyboard-response","374","468796","0.0-19.0-2.1-1.3","mxg3vzrhzc","","mxg3vzrhzc","""2024-11-12T18:22:18.440Z""","1987","materials/imgs/D102.png","arrowright","","[""materials/imgs/D32.png"",""materials/imgs/D111.png""]","false","validation","","",""
"","","","","","html-keyboard-response","375","469298","0.0-19.0-0.2-0.14","mxg3vzrhzc","","mxg3vzrhzc","""2024-11-12T18:22:18.440Z""","null","+","null","","","","","","",""
"","","","","","image-keyboard-response","376","470697","0.0-19.0-0.2-1.14","mxg3vzrhzc","","mxg3vzrhzc","""2024-11-12T18:22:18.440Z""","1397","materials/imgs/D17.png","arrowright","","[""materials/imgs/D1.png"",""materials/imgs/D64.png""]","false","random","","",""
"","","","","","html-keyboard-response","377","471200","0.0-19.0-0.2-0.15","mxg3vzrhzc","","mxg3vzrhzc","""2024-11-12T18:22:18.440Z""","null","+","null","","","","","","",""
"","","","","","image-keyboard-response","378","472367","0.0-19.0-0.2-1.15","mxg3vzrhzc","","mxg3vzrhzc","""2024-11-12T18:22:18.440Z""","1165","materials/imgs/D85.png","arrowright","","[""materials/imgs/D32.png"",""materials/imgs/D55.png""]","false","random","","",""
"","","","","","html-keyboard-response","379","472869","0.0-19.0-0.2-0.16","mxg3vzrhzc","","mxg3vzrhzc","""2024-11-12T18:22:18.440Z""","null","+","null","","","","","","",""
"","","","","","image-keyboard-response","380","473637","0.0-19.0-0.2-1.16","mxg3vzrhzc","","mxg3vzrhzc","""2024-11-12T18:22:18.440Z""","766","materials/imgs/D32.png","arrowright","","[""materials/imgs/D64.png"",""materials/imgs/D29.png""]","false","random","","",""
"","","","","","html-keyboard-response","381","474139","0.0-19.0-0.2-0.17","mxg3vzrhzc","","mxg3vzrhzc","""2024-11-12T18:22:18.440Z""","null","+","null","","","","","","",""
"","","","","","image-keyboard-response","382","477706","0.0-19.0-0.2-1.17","mxg3vzrhzc","","mxg3vzrhzc","""2024-11-12T18:22:18.440Z""","3566","materials/imgs/D105.png","arrowleft","","[""materials/imgs/D55.png"",""materials/imgs/D36.png""]","false","random","","",""
"","","","","","html-keyboard-response","383","478207","0.0-19.0-0.2-0.18","mxg3vzrhzc","","mxg3vzrhzc","""2024-11-12T18:22:18.440Z""","null","+","null","","","","","","",""
"","","","","","image-keyboard-response","384","479189","0.0-19.0-0.2-1.18","mxg3vzrhzc","","mxg3vzrhzc","""2024-11-12T18:22:18.440Z""","979","materials/imgs/D56.png","arrowleft","","[""materials/imgs/D46.png"",""materials/imgs/D85.png""]","false","random","","",""
"","","","","","html-keyboard-response","385","479690","0.0-19.0-0.2-0.19","mxg3vzrhzc","","mxg3vzrhzc","""2024-11-12T18:22:18.440Z""","null","+","null","","","","","","",""
"","","","","","image-keyboard-response","386","480862","0.0-19.0-0.2-1.19","mxg3vzrhzc","","mxg3vzrhzc","""2024-11-12T18:22:18.440Z""","1171","materials/imgs/D78.png","arrowright","","[""materials/imgs/D75.png"",""materials/imgs/D81.png""]","false","random","","",""
"","","","","","html-keyboard-response","387","481363","0.0-19.0-0.2-0.20","mxg3vzrhzc","","mxg3vzrhzc","""2024-11-12T18:22:18.440Z""","null","+","null","","","","","","",""
"","","","","","image-keyboard-response","388","483591","0.0-19.0-0.2-1.20","mxg3vzrhzc","","mxg3vzrhzc","""2024-11-12T18:22:18.440Z""","2226","materials/imgs/D81.png","arrowright","","[""materials/imgs/D32.png"",""materials/imgs/D87.png""]","false","random","","",""
"","","","","","html-keyboard-response","389","484093","0.0-19.0-1.2-0.2","mxg3vzrhzc","","mxg3vzrhzc","""2024-11-12T18:22:18.440Z""","null","+","null","","","","","","",""
"","","","","","image-keyboard-response","390","484755","0.0-19.0-1.2-1.2","mxg3vzrhzc","","mxg3vzrhzc","""2024-11-12T18:22:18.440Z""","661","materials/imgs/D53.png","arrowright","","[""materials/imgs/D64.png"",""materials/imgs/D53.png""]","","check","materials/imgs/D53.png","1","true"
"","","","","","html-keyboard-response","391","485257","0.0-19.0-2.2-0.4","mxg3vzrhzc","","mxg3vzrhzc","""2024-11-12T18:22:18.440Z""","null","+","null","","","","","","",""
"","","","","","image-keyboard-response","392","488517","0.0-19.0-2.2-1.4","mxg3vzrhzc","","mxg3vzrhzc","""2024-11-12T18:22:18.440Z""","3258","materials/imgs/D84.png","arrowleft","","[""materials/imgs/D106.png"",""materials/imgs/D37.png""]","false","validation","","",""
"","","","","","html-keyboard-response","393","489017","0.0-19.0-2.2-0.5","mxg3vzrhzc","","mxg3vzrhzc","""2024-11-12T18:22:18.440Z""","null","+","null","","","","","","",""
"","","","","","image-keyboard-response","394","490721","0.0-19.0-2.2-1.5","mxg3vzrhzc","","mxg3vzrhzc","""2024-11-12T18:22:18.440Z""","1703","materials/imgs/D47.png","arrowright","","[""materials/imgs/D1.png"",""materials/imgs/D52.png""]","false","validation","","",""
"","","","","","html-keyboard-response","395","491222","0.0-19.0-0.3-0.21","mxg3vzrhzc","","mxg3vzrhzc","""2024-11-12T18:22:18.440Z""","null","+","null","","","","","","",""
"","","","","","image-keyboard-response","396","492939","0.0-19.0-0.3-1.21","mxg3vzrhzc","","mxg3vzrhzc","""2024-11-12T18:22:18.440Z""","1714","materials/imgs/D47.png","arrowright","","[""materials/imgs/D75.png"",""materials/imgs/D66.png""]","false","random","","",""
"","","","","","html-keyboard-response","397","493440","0.0-19.0-0.3-0.22","mxg3vzrhzc","","mxg3vzrhzc","""2024-11-12T18:22:18.440Z""","null","+","null","","","","","","",""
"","","","","","image-keyboard-response","398","496435","0.0-19.0-0.3-1.22","mxg3vzrhzc","","mxg3vzrhzc","""2024-11-12T18:22:18.440Z""","2993","materials/imgs/D19.png","arrowleft","","[""materials/imgs/D8.png"",""materials/imgs/D64.png""]","false","random","","",""
"","","","","","html-keyboard-response","399","496936","0.0-19.0-0.3-0.23","mxg3vzrhzc","","mxg3vzrhzc","""2024-11-12T18:22:18.440Z""","null","+","null","","","","","","",""
"","","","","","image-keyboard-response","400","499104","0.0-19.0-0.3-1.23","mxg3vzrhzc","","mxg3vzrhzc","""2024-11-12T18:22:18.440Z""","2166","materials/imgs/D84.png","arrowright","","[""materials/imgs/D64.png"",""materials/imgs/D101.png""]","false","random","","",""
"","","","","","html-keyboard-response","401","499604","0.0-19.0-0.3-0.24","mxg3vzrhzc","","mxg3vzrhzc","""2024-11-12T18:22:18.440Z""","null","+","null","","","","","","",""
"","","","","","image-keyboard-response","402","504013","0.0-19.0-0.3-1.24","mxg3vzrhzc","","mxg3vzrhzc","""2024-11-12T18:22:18.440Z""","4408","materials/imgs/D18.png","arrowleft","","[""materials/imgs/D105.png"",""materials/imgs/D78.png""]","false","random","","",""
"","","","","","html-keyboard-response","403","504514","0.0-19.0-0.3-0.25","mxg3vzrhzc","","mxg3vzrhzc","""2024-11-12T18:22:18.440Z""","null","+","null","","","","","","",""
"","","","","","image-keyboard-response","404","505754","0.0-19.0-0.3-1.25","mxg3vzrhzc","","mxg3vzrhzc","""2024-11-12T18:22:18.440Z""","1237","materials/imgs/D92.png","arrowright","","[""materials/imgs/D95.png"",""materials/imgs/D6.png""]","false","random","","",""
"","","","","","html-keyboard-response","405","506254","0.0-19.0-0.3-0.26","mxg3vzrhzc","","mxg3vzrhzc","""2024-11-12T18:22:18.440Z""","null","+","null","","","","","","",""
"","","","","","image-keyboard-response","406","508088","0.0-19.0-0.3-1.26","mxg3vzrhzc","","mxg3vzrhzc","""2024-11-12T18:22:18.440Z""","1832","materials/imgs/D82.png","arrowleft","","[""materials/imgs/D32.png"",""materials/imgs/D77.png""]","false","random","","",""
"","","","","","html-keyboard-response","407","508589","0.0-19.0-0.3-0.27","mxg3vzrhzc","","mxg3vzrhzc","""2024-11-12T18:22:18.440Z""","null","+","null","","","","","","",""
"","","","","","image-keyboard-response","408","509986","0.0-19.0-0.3-1.27","mxg3vzrhzc","","mxg3vzrhzc","""2024-11-12T18:22:18.440Z""","1396","materials/imgs/D3.png","arrowright","","[""materials/imgs/D19.png"",""materials/imgs/D4.png""]","false","random","","",""
"","","","","","html-keyboard-response","409","510488","0.0-19.0-1.3-0.3","mxg3vzrhzc","","mxg3vzrhzc","""2024-11-12T18:22:18.440Z""","null","+","null","","","","","","",""
"","","","","","image-keyboard-response","410","511214","0.0-19.0-1.3-1.3","mxg3vzrhzc","","mxg3vzrhzc","""2024-11-12T18:22:18.440Z""","726","materials/imgs/D64.png","arrowleft","","[""materials/imgs/D64.png"",""materials/imgs/D53.png""]","","check","materials/imgs/D64.png","0","true"
"","","","","","html-keyboard-response","411","511716","0.0-19.0-2.3-0.6","mxg3vzrhzc","","mxg3vzrhzc","""2024-11-12T18:22:18.440Z""","null","+","null","","","","","","",""
"","","","","","image-keyboard-response","412","514186","0.0-19.0-2.3-1.6","mxg3vzrhzc","","mxg3vzrhzc","""2024-11-12T18:22:18.440Z""","2469","materials/imgs/D65.png","arrowleft","","[""materials/imgs/D4.png"",""materials/imgs/D16.png""]","false","validation","","",""
"","","","","","html-keyboard-response","413","514687","0.0-19.0-2.3-0.7","mxg3vzrhzc","","mxg3vzrhzc","""2024-11-12T18:22:18.440Z""","null","+","null","","","","","","",""
"","","","","","image-keyboard-response","414","516962","0.0-19.0-2.3-1.7","mxg3vzrhzc","","mxg3vzrhzc","""2024-11-12T18:22:18.440Z""","2273","materials/imgs/D18.png","arrowleft","","[""materials/imgs/D32.png"",""materials/imgs/D57.png""]","false","validation","","",""
"","","","","","html-keyboard-response","415","517463","0.0-19.0-0.4-0.28","mxg3vzrhzc","","mxg3vzrhzc","""2024-11-12T18:22:18.440Z""","null","+","null","","","","","","",""
"","","","","","image-keyboard-response","416","519614","0.0-19.0-0.4-1.28","mxg3vzrhzc","","mxg3vzrhzc","""2024-11-12T18:22:18.440Z""","2149","materials/imgs/D57.png","arrowright","","[""materials/imgs/D29.png"",""materials/imgs/D32.png""]","false","random","","",""
"","","","","","html-keyboard-response","417","520116","0.0-19.0-0.4-0.29","mxg3vzrhzc","","mxg3vzrhzc","""2024-11-12T18:22:18.440Z""","null","+","null","","","","","","",""
"","","","","","image-keyboard-response","418","521857","0.0-19.0-0.4-1.29","mxg3vzrhzc","","mxg3vzrhzc","""2024-11-12T18:22:18.440Z""","1740","materials/imgs/D75.png","arrowleft","","[""materials/imgs/D87.png"",""materials/imgs/D103.png""]","false","random","","",""
"","","","","","html-keyboard-response","419","522358","0.0-19.0-0.4-0.30","mxg3vzrhzc","","mxg3vzrhzc","""2024-11-12T18:22:18.440Z""","null","+","null","","","","","","",""
"","","","","","image-keyboard-response","420","525293","0.0-19.0-0.4-1.30","mxg3vzrhzc","","mxg3vzrhzc","""2024-11-12T18:22:18.440Z""","2933","materials/imgs/D103.png","arrowright","","[""materials/imgs/D48.png"",""materials/imgs/D66.png""]","false","random","","",""
"","","","","","html-keyboard-response","421","525794","0.0-19.0-0.4-0.31","mxg3vzrhzc","","mxg3vzrhzc","""2024-11-12T18:22:18.440Z""","null","+","null","","","","","","",""
"","","","","","image-keyboard-response","422","527061","0.0-19.0-0.4-1.31","mxg3vzrhzc","","mxg3vzrhzc","""2024-11-12T18:22:18.440Z""","1265","materials/imgs/D68.png","arrowright","","[""materials/imgs/D101.png"",""materials/imgs/D35.png""]","false","random","","",""
"","","","","","html-keyboard-response","423","527562","0.0-19.0-0.4-0.32","mxg3vzrhzc","","mxg3vzrhzc","""2024-11-12T18:22:18.440Z""","null","+","null","","","","","","",""
"","","","","","image-keyboard-response","424","528918","0.0-19.0-0.4-1.32","mxg3vzrhzc","","mxg3vzrhzc","""2024-11-12T18:22:18.440Z""","1353","materials/imgs/D87.png","arrowleft","","[""materials/imgs/D104.png"",""materials/imgs/D56.png""]","false","random","","",""
"","","","","","html-keyboard-response","425","529419","0.0-19.0-0.4-0.33","mxg3vzrhzc","","mxg3vzrhzc","""2024-11-12T18:22:18.440Z""","null","+","null","","","","","","",""
"","","","","","image-keyboard-response","426","531018","0.0-19.0-0.4-1.33","mxg3vzrhzc","","mxg3vzrhzc","""2024-11-12T18:22:18.440Z""","1597","materials/imgs/D56.png","arrowright","","[""materials/imgs/D66.png"",""materials/imgs/D18.png""]","false","random","","",""
"","","","","","html-keyboard-response","427","531520","0.0-19.0-0.4-0.34","mxg3vzrhzc","","mxg3vzrhzc","""2024-11-12T18:22:18.440Z""","null","+","null","","","","","","",""
"","","","","","image-keyboard-response","428","532287","0.0-19.0-0.4-1.34","mxg3vzrhzc","","mxg3vzrhzc","""2024-11-12T18:22:18.440Z""","765","materials/imgs/D17.png","arrowright","","[""materials/imgs/D75.png"",""materials/imgs/D35.png""]","false","random","","",""
"","","","","","html-keyboard-response","429","532788","0.0-19.0-1.4-0.4","mxg3vzrhzc","","mxg3vzrhzc","""2024-11-12T18:22:18.440Z""","null","+","null","","","","","","",""
"","","","","","image-keyboard-response","430","533501","0.0-19.0-1.4-1.4","mxg3vzrhzc","","mxg3vzrhzc","""2024-11-12T18:22:18.440Z""","712","materials/imgs/D46.png","arrowleft","","[""materials/imgs/D46.png"",""materials/imgs/D26.png""]","","check","materials/imgs/D46.png","0","true"
"","","","","","html-keyboard-response","431","534003","0.0-19.0-2.4-0.8","mxg3vzrhzc","","mxg3vzrhzc","""2024-11-12T18:22:18.440Z""","null","+","null","","","","","","",""
"","","","","","image-keyboard-response","432","534657","0.0-19.0-2.4-1.8","mxg3vzrhzc","","mxg3vzrhzc","""2024-11-12T18:22:18.440Z""","652","materials/imgs/D24.png","arrowleft","","[""materials/imgs/D36.png"",""materials/imgs/D8.png""]","false","validation","","",""
"","","","","","html-keyboard-response","433","535159","0.0-19.0-2.4-0.9","mxg3vzrhzc","","mxg3vzrhzc","""2024-11-12T18:22:18.440Z""","null","+","null","","","","","","",""
"","","","","","image-keyboard-response","434","536449","0.0-19.0-2.4-1.9","mxg3vzrhzc","","mxg3vzrhzc","""2024-11-12T18:22:18.440Z""","1289","materials/imgs/D25.png","arrowright","","[""materials/imgs/D103.png"",""materials/imgs/D64.png""]","false","validation","","",""
