"success","timeout","failed_images","failed_audio","failed_video","trial_type","trial_index","time_elapsed","internal_node_id","subject_id","sona_id","subjectID","dateInfo","rt","stimulus","response","question_order","choices","speedy","sampleAlg","selected_image","selected_index","correct"
"true","false","[]","[]","[]","preload","0","946","0.0-0.0","n01syvnxlj","","n01syvnxlj","""2024-11-12T18:18:03.720Z""","","","","","","","","","",""
"true","","","","","fullscreen","1","3940","0.0-1.0","n01syvnxlj","","n01syvnxlj","""2024-11-12T18:18:03.720Z""","","","","","","","","","",""
"","","","","","html-keyboard-response","2","3954","0.0-2.0","n01syvnxlj","","n01syvnxlj","""2024-11-12T18:18:03.720Z""","null","","null","","","","","","",""
"","","","","","html-button-response","3","10010","0.0-3.0","n01syvnxlj","","n01syvnxlj","""2024-11-12T18:18:03.720Z""","6054","<div style='text-align:center; font-size:20px; line-height:25px; width: 1200px;'>
                Welcome to our experiment! <br>
                <br>At the bottom of this screen, you will see a button that says 'Begin Experiment.
                <br>Please only click that button when you are ready to complete the 25 minute experiment in one sitting. <br>
                <br> Once you click that button, it will not be possible to restart the experiment. <br><br>","0","","","","","","",""
"true","","","","","fullscreen","4","13399","0.0-4.0","n01syvnxlj","","n01syvnxlj","""2024-11-12T18:18:03.720Z""","","","","","","","","","",""
"","","","","","survey-multi-select","5","48238","0.0-5.0","n01syvnxlj","","n01syvnxlj","""2024-11-12T18:18:03.720Z""","34836","","{""Consent"":[""<strong>I consent</strong>""]}","[0]","","","","","",""
"","","","","","html-button-response","6","52306","0.0-6.0","n01syvnxlj","","n01syvnxlj","""2024-11-12T18:18:03.720Z""","4064","Welcome! <p> This experiment involves two parts: demographic information, followed by the experimental task.<p> It will take about 25 minutes to complete both parts.","0","","","","","","",""
"","","","","","survey-text","7","60953","0.0-7.0","n01syvnxlj","","n01syvnxlj","""2024-11-12T18:18:03.720Z""","8645","","{""Age"":""18"",""Gender"":""Female"",""Race/ethnicity"":""White""}","","","","","","",""
"","","","","","html-button-response","8","79764","0.0-8.0","n01syvnxlj","","n01syvnxlj","""2024-11-12T18:18:03.720Z""","18808","<div style='text-align: center;'>
      <p>In each trial of this task, you will see three texture images: one target item on top, and two choices beneath the target item.</p>
      <p><strong>Please select the item that is most like the target item.</strong></p>
      <p>To select the option on the <strong>LEFT</strong>, press the <strong>LEFT ARROW</strong> key. 
      To select the option on the <strong>RIGHT</strong>, press the <strong>RIGHT ARROW</strong> key.</p>
                  <!-- Target Image at the Top -->
      <div style='margin: 20px;'>
        <img src='materials/imgs/instruction_images/InstructionImg1D78.png' alt='Target Image' style='width:200px; height:auto;' />
        <p><em>Target Image</em></p>
      </div>

      <!-- Two Choice Images Below -->
      <div style='display: flex; justify-content: center;'>
        <div style='margin-right: 50px;'>
          <img src='materials/imgs/instruction_images/InstructionImg2D34.png' alt='Choice Image 1' style='width:150px; height:auto;' />
          <p><em><strong>LEFT ARROW</strong></em></p>
        </div>
        <div style='margin-left: 50px;'>
          <img src='materials/imgs/instruction_images/InstructionImg3D80.png' alt='Choice Image 2' style='width:150px; height:auto;' />
          <p><em><strong>RIGHT ARROW</strong></em></p>
        </div>
      </div>
    </div>

      <p>When you are ready to proceed, please click 'Continue' to begin practice.</p>","0","","","","","","",""
"","","","","","html-keyboard-response","9","82270","0.0-9.0","n01syvnxlj","","n01syvnxlj","""2024-11-12T18:18:03.720Z""","null","+","null","","","","","","",""
"","","","","","html-keyboard-response","10","82771","0.0-10.0-0.0-0.0","n01syvnxlj","","n01syvnxlj","""2024-11-12T18:18:03.720Z""","null","+","null","","","","","","",""
"","","","","","image-keyboard-response","11","84677","0.0-10.0-0.0-1.0","n01syvnxlj","","n01syvnxlj","""2024-11-12T18:18:03.720Z""","1901","materials/imgs/D96.png","arrowright","","[""materials/imgs/D32.png"",""materials/imgs/D26.png""]","false","random","","",""
"","","","","","html-keyboard-response","12","85179","0.0-10.0-0.0-0.1","n01syvnxlj","","n01syvnxlj","""2024-11-12T18:18:03.720Z""","null","+","null","","","","","","",""
"","","","","","image-keyboard-response","13","86484","0.0-10.0-0.0-1.1","n01syvnxlj","","n01syvnxlj","""2024-11-12T18:18:03.720Z""","1303","materials/imgs/D83.png","arrowright","","[""materials/imgs/D66.png"",""materials/imgs/D106.png""]","false","random","","",""
"","","","","","html-keyboard-response","14","86986","0.0-10.0-0.0-0.2","n01syvnxlj","","n01syvnxlj","""2024-11-12T18:18:03.720Z""","null","+","null","","","","","","",""
"","","","","","image-keyboard-response","15","90899","0.0-10.0-0.0-1.2","n01syvnxlj","","n01syvnxlj","""2024-11-12T18:18:03.720Z""","3911","materials/imgs/D76.png","arrowleft","","[""materials/imgs/D52.png"",""materials/imgs/D3.png""]","false","random","","",""
"","","","","","html-keyboard-response","16","91404","0.0-10.0-0.0-0.3","n01syvnxlj","","n01syvnxlj","""2024-11-12T18:18:03.720Z""","null","+","null","","","","","","",""
"","","","","","image-keyboard-response","17","92875","0.0-10.0-0.0-1.3","n01syvnxlj","","n01syvnxlj","""2024-11-12T18:18:03.720Z""","1469","materials/imgs/D78.png","arrowright","","[""materials/imgs/D82.png"",""materials/imgs/D16.png""]","false","random","","",""
"","","","","","html-keyboard-response","18","93377","0.0-10.0-0.0-0.4","n01syvnxlj","","n01syvnxlj","""2024-11-12T18:18:03.720Z""","null","+","null","","","","","","",""
"","","","","","image-keyboard-response","19","95867","0.0-10.0-0.0-1.4","n01syvnxlj","","n01syvnxlj","""2024-11-12T18:18:03.720Z""","2487","materials/imgs/D81.png","arrowleft","","[""materials/imgs/D14.png"",""materials/imgs/D36.png""]","false","random","","",""
"","","","","","html-keyboard-response","20","96372","0.0-10.0-0.0-0.5","n01syvnxlj","","n01syvnxlj","""2024-11-12T18:18:03.720Z""","null","+","null","","","","","","",""
"","","","","","image-keyboard-response","21","97792","0.0-10.0-0.0-1.5","n01syvnxlj","","n01syvnxlj","""2024-11-12T18:18:03.720Z""","1418","materials/imgs/D53.png","arrowleft","","[""materials/imgs/D57.png"",""materials/imgs/D65.png""]","false","random","","",""
"","","","","","html-keyboard-response","22","98293","0.0-10.0-0.0-0.6","n01syvnxlj","","n01syvnxlj","""2024-11-12T18:18:03.720Z""","null","+","null","","","","","","",""
"","","","","","image-keyboard-response","23","100877","0.0-10.0-0.0-1.6","n01syvnxlj","","n01syvnxlj","""2024-11-12T18:18:03.720Z""","2581","materials/imgs/D102.png","arrowright","","[""materials/imgs/D47.png"",""materials/imgs/D14.png""]","false","random","","",""
"","","","","","html-keyboard-response","24","101380","0.0-10.0-0.0-0.7","n01syvnxlj","","n01syvnxlj","""2024-11-12T18:18:03.720Z""","null","+","null","","","","","","",""
"","","","","","image-keyboard-response","25","104103","0.0-10.0-0.0-1.7","n01syvnxlj","","n01syvnxlj","""2024-11-12T18:18:03.720Z""","2721","materials/imgs/D22.png","arrowright","","[""materials/imgs/D6.png"",""materials/imgs/D85.png""]","false","random","","",""
"","","","","","html-keyboard-response","26","104607","0.0-10.0-0.0-0.8","n01syvnxlj","","n01syvnxlj","""2024-11-12T18:18:03.720Z""","null","+","null","","","","","","",""
"","","","","","image-keyboard-response","27","106114","0.0-10.0-0.0-1.8","n01syvnxlj","","n01syvnxlj","""2024-11-12T18:18:03.720Z""","1504","materials/imgs/D29.png","arrowright","","[""materials/imgs/D64.png"",""materials/imgs/D52.png""]","false","random","","",""
"","","","","","html-keyboard-response","28","106616","0.0-10.0-0.0-0.9","n01syvnxlj","","n01syvnxlj","""2024-11-12T18:18:03.720Z""","null","+","null","","","","","","",""
"","","","","","image-keyboard-response","29","109400","0.0-10.0-0.0-1.9","n01syvnxlj","","n01syvnxlj","""2024-11-12T18:18:03.720Z""","2782","materials/imgs/D92.png","arrowright","","[""materials/imgs/D22.png"",""materials/imgs/D87.png""]","false","random","","",""
"","","","","","html-button-response","30","113617","0.0-11.0","n01syvnxlj","","n01syvnxlj","""2024-11-12T18:18:03.720Z""","4215","<p>Great job!</p>
      <p>You are now ready to begin the experiment.</p>
      <p>There will be around 200 trials. You will have opportunities to take breaks at three stages of the trials.</p>
      <p>When you are ready to begin please click 'Continue'.</p>","0","","","","","","",""
"","","","","","html-keyboard-response","31","116121","0.0-12.0","n01syvnxlj","","n01syvnxlj","""2024-11-12T18:18:03.720Z""","null","+","null","","","","","","",""
"","","","","","html-keyboard-response","32","116623","0.0-13.0-0.0-0.0","n01syvnxlj","","n01syvnxlj","""2024-11-12T18:18:03.720Z""","null","+","null","","","","","","",""
"","","","","","image-keyboard-response","33","118191","0.0-13.0-0.0-1.0","n01syvnxlj","","n01syvnxlj","""2024-11-12T18:18:03.720Z""","1565","materials/imgs/D64.png","arrowleft","","[""materials/imgs/D96.png"",""materials/imgs/D74.png""]","false","random","","",""
"","","","","","html-keyboard-response","34","118693","0.0-13.0-0.0-0.1","n01syvnxlj","","n01syvnxlj","""2024-11-12T18:18:03.720Z""","null","+","null","","","","","","",""
"","","","","","image-keyboard-response","35","120691","0.0-13.0-0.0-1.1","n01syvnxlj","","n01syvnxlj","""2024-11-12T18:18:03.720Z""","1996","materials/imgs/D102.png","arrowright","","[""materials/imgs/D9.png"",""materials/imgs/D26.png""]","false","random","","",""
"","","","","","html-keyboard-response","36","121193","0.0-13.0-0.0-0.2","n01syvnxlj","","n01syvnxlj","""2024-11-12T18:18:03.720Z""","null","+","null","","","","","","",""
"","","","","","image-keyboard-response","37","122208","0.0-13.0-0.0-1.2","n01syvnxlj","","n01syvnxlj","""2024-11-12T18:18:03.720Z""","1013","materials/imgs/D24.png","arrowleft","","[""materials/imgs/D77.png"",""materials/imgs/D20.png""]","false","random","","",""
"","","","","","html-keyboard-response","38","122710","0.0-13.0-0.0-0.3","n01syvnxlj","","n01syvnxlj","""2024-11-12T18:18:03.720Z""","null","+","null","","","","","","",""
"","","","","","image-keyboard-response","39","123740","0.0-13.0-0.0-1.3","n01syvnxlj","","n01syvnxlj","""2024-11-12T18:18:03.720Z""","1028","materials/imgs/D105.png","arrowright","","[""materials/imgs/D82.png"",""materials/imgs/D49.png""]","false","random","","",""
"","","","","","html-keyboard-response","40","124244","0.0-13.0-0.0-0.4","n01syvnxlj","","n01syvnxlj","""2024-11-12T18:18:03.720Z""","null","+","null","","","","","","",""
"","","","","","image-keyboard-response","41","126822","0.0-13.0-0.0-1.4","n01syvnxlj","","n01syvnxlj","""2024-11-12T18:18:03.720Z""","2575","materials/imgs/D19.png","arrowleft","","[""materials/imgs/D18.png"",""materials/imgs/D49.png""]","false","random","","",""
"","","","","","html-keyboard-response","42","127324","0.0-13.0-0.0-0.5","n01syvnxlj","","n01syvnxlj","""2024-11-12T18:18:03.720Z""","null","+","null","","","","","","",""
"","","","","","image-keyboard-response","43","129539","0.0-13.0-0.0-1.5","n01syvnxlj","","n01syvnxlj","""2024-11-12T18:18:03.720Z""","2213","materials/imgs/D111.png","arrowleft","","[""materials/imgs/D18.png"",""materials/imgs/D9.png""]","false","random","","",""
"","","","","","html-keyboard-response","44","130043","0.0-13.0-0.0-0.6","n01syvnxlj","","n01syvnxlj","""2024-11-12T18:18:03.720Z""","null","+","null","","","","","","",""
"","","","","","image-keyboard-response","45","131802","0.0-13.0-0.0-1.6","n01syvnxlj","","n01syvnxlj","""2024-11-12T18:18:03.720Z""","1756","materials/imgs/D106.png","arrowright","","[""materials/imgs/D29.png"",""materials/imgs/D84.png""]","false","random","","",""
"","","","","","html-keyboard-response","46","132305","0.0-13.0-1.0-0.0","n01syvnxlj","","n01syvnxlj","""2024-11-12T18:18:03.720Z""","null","+","null","","","","","","",""
"","","","","","image-keyboard-response","47","133382","0.0-13.0-1.0-1.0","n01syvnxlj","","n01syvnxlj","""2024-11-12T18:18:03.720Z""","1075","materials/imgs/D26.png","arrowleft","","[""materials/imgs/D26.png"",""materials/imgs/D46.png""]","","check","materials/imgs/D26.png","0","true"
"","","","","","html-keyboard-response","48","133884","0.0-13.0-2.0-0.0","n01syvnxlj","","n01syvnxlj","""2024-11-12T18:18:03.720Z""","null","+","null","","","","","","",""
"","","","","","image-keyboard-response","49","135291","0.0-13.0-2.0-1.0","n01syvnxlj","","n01syvnxlj","""2024-11-12T18:18:03.720Z""","1406","materials/imgs/D8.png","arrowleft","","[""materials/imgs/D101.png"",""materials/imgs/D52.png""]","false","validation","","",""
"","","","","","html-keyboard-response","50","135793","0.0-13.0-2.0-0.1","n01syvnxlj","","n01syvnxlj","""2024-11-12T18:18:03.720Z""","null","+","null","","","","","","",""
"","","","","","image-keyboard-response","51","136742","0.0-13.0-2.0-1.1","n01syvnxlj","","n01syvnxlj","""2024-11-12T18:18:03.720Z""","947","materials/imgs/D9.png","arrowright","","[""materials/imgs/D103.png"",""materials/imgs/D4.png""]","false","validation","","",""
"","","","","","html-keyboard-response","52","137244","0.0-13.0-0.1-0.7","n01syvnxlj","","n01syvnxlj","""2024-11-12T18:18:03.720Z""","null","+","null","","","","","","",""
"","","","","","image-keyboard-response","53","138030","0.0-13.0-0.1-1.7","n01syvnxlj","","n01syvnxlj","""2024-11-12T18:18:03.720Z""","782","materials/imgs/D32.png","arrowright","","[""materials/imgs/D14.png"",""materials/imgs/D84.png""]","false","random","","",""
"","","","","","html-keyboard-response","54","138533","0.0-13.0-0.1-0.8","n01syvnxlj","","n01syvnxlj","""2024-11-12T18:18:03.720Z""","null","+","null","","","","","","",""
"","","","","","image-keyboard-response","55","141148","0.0-13.0-0.1-1.8","n01syvnxlj","","n01syvnxlj","""2024-11-12T18:18:03.720Z""","2613","materials/imgs/D19.png","arrowleft","","[""materials/imgs/D34.png"",""materials/imgs/D21.png""]","false","random","","",""
"","","","","","html-keyboard-response","56","141652","0.0-13.0-0.1-0.9","n01syvnxlj","","n01syvnxlj","""2024-11-12T18:18:03.720Z""","null","+","null","","","","","","",""
"","","","","","image-keyboard-response","57","143309","0.0-13.0-0.1-1.9","n01syvnxlj","","n01syvnxlj","""2024-11-12T18:18:03.720Z""","1656","materials/imgs/D82.png","arrowright","","[""materials/imgs/D101.png"",""materials/imgs/D1.png""]","false","random","","",""
"","","","","","html-keyboard-response","58","143812","0.0-13.0-0.1-0.10","n01syvnxlj","","n01syvnxlj","""2024-11-12T18:18:03.720Z""","null","+","null","","","","","","",""
"","","","","","image-keyboard-response","59","145108","0.0-13.0-0.1-1.10","n01syvnxlj","","n01syvnxlj","""2024-11-12T18:18:03.720Z""","1294","materials/imgs/D87.png","arrowleft","","[""materials/imgs/D104.png"",""materials/imgs/D26.png""]","false","random","","",""
"","","","","","html-keyboard-response","60","145613","0.0-13.0-0.1-0.11","n01syvnxlj","","n01syvnxlj","""2024-11-12T18:18:03.720Z""","null","+","null","","","","","","",""
"","","","","","image-keyboard-response","61","146969","0.0-13.0-0.1-1.11","n01syvnxlj","","n01syvnxlj","""2024-11-12T18:18:03.720Z""","1355","materials/imgs/D25.png","arrowleft","","[""materials/imgs/D83.png"",""materials/imgs/D105.png""]","false","random","","",""
"","","","","","html-keyboard-response","62","147471","0.0-13.0-0.1-0.12","n01syvnxlj","","n01syvnxlj","""2024-11-12T18:18:03.720Z""","null","+","null","","","","","","",""
"","","","","","image-keyboard-response","63","149860","0.0-13.0-0.1-1.12","n01syvnxlj","","n01syvnxlj","""2024-11-12T18:18:03.720Z""","2388","materials/imgs/D80.png","arrowleft","","[""materials/imgs/D104.png"",""materials/imgs/D111.png""]","false","random","","",""
"","","","","","html-keyboard-response","64","150362","0.0-13.0-0.1-0.13","n01syvnxlj","","n01syvnxlj","""2024-11-12T18:18:03.720Z""","null","+","null","","","","","","",""
"","","","","","image-keyboard-response","65","153414","0.0-13.0-0.1-1.13","n01syvnxlj","","n01syvnxlj","""2024-11-12T18:18:03.720Z""","3049","materials/imgs/D8.png","arrowleft","","[""materials/imgs/D104.png"",""materials/imgs/D11.png""]","false","random","","",""
"","","","","","html-keyboard-response","66","153915","0.0-13.0-1.1-0.1","n01syvnxlj","","n01syvnxlj","""2024-11-12T18:18:03.720Z""","null","+","null","","","","","","",""
"","","","","","image-keyboard-response","67","154631","0.0-13.0-1.1-1.1","n01syvnxlj","","n01syvnxlj","""2024-11-12T18:18:03.720Z""","714","materials/imgs/D53.png","arrowright","","[""materials/imgs/D64.png"",""materials/imgs/D53.png""]","","check","materials/imgs/D53.png","1","true"
"","","","","","html-keyboard-response","68","155133","0.0-13.0-2.1-0.2","n01syvnxlj","","n01syvnxlj","""2024-11-12T18:18:03.720Z""","null","+","null","","","","","","",""
"","","","","","image-keyboard-response","69","157937","0.0-13.0-2.1-1.2","n01syvnxlj","","n01syvnxlj","""2024-11-12T18:18:03.720Z""","2803","materials/imgs/D64.png","arrowleft","","[""materials/imgs/D6.png"",""materials/imgs/D81.png""]","false","validation","","",""
"","","","","","html-keyboard-response","70","158439","0.0-13.0-2.1-0.3","n01syvnxlj","","n01syvnxlj","""2024-11-12T18:18:03.720Z""","null","+","null","","","","","","",""
"","","","","","image-keyboard-response","71","160234","0.0-13.0-2.1-1.3","n01syvnxlj","","n01syvnxlj","""2024-11-12T18:18:03.720Z""","1793","materials/imgs/D4.png","arrowleft","","[""materials/imgs/D52.png"",""materials/imgs/D83.png""]","false","validation","","",""
"","","","","","html-keyboard-response","72","160738","0.0-13.0-0.2-0.14","n01syvnxlj","","n01syvnxlj","""2024-11-12T18:18:03.720Z""","null","+","null","","","","","","",""
"","","","","","image-keyboard-response","73","162941","0.0-13.0-0.2-1.14","n01syvnxlj","","n01syvnxlj","""2024-11-12T18:18:03.720Z""","2201","materials/imgs/D83.png","arrowleft","","[""materials/imgs/D95.png"",""materials/imgs/D101.png""]","false","random","","",""
"","","","","","html-keyboard-response","74","163445","0.0-13.0-0.2-0.15","n01syvnxlj","","n01syvnxlj","""2024-11-12T18:18:03.720Z""","null","+","null","","","","","","",""
"","","","","","image-keyboard-response","75","164228","0.0-13.0-0.2-1.15","n01syvnxlj","","n01syvnxlj","""2024-11-12T18:18:03.720Z""","781","materials/imgs/D76.png","arrowright","","[""materials/imgs/D46.png"",""materials/imgs/D78.png""]","false","random","","",""
"","","","","","html-keyboard-response","76","164730","0.0-13.0-0.2-0.16","n01syvnxlj","","n01syvnxlj","""2024-11-12T18:18:03.720Z""","null","+","null","","","","","","",""
"","","","","","image-keyboard-response","77","165713","0.0-13.0-0.2-1.16","n01syvnxlj","","n01syvnxlj","""2024-11-12T18:18:03.720Z""","981","materials/imgs/D94.png","arrowleft","","[""materials/imgs/D56.png"",""materials/imgs/D11.png""]","false","random","","",""
"","","","","","html-keyboard-response","78","166214","0.0-13.0-0.2-0.17","n01syvnxlj","","n01syvnxlj","""2024-11-12T18:18:03.720Z""","null","+","null","","","","","","",""
"","","","","","image-keyboard-response","79","167343","0.0-13.0-0.2-1.17","n01syvnxlj","","n01syvnxlj","""2024-11-12T18:18:03.720Z""","1127","materials/imgs/D79.png","arrowleft","","[""materials/imgs/D9.png"",""materials/imgs/D75.png""]","false","random","","",""
"","","","","","html-keyboard-response","80","167847","0.0-13.0-0.2-0.18","n01syvnxlj","","n01syvnxlj","""2024-11-12T18:18:03.720Z""","null","+","null","","","","","","",""
"","","","","","image-keyboard-response","81","169091","0.0-13.0-0.2-1.18","n01syvnxlj","","n01syvnxlj","""2024-11-12T18:18:03.720Z""","1242","materials/imgs/D51.png","arrowright","","[""materials/imgs/D48.png"",""materials/imgs/D68.png""]","false","random","","",""
"","","","","","html-keyboard-response","82","169594","0.0-13.0-0.2-0.19","n01syvnxlj","","n01syvnxlj","""2024-11-12T18:18:03.720Z""","null","+","null","","","","","","",""
"","","","","","image-keyboard-response","83","170607","0.0-13.0-0.2-1.19","n01syvnxlj","","n01syvnxlj","""2024-11-12T18:18:03.720Z""","1011","materials/imgs/D9.png","arrowleft","","[""materials/imgs/D82.png"",""materials/imgs/D8.png""]","false","random","","",""
"","","","","","html-keyboard-response","84","171109","0.0-13.0-0.2-0.20","n01syvnxlj","","n01syvnxlj","""2024-11-12T18:18:03.720Z""","null","+","null","","","","","","",""
"","","","","","image-keyboard-response","85","171936","0.0-13.0-0.2-1.20","n01syvnxlj","","n01syvnxlj","""2024-11-12T18:18:03.720Z""","825","materials/imgs/D81.png","arrowright","","[""materials/imgs/D20.png"",""materials/imgs/D92.png""]","false","random","","",""
"","","","","","html-keyboard-response","86","172439","0.0-13.0-1.2-0.2","n01syvnxlj","","n01syvnxlj","""2024-11-12T18:18:03.720Z""","null","+","null","","","","","","",""
"","","","","","image-keyboard-response","87","173067","0.0-13.0-1.2-1.2","n01syvnxlj","","n01syvnxlj","""2024-11-12T18:18:03.720Z""","627","materials/imgs/D78.png","arrowright","","[""materials/imgs/D76.png"",""materials/imgs/D78.png""]","","check","materials/imgs/D78.png","1","true"
"","","","","","html-keyboard-response","88","173571","0.0-13.0-2.2-0.4","n01syvnxlj","","n01syvnxlj","""2024-11-12T18:18:03.720Z""","null","+","null","","","","","","",""
"","","","","","image-keyboard-response","89","174836","0.0-13.0-2.2-1.4","n01syvnxlj","","n01syvnxlj","""2024-11-12T18:18:03.720Z""","1263","materials/imgs/D76.png","arrowleft","","[""materials/imgs/D83.png"",""materials/imgs/D6.png""]","false","validation","","",""
"","","","","","html-keyboard-response","90","175338","0.0-13.0-2.2-0.5","n01syvnxlj","","n01syvnxlj","""2024-11-12T18:18:03.720Z""","null","+","null","","","","","","",""
"","","","","","image-keyboard-response","91","176973","0.0-13.0-2.2-1.5","n01syvnxlj","","n01syvnxlj","""2024-11-12T18:18:03.720Z""","1634","materials/imgs/D65.png","arrowright","","[""materials/imgs/D4.png"",""materials/imgs/D16.png""]","false","validation","","",""
"","","","","","html-keyboard-response","92","177476","0.0-13.0-0.3-0.21","n01syvnxlj","","n01syvnxlj","""2024-11-12T18:18:03.720Z""","null","+","null","","","","","","",""
"","","","","","image-keyboard-response","93","178897","0.0-13.0-0.3-1.21","n01syvnxlj","","n01syvnxlj","""2024-11-12T18:18:03.720Z""","1419","materials/imgs/D83.png","arrowright","","[""materials/imgs/D81.png"",""materials/imgs/D94.png""]","false","random","","",""
"","","","","","html-keyboard-response","94","179401","0.0-13.0-0.3-0.22","n01syvnxlj","","n01syvnxlj","""2024-11-12T18:18:03.720Z""","null","+","null","","","","","","",""
"","","","","","image-keyboard-response","95","180966","0.0-13.0-0.3-1.22","n01syvnxlj","","n01syvnxlj","""2024-11-12T18:18:03.720Z""","1563","materials/imgs/D46.png","arrowright","","[""materials/imgs/D26.png"",""materials/imgs/D35.png""]","false","random","","",""
"","","","","","html-keyboard-response","96","181470","0.0-13.0-0.3-0.23","n01syvnxlj","","n01syvnxlj","""2024-11-12T18:18:03.720Z""","null","+","null","","","","","","",""
"","","","","","image-keyboard-response","97","183246","0.0-13.0-0.3-1.23","n01syvnxlj","","n01syvnxlj","""2024-11-12T18:18:03.720Z""","1774","materials/imgs/D25.png","arrowleft","","[""materials/imgs/D17.png"",""materials/imgs/D77.png""]","false","random","","",""
"","","","","","html-keyboard-response","98","183749","0.0-13.0-0.3-0.24","n01syvnxlj","","n01syvnxlj","""2024-11-12T18:18:03.720Z""","null","+","null","","","","","","",""
"","","","","","image-keyboard-response","99","185116","0.0-13.0-0.3-1.24","n01syvnxlj","","n01syvnxlj","""2024-11-12T18:18:03.720Z""","1365","materials/imgs/D3.png","arrowleft","","[""materials/imgs/D17.png"",""materials/imgs/D66.png""]","false","random","","",""
"","","","","","html-keyboard-response","100","185619","0.0-13.0-0.3-0.25","n01syvnxlj","","n01syvnxlj","""2024-11-12T18:18:03.720Z""","null","+","null","","","","","","",""
"","","","","","image-keyboard-response","101","187656","0.0-13.0-0.3-1.25","n01syvnxlj","","n01syvnxlj","""2024-11-12T18:18:03.720Z""","2034","materials/imgs/D75.png","arrowleft","","[""materials/imgs/D55.png"",""materials/imgs/D57.png""]","false","random","","",""
"","","","","","html-keyboard-response","102","188159","0.0-13.0-0.3-0.26","n01syvnxlj","","n01syvnxlj","""2024-11-12T18:18:03.720Z""","null","+","null","","","","","","",""
"","","","","","image-keyboard-response","103","190337","0.0-13.0-0.3-1.26","n01syvnxlj","","n01syvnxlj","""2024-11-12T18:18:03.720Z""","2176","materials/imgs/D66.png","arrowleft","","[""materials/imgs/D81.png"",""materials/imgs/D102.png""]","false","random","","",""
"","","","","","html-keyboard-response","104","190840","0.0-13.0-0.3-0.27","n01syvnxlj","","n01syvnxlj","""2024-11-12T18:18:03.720Z""","null","+","null","","","","","","",""
"","","","","","image-keyboard-response","105","191657","0.0-13.0-0.3-1.27","n01syvnxlj","","n01syvnxlj","""2024-11-12T18:18:03.720Z""","815","materials/imgs/D25.png","arrowright","","[""materials/imgs/D84.png"",""materials/imgs/D26.png""]","false","random","","",""
"","","","","","html-keyboard-response","106","192160","0.0-13.0-1.3-0.3","n01syvnxlj","","n01syvnxlj","""2024-11-12T18:18:03.720Z""","null","+","null","","","","","","",""
"","","","","","image-keyboard-response","107","193304","0.0-13.0-1.3-1.3","n01syvnxlj","","n01syvnxlj","""2024-11-12T18:18:03.720Z""","1143","materials/imgs/D18.png","arrowright","","[""materials/imgs/D8.png"",""materials/imgs/D18.png""]","","check","materials/imgs/D18.png","1","true"
"","","","","","html-keyboard-response","108","193810","0.0-13.0-2.3-0.6","n01syvnxlj","","n01syvnxlj","""2024-11-12T18:18:03.720Z""","null","+","null","","","","","","",""
"","","","","","image-keyboard-response","109","196282","0.0-13.0-2.3-1.6","n01syvnxlj","","n01syvnxlj","""2024-11-12T18:18:03.720Z""","2470","materials/imgs/D75.png","arrowright","","[""materials/imgs/D96.png"",""materials/imgs/D4.png""]","false","validation","","",""
"","","","","","html-keyboard-response","110","196784","0.0-13.0-2.3-0.7","n01syvnxlj","","n01syvnxlj","""2024-11-12T18:18:03.720Z""","null","+","null","","","","","","",""
"","","","","","image-keyboard-response","111","198389","0.0-13.0-2.3-1.7","n01syvnxlj","","n01syvnxlj","""2024-11-12T18:18:03.720Z""","1603","materials/imgs/D103.png","arrowleft","","[""materials/imgs/D76.png"",""materials/imgs/D106.png""]","false","validation","","",""
"","","","","","html-keyboard-response","112","198891","0.0-13.0-0.4-0.28","n01syvnxlj","","n01syvnxlj","""2024-11-12T18:18:03.720Z""","null","+","null","","","","","","",""
"","","","","","image-keyboard-response","113","201458","0.0-13.0-0.4-1.28","n01syvnxlj","","n01syvnxlj","""2024-11-12T18:18:03.720Z""","2565","materials/imgs/D25.png","arrowleft","","[""materials/imgs/D48.png"",""materials/imgs/D53.png""]","false","random","","",""
"","","","","","html-keyboard-response","114","201960","0.0-13.0-0.4-0.29","n01syvnxlj","","n01syvnxlj","""2024-11-12T18:18:03.720Z""","null","+","null","","","","","","",""
"","","","","","image-keyboard-response","115","207375","0.0-13.0-0.4-1.29","n01syvnxlj","","n01syvnxlj","""2024-11-12T18:18:03.720Z""","5411","materials/imgs/D48.png","arrowright","","[""materials/imgs/D104.png"",""materials/imgs/D85.png""]","false","random","","",""
"","","","","","html-keyboard-response","116","207876","0.0-13.0-0.4-0.30","n01syvnxlj","","n01syvnxlj","""2024-11-12T18:18:03.720Z""","null","+","null","","","","","","",""
"","","","","","image-keyboard-response","117","209462","0.0-13.0-0.4-1.30","n01syvnxlj","","n01syvnxlj","""2024-11-12T18:18:03.720Z""","1585","materials/imgs/D66.png","arrowleft","","[""materials/imgs/D35.png"",""materials/imgs/D26.png""]","false","random","","",""
"","","","","","html-keyboard-response","118","209966","0.0-13.0-0.4-0.31","n01syvnxlj","","n01syvnxlj","""2024-11-12T18:18:03.720Z""","null","+","null","","","","","","",""
"","","","","","image-keyboard-response","119","211845","0.0-13.0-0.4-1.31","n01syvnxlj","","n01syvnxlj","""2024-11-12T18:18:03.720Z""","1877","materials/imgs/D76.png","arrowleft","","[""materials/imgs/D6.png"",""materials/imgs/D25.png""]","false","random","","",""
"","","","","","html-keyboard-response","120","212347","0.0-13.0-0.4-0.32","n01syvnxlj","","n01syvnxlj","""2024-11-12T18:18:03.720Z""","null","+","null","","","","","","",""
"","","","","","image-keyboard-response","121","213553","0.0-13.0-0.4-1.32","n01syvnxlj","","n01syvnxlj","""2024-11-12T18:18:03.720Z""","1204","materials/imgs/D1.png","arrowleft","","[""materials/imgs/D64.png"",""materials/imgs/D66.png""]","false","random","","",""
"","","","","","html-keyboard-response","122","214054","0.0-13.0-0.4-0.33","n01syvnxlj","","n01syvnxlj","""2024-11-12T18:18:03.720Z""","null","+","null","","","","","","",""
"","","","","","image-keyboard-response","123","216564","0.0-13.0-0.4-1.33","n01syvnxlj","","n01syvnxlj","""2024-11-12T18:18:03.720Z""","2509","materials/imgs/D14.png","arrowright","","[""materials/imgs/D66.png"",""materials/imgs/D4.png""]","false","random","","",""
"","","","","","html-keyboard-response","124","217065","0.0-13.0-0.4-0.34","n01syvnxlj","","n01syvnxlj","""2024-11-12T18:18:03.720Z""","null","+","null","","","","","","",""
"","","","","","image-keyboard-response","125","218930","0.0-13.0-0.4-1.34","n01syvnxlj","","n01syvnxlj","""2024-11-12T18:18:03.720Z""","1863","materials/imgs/D24.png","arrowleft","","[""materials/imgs/D56.png"",""materials/imgs/D94.png""]","false","random","","",""
"","","","","","html-keyboard-response","126","219432","0.0-13.0-1.4-0.4","n01syvnxlj","","n01syvnxlj","""2024-11-12T18:18:03.720Z""","null","+","null","","","","","","",""
"","","","","","image-keyboard-response","127","220361","0.0-13.0-1.4-1.4","n01syvnxlj","","n01syvnxlj","""2024-11-12T18:18:03.720Z""","927","materials/imgs/D101.png","arrowright","","[""materials/imgs/D106.png"",""materials/imgs/D101.png""]","","check","materials/imgs/D101.png","1","true"
"","","","","","html-keyboard-response","128","220862","0.0-13.0-2.4-0.8","n01syvnxlj","","n01syvnxlj","""2024-11-12T18:18:03.720Z""","null","+","null","","","","","","",""
"","","","","","image-keyboard-response","129","222337","0.0-13.0-2.4-1.8","n01syvnxlj","","n01syvnxlj","""2024-11-12T18:18:03.720Z""","1474","materials/imgs/D82.png","arrowleft","","[""materials/imgs/D83.png"",""materials/imgs/D22.png""]","false","validation","","",""
"","","","","","html-keyboard-response","130","222842","0.0-13.0-2.4-0.9","n01syvnxlj","","n01syvnxlj","""2024-11-12T18:18:03.720Z""","null","+","null","","","","","","",""
"","","","","","image-keyboard-response","131","225171","0.0-13.0-2.4-1.9","n01syvnxlj","","n01syvnxlj","""2024-11-12T18:18:03.720Z""","2327","materials/imgs/D52.png","arrowleft","","[""materials/imgs/D9.png"",""materials/imgs/D19.png""]","false","validation","","",""
"","","","","","html-button-response","132","227349","0.0-14.0","n01syvnxlj","","n01syvnxlj","""2024-11-12T18:18:03.720Z""","2177","You have completed 25% of the trials. Please click 'Continue' when you are ready proceed.","0","","","","","","",""
"","","","","","html-keyboard-response","133","227851","0.0-15.0-0.0-0.0","n01syvnxlj","","n01syvnxlj","""2024-11-12T18:18:03.720Z""","null","+","null","","","","","","",""
"","","","","","image-keyboard-response","134","230146","0.0-15.0-0.0-1.0","n01syvnxlj","","n01syvnxlj","""2024-11-12T18:18:03.720Z""","2293","materials/imgs/D19.png","arrowright","","[""materials/imgs/D18.png"",""materials/imgs/D37.png""]","false","random","","",""
"","","","","","html-keyboard-response","135","230649","0.0-15.0-0.0-0.1","n01syvnxlj","","n01syvnxlj","""2024-11-12T18:18:03.720Z""","null","+","null","","","","","","",""
"","","","","","image-keyboard-response","136","233043","0.0-15.0-0.0-1.1","n01syvnxlj","","n01syvnxlj","""2024-11-12T18:18:03.720Z""","2393","materials/imgs/D11.png","arrowleft","","[""materials/imgs/D1.png"",""materials/imgs/D49.png""]","false","random","","",""
"","","","","","html-keyboard-response","137","233545","0.0-15.0-0.0-0.2","n01syvnxlj","","n01syvnxlj","""2024-11-12T18:18:03.720Z""","null","+","null","","","","","","",""
"","","","","","image-keyboard-response","138","234359","0.0-15.0-0.0-1.2","n01syvnxlj","","n01syvnxlj","""2024-11-12T18:18:03.720Z""","812","materials/imgs/D17.png","arrowright","","[""materials/imgs/D49.png"",""materials/imgs/D103.png""]","false","random","","",""
"","","","","","html-keyboard-response","139","234863","0.0-15.0-0.0-0.3","n01syvnxlj","","n01syvnxlj","""2024-11-12T18:18:03.720Z""","null","+","null","","","","","","",""
"","","","","","image-keyboard-response","140","236019","0.0-15.0-0.0-1.3","n01syvnxlj","","n01syvnxlj","""2024-11-12T18:18:03.720Z""","1153","materials/imgs/D84.png","arrowleft","","[""materials/imgs/D79.png"",""materials/imgs/D83.png""]","false","random","","",""
"","","","","","html-keyboard-response","141","236525","0.0-15.0-0.0-0.4","n01syvnxlj","","n01syvnxlj","""2024-11-12T18:18:03.720Z""","null","+","null","","","","","","",""
"","","","","","image-keyboard-response","142","237584","0.0-15.0-0.0-1.4","n01syvnxlj","","n01syvnxlj","""2024-11-12T18:18:03.720Z""","1058","materials/imgs/D48.png","arrowleft","","[""materials/imgs/D1.png"",""materials/imgs/D17.png""]","false","random","","",""
"","","","","","html-keyboard-response","143","238088","0.0-15.0-0.0-0.5","n01syvnxlj","","n01syvnxlj","""2024-11-12T18:18:03.720Z""","null","+","null","","","","","","",""
"","","","","","image-keyboard-response","144","239123","0.0-15.0-0.0-1.5","n01syvnxlj","","n01syvnxlj","""2024-11-12T18:18:03.720Z""","1033","materials/imgs/D6.png","arrowleft","","[""materials/imgs/D80.png"",""materials/imgs/D66.png""]","false","random","","",""
"","","","","","html-keyboard-response","145","239627","0.0-15.0-0.0-0.6","n01syvnxlj","","n01syvnxlj","""2024-11-12T18:18:03.720Z""","null","+","null","","","","","","",""
"","","","","","image-keyboard-response","146","241143","0.0-15.0-0.0-1.6","n01syvnxlj","","n01syvnxlj","""2024-11-12T18:18:03.720Z""","1514","materials/imgs/D48.png","arrowleft","","[""materials/imgs/D79.png"",""materials/imgs/D105.png""]","false","random","","",""
"","","","","","html-keyboard-response","147","241645","0.0-15.0-1.0-0.0","n01syvnxlj","","n01syvnxlj","""2024-11-12T18:18:03.720Z""","null","+","null","","","","","","",""
"","","","","","image-keyboard-response","148","242224","0.0-15.0-1.0-1.0","n01syvnxlj","","n01syvnxlj","""2024-11-12T18:18:03.720Z""","577","materials/imgs/D64.png","arrowleft","","[""materials/imgs/D64.png"",""materials/imgs/D53.png""]","","check","materials/imgs/D64.png","0","true"
"","","","","","html-keyboard-response","149","242728","0.0-15.0-2.0-0.0","n01syvnxlj","","n01syvnxlj","""2024-11-12T18:18:03.720Z""","null","+","null","","","","","","",""
"","","","","","image-keyboard-response","150","244106","0.0-15.0-2.0-1.0","n01syvnxlj","","n01syvnxlj","""2024-11-12T18:18:03.720Z""","1376","materials/imgs/D96.png","arrowright","","[""materials/imgs/D46.png"",""materials/imgs/D18.png""]","false","validation","","",""
"","","","","","html-keyboard-response","151","244608","0.0-15.0-2.0-0.1","n01syvnxlj","","n01syvnxlj","""2024-11-12T18:18:03.720Z""","null","+","null","","","","","","",""
"","","","","","image-keyboard-response","152","245954","0.0-15.0-2.0-1.1","n01syvnxlj","","n01syvnxlj","""2024-11-12T18:18:03.720Z""","1344","materials/imgs/D51.png","arrowright","","[""materials/imgs/D92.png"",""materials/imgs/D20.png""]","false","validation","","",""
"","","","","","html-keyboard-response","153","246456","0.0-15.0-0.1-0.7","n01syvnxlj","","n01syvnxlj","""2024-11-12T18:18:03.720Z""","null","+","null","","","","","","",""
"","","","","","image-keyboard-response","154","247955","0.0-15.0-0.1-1.7","n01syvnxlj","","n01syvnxlj","""2024-11-12T18:18:03.720Z""","1497","materials/imgs/D95.png","arrowleft","","[""materials/imgs/D18.png"",""materials/imgs/D3.png""]","false","random","","",""
"","","","","","html-keyboard-response","155","248459","0.0-15.0-0.1-0.8","n01syvnxlj","","n01syvnxlj","""2024-11-12T18:18:03.720Z""","null","+","null","","","","","","",""
"","","","","","image-keyboard-response","156","249234","0.0-15.0-0.1-1.8","n01syvnxlj","","n01syvnxlj","""2024-11-12T18:18:03.720Z""","773","materials/imgs/D102.png","arrowright","","[""materials/imgs/D37.png"",""materials/imgs/D101.png""]","false","random","","",""
"","","","","","html-keyboard-response","157","249737","0.0-15.0-0.1-0.9","n01syvnxlj","","n01syvnxlj","""2024-11-12T18:18:03.720Z""","null","+","null","","","","","","",""
"","","","","","image-keyboard-response","158","251027","0.0-15.0-0.1-1.9","n01syvnxlj","","n01syvnxlj","""2024-11-12T18:18:03.720Z""","1288","materials/imgs/D68.png","arrowright","","[""materials/imgs/D47.png"",""materials/imgs/D37.png""]","false","random","","",""
"","","","","","html-keyboard-response","159","251530","0.0-15.0-0.1-0.10","n01syvnxlj","","n01syvnxlj","""2024-11-12T18:18:03.720Z""","null","+","null","","","","","","",""
"","","","","","image-keyboard-response","160","253031","0.0-15.0-0.1-1.10","n01syvnxlj","","n01syvnxlj","""2024-11-12T18:18:03.720Z""","1499","materials/imgs/D17.png","arrowleft","","[""materials/imgs/D52.png"",""materials/imgs/D35.png""]","false","random","","",""
"","","","","","html-keyboard-response","161","253534","0.0-15.0-0.1-0.11","n01syvnxlj","","n01syvnxlj","""2024-11-12T18:18:03.720Z""","null","+","null","","","","","","",""
"","","","","","image-keyboard-response","162","254730","0.0-15.0-0.1-1.11","n01syvnxlj","","n01syvnxlj","""2024-11-12T18:18:03.720Z""","1194","materials/imgs/D64.png","arrowleft","","[""materials/imgs/D92.png"",""materials/imgs/D79.png""]","false","random","","",""
"","","","","","html-keyboard-response","163","255232","0.0-15.0-0.1-0.12","n01syvnxlj","","n01syvnxlj","""2024-11-12T18:18:03.720Z""","null","+","null","","","","","","",""
"","","","","","image-keyboard-response","164","256483","0.0-15.0-0.1-1.12","n01syvnxlj","","n01syvnxlj","""2024-11-12T18:18:03.720Z""","1249","materials/imgs/D80.png","arrowleft","","[""materials/imgs/D19.png"",""materials/imgs/D76.png""]","false","random","","",""
"","","","","","html-keyboard-response","165","256989","0.0-15.0-0.1-0.13","n01syvnxlj","","n01syvnxlj","""2024-11-12T18:18:03.720Z""","null","+","null","","","","","","",""
"","","","","","image-keyboard-response","166","258462","0.0-15.0-0.1-1.13","n01syvnxlj","","n01syvnxlj","""2024-11-12T18:18:03.720Z""","1472","materials/imgs/D56.png","arrowright","","[""materials/imgs/D105.png"",""materials/imgs/D82.png""]","false","random","","",""
"","","","","","html-keyboard-response","167","258968","0.0-15.0-1.1-0.1","n01syvnxlj","","n01syvnxlj","""2024-11-12T18:18:03.720Z""","null","+","null","","","","","","",""
"","","","","","image-keyboard-response","168","259653","0.0-15.0-1.1-1.1","n01syvnxlj","","n01syvnxlj","""2024-11-12T18:18:03.720Z""","683","materials/imgs/D26.png","arrowleft","","[""materials/imgs/D26.png"",""materials/imgs/D46.png""]","","check","materials/imgs/D26.png","0","true"
"","","","","","html-keyboard-response","169","260158","0.0-15.0-2.1-0.2","n01syvnxlj","","n01syvnxlj","""2024-11-12T18:18:03.720Z""","null","+","null","","","","","","",""
"","","","","","image-keyboard-response","170","261842","0.0-15.0-2.1-1.2","n01syvnxlj","","n01syvnxlj","""2024-11-12T18:18:03.720Z""","1683","materials/imgs/D48.png","arrowright","","[""materials/imgs/D4.png"",""materials/imgs/D37.png""]","false","validation","","",""
"","","","","","html-keyboard-response","171","262346","0.0-15.0-2.1-0.3","n01syvnxlj","","n01syvnxlj","""2024-11-12T18:18:03.720Z""","null","+","null","","","","","","",""
"","","","","","image-keyboard-response","172","263556","0.0-15.0-2.1-1.3","n01syvnxlj","","n01syvnxlj","""2024-11-12T18:18:03.720Z""","1208","materials/imgs/D102.png","arrowright","","[""materials/imgs/D32.png"",""materials/imgs/D111.png""]","false","validation","","",""
"","","","","","html-keyboard-response","173","264059","0.0-15.0-0.2-0.14","n01syvnxlj","","n01syvnxlj","""2024-11-12T18:18:03.720Z""","null","+","null","","","","","","",""
"","","","","","image-keyboard-response","174","266030","0.0-15.0-0.2-1.14","n01syvnxlj","","n01syvnxlj","""2024-11-12T18:18:03.720Z""","1969","materials/imgs/D53.png","arrowleft","","[""materials/imgs/D78.png"",""materials/imgs/D95.png""]","false","random","","",""
"","","","","","html-keyboard-response","175","266532","0.0-15.0-0.2-0.15","n01syvnxlj","","n01syvnxlj","""2024-11-12T18:18:03.720Z""","null","+","null","","","","","","",""
"","","","","","image-keyboard-response","176","267994","0.0-15.0-0.2-1.15","n01syvnxlj","","n01syvnxlj","""2024-11-12T18:18:03.720Z""","1460","materials/imgs/D25.png","arrowright","","[""materials/imgs/D3.png"",""materials/imgs/D75.png""]","false","random","","",""
"","","","","","html-keyboard-response","177","268495","0.0-15.0-0.2-0.16","n01syvnxlj","","n01syvnxlj","""2024-11-12T18:18:03.720Z""","null","+","null","","","","","","",""
"","","","","","image-keyboard-response","178","269215","0.0-15.0-0.2-1.16","n01syvnxlj","","n01syvnxlj","""2024-11-12T18:18:03.720Z""","718","materials/imgs/D3.png","arrowleft","","[""materials/imgs/D6.png"",""materials/imgs/D111.png""]","false","random","","",""
"","","","","","html-keyboard-response","179","269719","0.0-15.0-0.2-0.17","n01syvnxlj","","n01syvnxlj","""2024-11-12T18:18:03.720Z""","null","+","null","","","","","","",""
"","","","","","image-keyboard-response","180","270775","0.0-15.0-0.2-1.17","n01syvnxlj","","n01syvnxlj","""2024-11-12T18:18:03.720Z""","1055","materials/imgs/D75.png","arrowright","","[""materials/imgs/D37.png"",""materials/imgs/D66.png""]","false","random","","",""
"","","","","","html-keyboard-response","181","271280","0.0-15.0-0.2-0.18","n01syvnxlj","","n01syvnxlj","""2024-11-12T18:18:03.720Z""","null","+","null","","","","","","",""
"","","","","","image-keyboard-response","182","272661","0.0-15.0-0.2-1.18","n01syvnxlj","","n01syvnxlj","""2024-11-12T18:18:03.720Z""","1379","materials/imgs/D105.png","arrowright","","[""materials/imgs/D6.png"",""materials/imgs/D17.png""]","false","random","","",""
"","","","","","html-keyboard-response","183","273164","0.0-15.0-0.2-0.19","n01syvnxlj","","n01syvnxlj","""2024-11-12T18:18:03.720Z""","null","+","null","","","","","","",""
"","","","","","image-keyboard-response","184","274549","0.0-15.0-0.2-1.19","n01syvnxlj","","n01syvnxlj","""2024-11-12T18:18:03.720Z""","1381","materials/imgs/D105.png","arrowleft","","[""materials/imgs/D21.png"",""materials/imgs/D82.png""]","false","random","","",""
"","","","","","html-keyboard-response","185","275050","0.0-15.0-0.2-0.20","n01syvnxlj","","n01syvnxlj","""2024-11-12T18:18:03.720Z""","null","+","null","","","","","","",""
"","","","","","image-keyboard-response","186","276193","0.0-15.0-0.2-1.20","n01syvnxlj","","n01syvnxlj","""2024-11-12T18:18:03.720Z""","1141","materials/imgs/D103.png","arrowright","","[""materials/imgs/D76.png"",""materials/imgs/D111.png""]","false","random","","",""
"","","","","","html-keyboard-response","187","276696","0.0-15.0-1.2-0.2","n01syvnxlj","","n01syvnxlj","""2024-11-12T18:18:03.720Z""","null","+","null","","","","","","",""
"","","","","","image-keyboard-response","188","277399","0.0-15.0-1.2-1.2","n01syvnxlj","","n01syvnxlj","""2024-11-12T18:18:03.720Z""","702","materials/imgs/D18.png","arrowright","","[""materials/imgs/D8.png"",""materials/imgs/D18.png""]","","check","materials/imgs/D18.png","1","true"
"","","","","","html-keyboard-response","189","277903","0.0-15.0-2.2-0.4","n01syvnxlj","","n01syvnxlj","""2024-11-12T18:18:03.720Z""","null","+","null","","","","","","",""
"","","","","","image-keyboard-response","190","281779","0.0-15.0-2.2-1.4","n01syvnxlj","","n01syvnxlj","""2024-11-12T18:18:03.720Z""","3874","materials/imgs/D83.png","arrowright","","[""materials/imgs/D24.png"",""materials/imgs/D8.png""]","false","validation","","",""
"","","","","","html-keyboard-response","191","282282","0.0-15.0-2.2-0.5","n01syvnxlj","","n01syvnxlj","""2024-11-12T18:18:03.720Z""","null","+","null","","","","","","",""
"","","","","","image-keyboard-response","192","283464","0.0-15.0-2.2-1.5","n01syvnxlj","","n01syvnxlj","""2024-11-12T18:18:03.720Z""","1181","materials/imgs/D92.png","arrowright","","[""materials/imgs/D56.png"",""materials/imgs/D77.png""]","false","validation","","",""
"","","","","","html-keyboard-response","193","283968","0.0-15.0-0.3-0.21","n01syvnxlj","","n01syvnxlj","""2024-11-12T18:18:03.720Z""","null","+","null","","","","","","",""
"","","","","","image-keyboard-response","194","285226","0.0-15.0-0.3-1.21","n01syvnxlj","","n01syvnxlj","""2024-11-12T18:18:03.720Z""","1256","materials/imgs/D106.png","arrowright","","[""materials/imgs/D74.png"",""materials/imgs/D80.png""]","false","random","","",""
"","","","","","html-keyboard-response","195","285730","0.0-15.0-0.3-0.22","n01syvnxlj","","n01syvnxlj","""2024-11-12T18:18:03.720Z""","null","+","null","","","","","","",""
"","","","","","image-keyboard-response","196","286747","0.0-15.0-0.3-1.22","n01syvnxlj","","n01syvnxlj","""2024-11-12T18:18:03.720Z""","1015","materials/imgs/D95.png","arrowright","","[""materials/imgs/D49.png"",""materials/imgs/D84.png""]","false","random","","",""
"","","","","","html-keyboard-response","197","287252","0.0-15.0-0.3-0.23","n01syvnxlj","","n01syvnxlj","""2024-11-12T18:18:03.720Z""","null","+","null","","","","","","",""
"","","","","","image-keyboard-response","198","288399","0.0-15.0-0.3-1.23","n01syvnxlj","","n01syvnxlj","""2024-11-12T18:18:03.720Z""","1145","materials/imgs/D92.png","arrowright","","[""materials/imgs/D8.png"",""materials/imgs/D16.png""]","false","random","","",""
"","","","","","html-keyboard-response","199","288902","0.0-15.0-0.3-0.24","n01syvnxlj","","n01syvnxlj","""2024-11-12T18:18:03.720Z""","null","+","null","","","","","","",""
"","","","","","image-keyboard-response","200","289766","0.0-15.0-0.3-1.24","n01syvnxlj","","n01syvnxlj","""2024-11-12T18:18:03.720Z""","862","materials/imgs/D85.png","arrowleft","","[""materials/imgs/D49.png"",""materials/imgs/D65.png""]","false","random","","",""
"","","","","","html-keyboard-response","201","290270","0.0-15.0-0.3-0.25","n01syvnxlj","","n01syvnxlj","""2024-11-12T18:18:03.720Z""","null","+","null","","","","","","",""
"","","","","","image-keyboard-response","202","290990","0.0-15.0-0.3-1.25","n01syvnxlj","","n01syvnxlj","""2024-11-12T18:18:03.720Z""","715","materials/imgs/D95.png","arrowleft","","[""materials/imgs/D94.png"",""materials/imgs/D51.png""]","false","random","","",""
"","","","","","html-keyboard-response","203","291494","0.0-15.0-0.3-0.26","n01syvnxlj","","n01syvnxlj","""2024-11-12T18:18:03.720Z""","null","+","null","","","","","","",""
"","","","","","image-keyboard-response","204","292552","0.0-15.0-0.3-1.26","n01syvnxlj","","n01syvnxlj","""2024-11-12T18:18:03.720Z""","1056","materials/imgs/D79.png","arrowright","","[""materials/imgs/D75.png"",""materials/imgs/D103.png""]","false","random","","",""
"","","","","","html-keyboard-response","205","293055","0.0-15.0-0.3-0.27","n01syvnxlj","","n01syvnxlj","""2024-11-12T18:18:03.720Z""","null","+","null","","","","","","",""
"","","","","","image-keyboard-response","206","294073","0.0-15.0-0.3-1.27","n01syvnxlj","","n01syvnxlj","""2024-11-12T18:18:03.720Z""","1016","materials/imgs/D32.png","arrowright","","[""materials/imgs/D49.png"",""materials/imgs/D105.png""]","false","random","","",""
"","","","","","html-keyboard-response","207","294577","0.0-15.0-1.3-0.3","n01syvnxlj","","n01syvnxlj","""2024-11-12T18:18:03.720Z""","null","+","null","","","","","","",""
"","","","","","image-keyboard-response","208","295221","0.0-15.0-1.3-1.3","n01syvnxlj","","n01syvnxlj","""2024-11-12T18:18:03.720Z""","643","materials/imgs/D106.png","arrowleft","","[""materials/imgs/D106.png"",""materials/imgs/D101.png""]","","check","materials/imgs/D106.png","0","true"
"","","","","","html-keyboard-response","209","295726","0.0-15.0-2.3-0.6","n01syvnxlj","","n01syvnxlj","""2024-11-12T18:18:03.720Z""","null","+","null","","","","","","",""
"","","","","","image-keyboard-response","210","297029","0.0-15.0-2.3-1.6","n01syvnxlj","","n01syvnxlj","""2024-11-12T18:18:03.720Z""","1301","materials/imgs/D106.png","arrowleft","","[""materials/imgs/D57.png"",""materials/imgs/D18.png""]","false","validation","","",""
"","","","","","html-keyboard-response","211","297532","0.0-15.0-2.3-0.7","n01syvnxlj","","n01syvnxlj","""2024-11-12T18:18:03.720Z""","null","+","null","","","","","","",""
"","","","","","image-keyboard-response","212","298625","0.0-15.0-2.3-1.7","n01syvnxlj","","n01syvnxlj","""2024-11-12T18:18:03.720Z""","1092","materials/imgs/D36.png","arrowright","","[""materials/imgs/D47.png"",""materials/imgs/D49.png""]","false","validation","","",""
"","","","","","html-keyboard-response","213","299127","0.0-15.0-0.4-0.28","n01syvnxlj","","n01syvnxlj","""2024-11-12T18:18:03.720Z""","null","+","null","","","","","","",""
"","","","","","image-keyboard-response","214","300194","0.0-15.0-0.4-1.28","n01syvnxlj","","n01syvnxlj","""2024-11-12T18:18:03.720Z""","1065","materials/imgs/D46.png","arrowright","","[""materials/imgs/D17.png"",""materials/imgs/D79.png""]","false","random","","",""
"","","","","","html-keyboard-response","215","300698","0.0-15.0-0.4-0.29","n01syvnxlj","","n01syvnxlj","""2024-11-12T18:18:03.720Z""","null","+","null","","","","","","",""
"","","","","","image-keyboard-response","216","301435","0.0-15.0-0.4-1.29","n01syvnxlj","","n01syvnxlj","""2024-11-12T18:18:03.720Z""","735","materials/imgs/D18.png","arrowright","","[""materials/imgs/D77.png"",""materials/imgs/D26.png""]","false","random","","",""
"","","","","","html-keyboard-response","217","301937","0.0-15.0-0.4-0.30","n01syvnxlj","","n01syvnxlj","""2024-11-12T18:18:03.720Z""","null","+","null","","","","","","",""
"","","","","","image-keyboard-response","218","303764","0.0-15.0-0.4-1.30","n01syvnxlj","","n01syvnxlj","""2024-11-12T18:18:03.720Z""","1825","materials/imgs/D3.png","arrowleft","","[""materials/imgs/D52.png"",""materials/imgs/D85.png""]","false","random","","",""
"","","","","","html-keyboard-response","219","304266","0.0-15.0-0.4-0.31","n01syvnxlj","","n01syvnxlj","""2024-11-12T18:18:03.720Z""","null","+","null","","","","","","",""
"","","","","","image-keyboard-response","220","306028","0.0-15.0-0.4-1.31","n01syvnxlj","","n01syvnxlj","""2024-11-12T18:18:03.720Z""","1760","materials/imgs/D51.png","arrowright","","[""materials/imgs/D82.png"",""materials/imgs/D65.png""]","false","random","","",""
"","","","","","html-keyboard-response","221","306530","0.0-15.0-0.4-0.32","n01syvnxlj","","n01syvnxlj","""2024-11-12T18:18:03.720Z""","null","+","null","","","","","","",""
"","","","","","image-keyboard-response","222","307284","0.0-15.0-0.4-1.32","n01syvnxlj","","n01syvnxlj","""2024-11-12T18:18:03.720Z""","752","materials/imgs/D19.png","arrowright","","[""materials/imgs/D105.png"",""materials/imgs/D111.png""]","false","random","","",""
"","","","","","html-keyboard-response","223","307788","0.0-15.0-0.4-0.33","n01syvnxlj","","n01syvnxlj","""2024-11-12T18:18:03.720Z""","null","+","null","","","","","","",""
"","","","","","image-keyboard-response","224","308667","0.0-15.0-0.4-1.33","n01syvnxlj","","n01syvnxlj","""2024-11-12T18:18:03.720Z""","877","materials/imgs/D6.png","arrowright","","[""materials/imgs/D82.png"",""materials/imgs/D3.png""]","false","random","","",""
"","","","","","html-keyboard-response","225","309172","0.0-15.0-0.4-0.34","n01syvnxlj","","n01syvnxlj","""2024-11-12T18:18:03.720Z""","null","+","null","","","","","","",""
"","","","","","image-keyboard-response","226","310624","0.0-15.0-0.4-1.34","n01syvnxlj","","n01syvnxlj","""2024-11-12T18:18:03.720Z""","1451","materials/imgs/D84.png","arrowleft","","[""materials/imgs/D11.png"",""materials/imgs/D49.png""]","false","random","","",""
"","","","","","html-keyboard-response","227","311125","0.0-15.0-1.4-0.4","n01syvnxlj","","n01syvnxlj","""2024-11-12T18:18:03.720Z""","null","+","null","","","","","","",""
"","","","","","image-keyboard-response","228","311839","0.0-15.0-1.4-1.4","n01syvnxlj","","n01syvnxlj","""2024-11-12T18:18:03.720Z""","711","materials/imgs/D76.png","arrowleft","","[""materials/imgs/D76.png"",""materials/imgs/D78.png""]","","check","materials/imgs/D76.png","0","true"
"","","","","","html-keyboard-response","229","312341","0.0-15.0-2.4-0.8","n01syvnxlj","","n01syvnxlj","""2024-11-12T18:18:03.720Z""","null","+","null","","","","","","",""
"","","","","","image-keyboard-response","230","313314","0.0-15.0-2.4-1.8","n01syvnxlj","","n01syvnxlj","""2024-11-12T18:18:03.720Z""","970","materials/imgs/D22.png","arrowleft","","[""materials/imgs/D4.png"",""materials/imgs/D25.png""]","false","validation","","",""
"","","","","","html-keyboard-response","231","313816","0.0-15.0-2.4-0.9","n01syvnxlj","","n01syvnxlj","""2024-11-12T18:18:03.720Z""","null","+","null","","","","","","",""
"","","","","","image-keyboard-response","232","314610","0.0-15.0-2.4-1.9","n01syvnxlj","","n01syvnxlj","""2024-11-12T18:18:03.720Z""","792","materials/imgs/D22.png","arrowleft","","[""materials/imgs/D4.png"",""materials/imgs/D25.png""]","false","validation","","",""
"","","","","","html-button-response","233","317283","0.0-16.0","n01syvnxlj","","n01syvnxlj","""2024-11-12T18:18:03.720Z""","2672","You have completed 50% of the trials. Please click 'Continue' when you are ready proceed.","0","","","","","","",""
"","","","","","html-keyboard-response","234","317784","0.0-17.0-0.0-0.0","n01syvnxlj","","n01syvnxlj","""2024-11-12T18:18:03.720Z""","null","+","null","","","","","","",""
"","","","","","image-keyboard-response","235","319094","0.0-17.0-0.0-1.0","n01syvnxlj","","n01syvnxlj","""2024-11-12T18:18:03.720Z""","1308","materials/imgs/D47.png","arrowright","","[""materials/imgs/D92.png"",""materials/imgs/D104.png""]","false","random","","",""
"","","","","","html-keyboard-response","236","319596","0.0-17.0-0.0-0.1","n01syvnxlj","","n01syvnxlj","""2024-11-12T18:18:03.720Z""","null","+","null","","","","","","",""
"","","","","","image-keyboard-response","237","320649","0.0-17.0-0.0-1.1","n01syvnxlj","","n01syvnxlj","""2024-11-12T18:18:03.720Z""","1051","materials/imgs/D77.png","arrowright","","[""materials/imgs/D74.png"",""materials/imgs/D29.png""]","false","random","","",""
"","","","","","html-keyboard-response","238","321154","0.0-17.0-0.0-0.2","n01syvnxlj","","n01syvnxlj","""2024-11-12T18:18:03.720Z""","null","+","null","","","","","","",""
"","","","","","image-keyboard-response","239","321988","0.0-17.0-0.0-1.2","n01syvnxlj","","n01syvnxlj","""2024-11-12T18:18:03.720Z""","832","materials/imgs/D47.png","arrowright","","[""materials/imgs/D16.png"",""materials/imgs/D94.png""]","false","random","","",""
"","","","","","html-keyboard-response","240","322492","0.0-17.0-0.0-0.3","n01syvnxlj","","n01syvnxlj","""2024-11-12T18:18:03.720Z""","null","+","null","","","","","","",""
"","","","","","image-keyboard-response","241","323741","0.0-17.0-0.0-1.3","n01syvnxlj","","n01syvnxlj","""2024-11-12T18:18:03.720Z""","1247","materials/imgs/D56.png","arrowleft","","[""materials/imgs/D26.png"",""materials/imgs/D34.png""]","false","random","","",""
"","","","","","html-keyboard-response","242","324243","0.0-17.0-0.0-0.4","n01syvnxlj","","n01syvnxlj","""2024-11-12T18:18:03.720Z""","null","+","null","","","","","","",""
"","","","","","image-keyboard-response","243","325153","0.0-17.0-0.0-1.4","n01syvnxlj","","n01syvnxlj","""2024-11-12T18:18:03.720Z""","908","materials/imgs/D29.png","arrowleft","","[""materials/imgs/D16.png"",""materials/imgs/D46.png""]","false","random","","",""
"","","","","","html-keyboard-response","244","325657","0.0-17.0-0.0-0.5","n01syvnxlj","","n01syvnxlj","""2024-11-12T18:18:03.720Z""","null","+","null","","","","","","",""
"","","","","","image-keyboard-response","245","327436","0.0-17.0-0.0-1.5","n01syvnxlj","","n01syvnxlj","""2024-11-12T18:18:03.720Z""","1776","materials/imgs/D74.png","arrowright","","[""materials/imgs/D26.png"",""materials/imgs/D102.png""]","false","random","","",""
"","","","","","html-keyboard-response","246","327941","0.0-17.0-0.0-0.6","n01syvnxlj","","n01syvnxlj","""2024-11-12T18:18:03.720Z""","null","+","null","","","","","","",""
"","","","","","image-keyboard-response","247","329053","0.0-17.0-0.0-1.6","n01syvnxlj","","n01syvnxlj","""2024-11-12T18:18:03.720Z""","1104","materials/imgs/D77.png","arrowleft","","[""materials/imgs/D80.png"",""materials/imgs/D78.png""]","false","random","","",""
"","","","","","html-keyboard-response","248","329559","0.0-17.0-1.0-0.0","n01syvnxlj","","n01syvnxlj","""2024-11-12T18:18:03.720Z""","null","+","null","","","","","","",""
"","","","","","image-keyboard-response","249","330953","0.0-17.0-1.0-1.0","n01syvnxlj","","n01syvnxlj","""2024-11-12T18:18:03.720Z""","1392","materials/imgs/D78.png","arrowright","","[""materials/imgs/D76.png"",""materials/imgs/D78.png""]","","check","materials/imgs/D78.png","1","true"
"","","","","","html-keyboard-response","250","331454","0.0-17.0-2.0-0.0","n01syvnxlj","","n01syvnxlj","""2024-11-12T18:18:03.720Z""","null","+","null","","","","","","",""
"","","","","","image-keyboard-response","251","334343","0.0-17.0-2.0-1.0","n01syvnxlj","","n01syvnxlj","""2024-11-12T18:18:03.720Z""","2887","materials/imgs/D1.png","arrowright","","[""materials/imgs/D57.png"",""materials/imgs/D76.png""]","false","validation","","",""
"","","","","","html-keyboard-response","252","334846","0.0-17.0-2.0-0.1","n01syvnxlj","","n01syvnxlj","""2024-11-12T18:18:03.720Z""","null","+","null","","","","","","",""
"","","","","","image-keyboard-response","253","356766","0.0-17.0-2.0-1.1","n01syvnxlj","","n01syvnxlj","""2024-11-12T18:18:03.720Z""","21917","materials/imgs/D48.png","arrowright","","[""materials/imgs/D4.png"",""materials/imgs/D37.png""]","false","validation","","",""
"","","","","","html-keyboard-response","254","357268","0.0-17.0-0.1-0.7","n01syvnxlj","","n01syvnxlj","""2024-11-12T18:18:03.720Z""","null","+","null","","","","","","",""
"","","","","","image-keyboard-response","255","362159","0.0-17.0-0.1-1.7","n01syvnxlj","","n01syvnxlj","""2024-11-12T18:18:03.720Z""","4890","materials/imgs/D48.png","arrowright","","[""materials/imgs/D76.png"",""materials/imgs/D105.png""]","false","random","","",""
"","","","","","html-keyboard-response","256","362660","0.0-17.0-0.1-0.8","n01syvnxlj","","n01syvnxlj","""2024-11-12T18:18:03.720Z""","null","+","null","","","","","","",""
"","","","","","image-keyboard-response","257","364427","0.0-17.0-0.1-1.8","n01syvnxlj","","n01syvnxlj","""2024-11-12T18:18:03.720Z""","1765","materials/imgs/D53.png","arrowright","","[""materials/imgs/D36.png"",""materials/imgs/D21.png""]","false","random","","",""
"","","","","","html-keyboard-response","258","364929","0.0-17.0-0.1-0.9","n01syvnxlj","","n01syvnxlj","""2024-11-12T18:18:03.720Z""","null","+","null","","","","","","",""
"","","","","","image-keyboard-response","259","367091","0.0-17.0-0.1-1.9","n01syvnxlj","","n01syvnxlj","""2024-11-12T18:18:03.720Z""","2160","materials/imgs/D26.png","arrowright","","[""materials/imgs/D78.png"",""materials/imgs/D111.png""]","false","random","","",""
"","","","","","html-keyboard-response","260","367591","0.0-17.0-0.1-0.10","n01syvnxlj","","n01syvnxlj","""2024-11-12T18:18:03.720Z""","null","+","null","","","","","","",""
"","","","","","image-keyboard-response","261","369081","0.0-17.0-0.1-1.10","n01syvnxlj","","n01syvnxlj","""2024-11-12T18:18:03.720Z""","1488","materials/imgs/D24.png","arrowleft","","[""materials/imgs/D81.png"",""materials/imgs/D34.png""]","false","random","","",""
"","","","","","html-keyboard-response","262","369585","0.0-17.0-0.1-0.11","n01syvnxlj","","n01syvnxlj","""2024-11-12T18:18:03.720Z""","null","+","null","","","","","","",""
"","","","","","image-keyboard-response","263","370788","0.0-17.0-0.1-1.11","n01syvnxlj","","n01syvnxlj","""2024-11-12T18:18:03.720Z""","1201","materials/imgs/D65.png","arrowright","","[""materials/imgs/D29.png"",""materials/imgs/D19.png""]","false","random","","",""
"","","","","","html-keyboard-response","264","371290","0.0-17.0-0.1-0.12","n01syvnxlj","","n01syvnxlj","""2024-11-12T18:18:03.720Z""","null","+","null","","","","","","",""
"","","","","","image-keyboard-response","265","372498","0.0-17.0-0.1-1.12","n01syvnxlj","","n01syvnxlj","""2024-11-12T18:18:03.720Z""","1206","materials/imgs/D104.png","arrowleft","","[""materials/imgs/D32.png"",""materials/imgs/D25.png""]","false","random","","",""
"","","","","","html-keyboard-response","266","373002","0.0-17.0-0.1-0.13","n01syvnxlj","","n01syvnxlj","""2024-11-12T18:18:03.720Z""","null","+","null","","","","","","",""
"","","","","","image-keyboard-response","267","374071","0.0-17.0-0.1-1.13","n01syvnxlj","","n01syvnxlj","""2024-11-12T18:18:03.720Z""","1067","materials/imgs/D1.png","arrowleft","","[""materials/imgs/D26.png"",""materials/imgs/D46.png""]","false","random","","",""
"","","","","","html-keyboard-response","268","374574","0.0-17.0-1.1-0.1","n01syvnxlj","","n01syvnxlj","""2024-11-12T18:18:03.720Z""","null","+","null","","","","","","",""
"","","","","","image-keyboard-response","269","490316","0.0-17.0-1.1-1.1","n01syvnxlj","","n01syvnxlj","""2024-11-12T18:18:03.720Z""","115744","materials/imgs/D53.png","arrowright","","[""materials/imgs/D64.png"",""materials/imgs/D53.png""]","","check","materials/imgs/D53.png","1","true"
"","","","","","html-keyboard-response","270","490820","0.0-17.0-2.1-0.2","n01syvnxlj","","n01syvnxlj","""2024-11-12T18:18:03.720Z""","null","+","null","","","","","","",""
"","","","","","image-keyboard-response","271","492590","0.0-17.0-2.1-1.2","n01syvnxlj","","n01syvnxlj","""2024-11-12T18:18:03.720Z""","1769","materials/imgs/D49.png","arrowright","","[""materials/imgs/D8.png"",""materials/imgs/D101.png""]","false","validation","","",""
"","","","","","html-keyboard-response","272","493093","0.0-17.0-2.1-0.3","n01syvnxlj","","n01syvnxlj","""2024-11-12T18:18:03.720Z""","null","+","null","","","","","","",""
"","","","","","image-keyboard-response","273","495349","0.0-17.0-2.1-1.3","n01syvnxlj","","n01syvnxlj","""2024-11-12T18:18:03.720Z""","2253","materials/imgs/D37.png","arrowright","","[""materials/imgs/D84.png"",""materials/imgs/D111.png""]","false","validation","","",""
"","","","","","html-keyboard-response","274","495851","0.0-17.0-0.2-0.14","n01syvnxlj","","n01syvnxlj","""2024-11-12T18:18:03.720Z""","null","+","null","","","","","","",""
"","","","","","image-keyboard-response","275","497772","0.0-17.0-0.2-1.14","n01syvnxlj","","n01syvnxlj","""2024-11-12T18:18:03.720Z""","1918","materials/imgs/D92.png","arrowleft","","[""materials/imgs/D83.png"",""materials/imgs/D46.png""]","false","random","","",""
"","","","","","html-keyboard-response","276","498277","0.0-17.0-0.2-0.15","n01syvnxlj","","n01syvnxlj","""2024-11-12T18:18:03.720Z""","null","+","null","","","","","","",""
"","","","","","image-keyboard-response","277","499601","0.0-17.0-0.2-1.15","n01syvnxlj","","n01syvnxlj","""2024-11-12T18:18:03.720Z""","1322","materials/imgs/D64.png","arrowleft","","[""materials/imgs/D51.png"",""materials/imgs/D105.png""]","false","random","","",""
"","","","","","html-keyboard-response","278","500105","0.0-17.0-0.2-0.16","n01syvnxlj","","n01syvnxlj","""2024-11-12T18:18:03.720Z""","null","+","null","","","","","","",""
"","","","","","image-keyboard-response","279","500879","0.0-17.0-0.2-1.16","n01syvnxlj","","n01syvnxlj","""2024-11-12T18:18:03.720Z""","772","materials/imgs/D22.png","arrowright","","[""materials/imgs/D46.png"",""materials/imgs/D87.png""]","false","random","","",""
"","","","","","html-keyboard-response","280","501385","0.0-17.0-0.2-0.17","n01syvnxlj","","n01syvnxlj","""2024-11-12T18:18:03.720Z""","null","+","null","","","","","","",""
"","","","","","image-keyboard-response","281","502078","0.0-17.0-0.2-1.17","n01syvnxlj","","n01syvnxlj","""2024-11-12T18:18:03.720Z""","692","materials/imgs/D80.png","arrowright","","[""materials/imgs/D46.png"",""materials/imgs/D77.png""]","false","random","","",""
"","","","","","html-keyboard-response","282","502583","0.0-17.0-0.2-0.18","n01syvnxlj","","n01syvnxlj","""2024-11-12T18:18:03.720Z""","null","+","null","","","","","","",""
"","","","","","image-keyboard-response","283","503434","0.0-17.0-0.2-1.18","n01syvnxlj","","n01syvnxlj","""2024-11-12T18:18:03.720Z""","849","materials/imgs/D14.png","arrowright","","[""materials/imgs/D96.png"",""materials/imgs/D11.png""]","false","random","","",""
"","","","","","html-keyboard-response","284","503940","0.0-17.0-0.2-0.19","n01syvnxlj","","n01syvnxlj","""2024-11-12T18:18:03.720Z""","null","+","null","","","","","","",""
"","","","","","image-keyboard-response","285","505176","0.0-17.0-0.2-1.19","n01syvnxlj","","n01syvnxlj","""2024-11-12T18:18:03.720Z""","1233","materials/imgs/D11.png","arrowleft","","[""materials/imgs/D36.png"",""materials/imgs/D47.png""]","false","random","","",""
"","","","","","html-keyboard-response","286","505678","0.0-17.0-0.2-0.20","n01syvnxlj","","n01syvnxlj","""2024-11-12T18:18:03.720Z""","null","+","null","","","","","","",""
"","","","","","image-keyboard-response","287","507232","0.0-17.0-0.2-1.20","n01syvnxlj","","n01syvnxlj","""2024-11-12T18:18:03.720Z""","1551","materials/imgs/D4.png","arrowleft","","[""materials/imgs/D79.png"",""materials/imgs/D37.png""]","false","random","","",""
"","","","","","html-keyboard-response","288","507734","0.0-17.0-1.2-0.2","n01syvnxlj","","n01syvnxlj","""2024-11-12T18:18:03.720Z""","null","+","null","","","","","","",""
"","","","","","image-keyboard-response","289","508380","0.0-17.0-1.2-1.2","n01syvnxlj","","n01syvnxlj","""2024-11-12T18:18:03.720Z""","644","materials/imgs/D101.png","arrowright","","[""materials/imgs/D106.png"",""materials/imgs/D101.png""]","","check","materials/imgs/D101.png","1","true"
"","","","","","html-keyboard-response","290","508882","0.0-17.0-2.2-0.4","n01syvnxlj","","n01syvnxlj","""2024-11-12T18:18:03.720Z""","null","+","null","","","","","","",""
"","","","","","image-keyboard-response","291","510152","0.0-17.0-2.2-1.4","n01syvnxlj","","n01syvnxlj","""2024-11-12T18:18:03.720Z""","1268","materials/imgs/D79.png","arrowleft","","[""materials/imgs/D51.png"",""materials/imgs/D64.png""]","false","validation","","",""
"","","","","","html-keyboard-response","292","510654","0.0-17.0-2.2-0.5","n01syvnxlj","","n01syvnxlj","""2024-11-12T18:18:03.720Z""","null","+","null","","","","","","",""
"","","","","","image-keyboard-response","293","512647","0.0-17.0-2.2-1.5","n01syvnxlj","","n01syvnxlj","""2024-11-12T18:18:03.720Z""","1991","materials/imgs/D36.png","arrowleft","","[""materials/imgs/D47.png"",""materials/imgs/D49.png""]","false","validation","","",""
"","","","","","html-keyboard-response","294","513151","0.0-17.0-0.3-0.21","n01syvnxlj","","n01syvnxlj","""2024-11-12T18:18:03.720Z""","null","+","null","","","","","","",""
"","","","","","image-keyboard-response","295","516119","0.0-17.0-0.3-1.21","n01syvnxlj","","n01syvnxlj","""2024-11-12T18:18:03.720Z""","2965","materials/imgs/D48.png","arrowright","","[""materials/imgs/D77.png"",""materials/imgs/D85.png""]","false","random","","",""
"","","","","","html-keyboard-response","296","516620","0.0-17.0-0.3-0.22","n01syvnxlj","","n01syvnxlj","""2024-11-12T18:18:03.720Z""","null","+","null","","","","","","",""
"","","","","","image-keyboard-response","297","518545","0.0-17.0-0.3-1.22","n01syvnxlj","","n01syvnxlj","""2024-11-12T18:18:03.720Z""","1923","materials/imgs/D8.png","arrowright","","[""materials/imgs/D16.png"",""materials/imgs/D35.png""]","false","random","","",""
"","","","","","html-keyboard-response","298","519047","0.0-17.0-0.3-0.23","n01syvnxlj","","n01syvnxlj","""2024-11-12T18:18:03.720Z""","null","+","null","","","","","","",""
"","","","","","image-keyboard-response","299","520887","0.0-17.0-0.3-1.23","n01syvnxlj","","n01syvnxlj","""2024-11-12T18:18:03.720Z""","1839","materials/imgs/D78.png","arrowright","","[""materials/imgs/D32.png"",""materials/imgs/D6.png""]","false","random","","",""
"","","","","","html-keyboard-response","300","521389","0.0-17.0-0.3-0.24","n01syvnxlj","","n01syvnxlj","""2024-11-12T18:18:03.720Z""","null","+","null","","","","","","",""
"","","","","","image-keyboard-response","301","524120","0.0-17.0-0.3-1.24","n01syvnxlj","","n01syvnxlj","""2024-11-12T18:18:03.720Z""","2729","materials/imgs/D21.png","arrowleft","","[""materials/imgs/D81.png"",""materials/imgs/D111.png""]","false","random","","",""
"","","","","","html-keyboard-response","302","524621","0.0-17.0-0.3-0.25","n01syvnxlj","","n01syvnxlj","""2024-11-12T18:18:03.720Z""","null","+","null","","","","","","",""
"","","","","","image-keyboard-response","303","525740","0.0-17.0-0.3-1.25","n01syvnxlj","","n01syvnxlj","""2024-11-12T18:18:03.720Z""","1117","materials/imgs/D22.png","arrowright","","[""materials/imgs/D51.png"",""materials/imgs/D18.png""]","false","random","","",""
"","","","","","html-keyboard-response","304","526242","0.0-17.0-0.3-0.26","n01syvnxlj","","n01syvnxlj","""2024-11-12T18:18:03.720Z""","null","+","null","","","","","","",""
"","","","","","image-keyboard-response","305","527372","0.0-17.0-0.3-1.26","n01syvnxlj","","n01syvnxlj","""2024-11-12T18:18:03.720Z""","1129","materials/imgs/D96.png","arrowright","","[""materials/imgs/D92.png"",""materials/imgs/D83.png""]","false","random","","",""
"","","","","","html-keyboard-response","306","527873","0.0-17.0-0.3-0.27","n01syvnxlj","","n01syvnxlj","""2024-11-12T18:18:03.720Z""","null","+","null","","","","","","",""
"","","","","","image-keyboard-response","307","530097","0.0-17.0-0.3-1.27","n01syvnxlj","","n01syvnxlj","""2024-11-12T18:18:03.720Z""","2222","materials/imgs/D92.png","arrowleft","","[""materials/imgs/D52.png"",""materials/imgs/D1.png""]","false","random","","",""
"","","","","","html-keyboard-response","308","530600","0.0-17.0-1.3-0.3","n01syvnxlj","","n01syvnxlj","""2024-11-12T18:18:03.720Z""","null","+","null","","","","","","",""
"","","","","","image-keyboard-response","309","531773","0.0-17.0-1.3-1.3","n01syvnxlj","","n01syvnxlj","""2024-11-12T18:18:03.720Z""","1171","materials/imgs/D101.png","arrowright","","[""materials/imgs/D106.png"",""materials/imgs/D101.png""]","","check","materials/imgs/D101.png","1","true"
"","","","","","html-keyboard-response","310","532275","0.0-17.0-2.3-0.6","n01syvnxlj","","n01syvnxlj","""2024-11-12T18:18:03.720Z""","null","+","null","","","","","","",""
"","","","","","image-keyboard-response","311","534816","0.0-17.0-2.3-1.6","n01syvnxlj","","n01syvnxlj","""2024-11-12T18:18:03.720Z""","2539","materials/imgs/D68.png","arrowleft","","[""materials/imgs/D96.png"",""materials/imgs/D48.png""]","false","validation","","",""
"","","","","","html-keyboard-response","312","535320","0.0-17.0-2.3-0.7","n01syvnxlj","","n01syvnxlj","""2024-11-12T18:18:03.720Z""","null","+","null","","","","","","",""
"","","","","","image-keyboard-response","313","536391","0.0-17.0-2.3-1.7","n01syvnxlj","","n01syvnxlj","""2024-11-12T18:18:03.720Z""","1070","materials/imgs/D79.png","arrowleft","","[""materials/imgs/D51.png"",""materials/imgs/D64.png""]","false","validation","","",""
"","","","","","html-keyboard-response","314","536895","0.0-17.0-0.4-0.28","n01syvnxlj","","n01syvnxlj","""2024-11-12T18:18:03.720Z""","null","+","null","","","","","","",""
"","","","","","image-keyboard-response","315","538420","0.0-17.0-0.4-1.28","n01syvnxlj","","n01syvnxlj","""2024-11-12T18:18:03.720Z""","1523","materials/imgs/D105.png","arrowright","","[""materials/imgs/D6.png"",""materials/imgs/D83.png""]","false","random","","",""
"","","","","","html-keyboard-response","316","538925","0.0-17.0-0.4-0.29","n01syvnxlj","","n01syvnxlj","""2024-11-12T18:18:03.720Z""","null","+","null","","","","","","",""
"","","","","","image-keyboard-response","317","540283","0.0-17.0-0.4-1.29","n01syvnxlj","","n01syvnxlj","""2024-11-12T18:18:03.720Z""","1357","materials/imgs/D57.png","arrowright","","[""materials/imgs/D106.png"",""materials/imgs/D17.png""]","false","random","","",""
"","","","","","html-keyboard-response","318","540787","0.0-17.0-0.4-0.30","n01syvnxlj","","n01syvnxlj","""2024-11-12T18:18:03.720Z""","null","+","null","","","","","","",""
"","","","","","image-keyboard-response","319","541443","0.0-17.0-0.4-1.30","n01syvnxlj","","n01syvnxlj","""2024-11-12T18:18:03.720Z""","654","materials/imgs/D18.png","arrowleft","","[""materials/imgs/D56.png"",""materials/imgs/D57.png""]","false","random","","",""
"","","","","","html-keyboard-response","320","541948","0.0-17.0-0.4-0.31","n01syvnxlj","","n01syvnxlj","""2024-11-12T18:18:03.720Z""","null","+","null","","","","","","",""
"","","","","","image-keyboard-response","321","542816","0.0-17.0-0.4-1.31","n01syvnxlj","","n01syvnxlj","""2024-11-12T18:18:03.720Z""","866","materials/imgs/D84.png","arrowleft","","[""materials/imgs/D9.png"",""materials/imgs/D20.png""]","false","random","","",""
"","","","","","html-keyboard-response","322","543317","0.0-17.0-0.4-0.32","n01syvnxlj","","n01syvnxlj","""2024-11-12T18:18:03.720Z""","null","+","null","","","","","","",""
"","","","","","image-keyboard-response","323","544382","0.0-17.0-0.4-1.32","n01syvnxlj","","n01syvnxlj","""2024-11-12T18:18:03.720Z""","1063","materials/imgs/D103.png","arrowright","","[""materials/imgs/D53.png"",""materials/imgs/D3.png""]","false","random","","",""
"","","","","","html-keyboard-response","324","544886","0.0-17.0-0.4-0.33","n01syvnxlj","","n01syvnxlj","""2024-11-12T18:18:03.720Z""","null","+","null","","","","","","",""
"","","","","","image-keyboard-response","325","546403","0.0-17.0-0.4-1.33","n01syvnxlj","","n01syvnxlj","""2024-11-12T18:18:03.720Z""","1514","materials/imgs/D92.png","arrowright","","[""materials/imgs/D49.png"",""materials/imgs/D75.png""]","false","random","","",""
"","","","","","html-keyboard-response","326","546904","0.0-17.0-0.4-0.34","n01syvnxlj","","n01syvnxlj","""2024-11-12T18:18:03.720Z""","null","+","null","","","","","","",""
"","","","","","image-keyboard-response","327","548230","0.0-17.0-0.4-1.34","n01syvnxlj","","n01syvnxlj","""2024-11-12T18:18:03.720Z""","1324","materials/imgs/D85.png","arrowright","","[""materials/imgs/D34.png"",""materials/imgs/D37.png""]","false","random","","",""
"","","","","","html-keyboard-response","328","548731","0.0-17.0-1.4-0.4","n01syvnxlj","","n01syvnxlj","""2024-11-12T18:18:03.720Z""","null","+","null","","","","","","",""
"","","","","","image-keyboard-response","329","549368","0.0-17.0-1.4-1.4","n01syvnxlj","","n01syvnxlj","""2024-11-12T18:18:03.720Z""","635","materials/imgs/D106.png","arrowleft","","[""materials/imgs/D106.png"",""materials/imgs/D101.png""]","","check","materials/imgs/D106.png","0","true"
"","","","","","html-keyboard-response","330","549872","0.0-17.0-2.4-0.8","n01syvnxlj","","n01syvnxlj","""2024-11-12T18:18:03.720Z""","null","+","null","","","","","","",""
"","","","","","image-keyboard-response","331","551542","0.0-17.0-2.4-1.8","n01syvnxlj","","n01syvnxlj","""2024-11-12T18:18:03.720Z""","1669","materials/imgs/D3.png","arrowright","","[""materials/imgs/D79.png"",""materials/imgs/D48.png""]","false","validation","","",""
"","","","","","html-keyboard-response","332","552044","0.0-17.0-2.4-0.9","n01syvnxlj","","n01syvnxlj","""2024-11-12T18:18:03.720Z""","null","+","null","","","","","","",""
"","","","","","image-keyboard-response","333","558587","0.0-17.0-2.4-1.9","n01syvnxlj","","n01syvnxlj","""2024-11-12T18:18:03.720Z""","6541","materials/imgs/D49.png","arrowleft","","[""materials/imgs/D8.png"",""materials/imgs/D101.png""]","false","validation","","",""
"","","","","","html-button-response","334","559946","0.0-18.0","n01syvnxlj","","n01syvnxlj","""2024-11-12T18:18:03.720Z""","1358","You have completed 75% of the trials. Please click 'Continue' when you are ready proceed.","0","","","","","","",""
"","","","","","html-keyboard-response","335","560448","0.0-19.0-0.0-0.0","n01syvnxlj","","n01syvnxlj","""2024-11-12T18:18:03.720Z""","null","+","null","","","","","","",""
"","","","","","image-keyboard-response","336","562021","0.0-19.0-0.0-1.0","n01syvnxlj","","n01syvnxlj","""2024-11-12T18:18:03.720Z""","1571","materials/imgs/D16.png","arrowright","","[""materials/imgs/D18.png"",""materials/imgs/D92.png""]","false","random","","",""
"","","","","","html-keyboard-response","337","562525","0.0-19.0-0.0-0.1","n01syvnxlj","","n01syvnxlj","""2024-11-12T18:18:03.720Z""","null","+","null","","","","","","",""
"","","","","","image-keyboard-response","338","563675","0.0-19.0-0.0-1.1","n01syvnxlj","","n01syvnxlj","""2024-11-12T18:18:03.720Z""","1149","materials/imgs/D37.png","arrowright","","[""materials/imgs/D94.png"",""materials/imgs/D19.png""]","false","random","","",""
"","","","","","html-keyboard-response","339","564177","0.0-19.0-0.0-0.2","n01syvnxlj","","n01syvnxlj","""2024-11-12T18:18:03.720Z""","null","+","null","","","","","","",""
"","","","","","image-keyboard-response","340","565598","0.0-19.0-0.0-1.2","n01syvnxlj","","n01syvnxlj","""2024-11-12T18:18:03.720Z""","1419","materials/imgs/D80.png","arrowright","","[""materials/imgs/D26.png"",""materials/imgs/D85.png""]","false","random","","",""
"","","","","","html-keyboard-response","341","566102","0.0-19.0-0.0-0.3","n01syvnxlj","","n01syvnxlj","""2024-11-12T18:18:03.720Z""","null","+","null","","","","","","",""
"","","","","","image-keyboard-response","342","567259","0.0-19.0-0.0-1.3","n01syvnxlj","","n01syvnxlj","""2024-11-12T18:18:03.720Z""","1154","materials/imgs/D8.png","arrowright","","[""materials/imgs/D26.png"",""materials/imgs/D4.png""]","false","random","","",""
"","","","","","html-keyboard-response","343","567762","0.0-19.0-0.0-0.4","n01syvnxlj","","n01syvnxlj","""2024-11-12T18:18:03.720Z""","null","+","null","","","","","","",""
"","","","","","image-keyboard-response","344","569956","0.0-19.0-0.0-1.4","n01syvnxlj","","n01syvnxlj","""2024-11-12T18:18:03.720Z""","2191","materials/imgs/D49.png","arrowleft","","[""materials/imgs/D78.png"",""materials/imgs/D68.png""]","false","random","","",""
"","","","","","html-keyboard-response","345","570458","0.0-19.0-0.0-0.5","n01syvnxlj","","n01syvnxlj","""2024-11-12T18:18:03.720Z""","null","+","null","","","","","","",""
"","","","","","image-keyboard-response","346","575087","0.0-19.0-0.0-1.5","n01syvnxlj","","n01syvnxlj","""2024-11-12T18:18:03.720Z""","4627","materials/imgs/D94.png","arrowright","","[""materials/imgs/D16.png"",""materials/imgs/D105.png""]","false","random","","",""
"","","","","","html-keyboard-response","347","575591","0.0-19.0-0.0-0.6","n01syvnxlj","","n01syvnxlj","""2024-11-12T18:18:03.720Z""","null","+","null","","","","","","",""
"","","","","","image-keyboard-response","348","577052","0.0-19.0-0.0-1.6","n01syvnxlj","","n01syvnxlj","""2024-11-12T18:18:03.720Z""","1459","materials/imgs/D20.png","arrowright","","[""materials/imgs/D66.png"",""materials/imgs/D17.png""]","false","random","","",""
"","","","","","html-keyboard-response","349","577553","0.0-19.0-1.0-0.0","n01syvnxlj","","n01syvnxlj","""2024-11-12T18:18:03.720Z""","null","+","null","","","","","","",""
"","","","","","image-keyboard-response","350","578135","0.0-19.0-1.0-1.0","n01syvnxlj","","n01syvnxlj","""2024-11-12T18:18:03.720Z""","580","materials/imgs/D64.png","arrowleft","","[""materials/imgs/D64.png"",""materials/imgs/D53.png""]","","check","materials/imgs/D64.png","0","true"
"","","","","","html-keyboard-response","351","578639","0.0-19.0-2.0-0.0","n01syvnxlj","","n01syvnxlj","""2024-11-12T18:18:03.720Z""","null","+","null","","","","","","",""
"","","","","","image-keyboard-response","352","580789","0.0-19.0-2.0-1.0","n01syvnxlj","","n01syvnxlj","""2024-11-12T18:18:03.720Z""","2148","materials/imgs/D77.png","arrowright","","[""materials/imgs/D102.png"",""materials/imgs/D65.png""]","false","validation","","",""
"","","","","","html-keyboard-response","353","581291","0.0-19.0-2.0-0.1","n01syvnxlj","","n01syvnxlj","""2024-11-12T18:18:03.720Z""","null","+","null","","","","","","",""
"","","","","","image-keyboard-response","354","582535","0.0-19.0-2.0-1.1","n01syvnxlj","","n01syvnxlj","""2024-11-12T18:18:03.720Z""","1243","materials/imgs/D37.png","arrowleft","","[""materials/imgs/D84.png"",""materials/imgs/D111.png""]","false","validation","","",""
"","","","","","html-keyboard-response","355","583038","0.0-19.0-0.1-0.7","n01syvnxlj","","n01syvnxlj","""2024-11-12T18:18:03.720Z""","null","+","null","","","","","","",""
"","","","","","image-keyboard-response","356","583721","0.0-19.0-0.1-1.7","n01syvnxlj","","n01syvnxlj","""2024-11-12T18:18:03.720Z""","681","materials/imgs/D52.png","arrowleft","","[""materials/imgs/D55.png"",""materials/imgs/D47.png""]","false","random","","",""
"","","","","","html-keyboard-response","357","584223","0.0-19.0-0.1-0.8","n01syvnxlj","","n01syvnxlj","""2024-11-12T18:18:03.720Z""","null","+","null","","","","","","",""
"","","","","","image-keyboard-response","358","585529","0.0-19.0-0.1-1.8","n01syvnxlj","","n01syvnxlj","""2024-11-12T18:18:03.720Z""","1304","materials/imgs/D95.png","arrowleft","","[""materials/imgs/D37.png"",""materials/imgs/D46.png""]","false","random","","",""
"","","","","","html-keyboard-response","359","586031","0.0-19.0-0.1-0.9","n01syvnxlj","","n01syvnxlj","""2024-11-12T18:18:03.720Z""","null","+","null","","","","","","",""
"","","","","","image-keyboard-response","360","587304","0.0-19.0-0.1-1.9","n01syvnxlj","","n01syvnxlj","""2024-11-12T18:18:03.720Z""","1271","materials/imgs/D106.png","arrowright","","[""materials/imgs/D18.png"",""materials/imgs/D101.png""]","false","random","","",""
"","","","","","html-keyboard-response","361","587808","0.0-19.0-0.1-0.10","n01syvnxlj","","n01syvnxlj","""2024-11-12T18:18:03.720Z""","null","+","null","","","","","","",""
"","","","","","image-keyboard-response","362","589671","0.0-19.0-0.1-1.10","n01syvnxlj","","n01syvnxlj","""2024-11-12T18:18:03.720Z""","1860","materials/imgs/D46.png","arrowleft","","[""materials/imgs/D6.png"",""materials/imgs/D92.png""]","false","random","","",""
"","","","","","html-keyboard-response","363","590174","0.0-19.0-0.1-0.11","n01syvnxlj","","n01syvnxlj","""2024-11-12T18:18:03.720Z""","null","+","null","","","","","","",""
"","","","","","image-keyboard-response","364","591446","0.0-19.0-0.1-1.11","n01syvnxlj","","n01syvnxlj","""2024-11-12T18:18:03.720Z""","1270","materials/imgs/D84.png","arrowleft","","[""materials/imgs/D47.png"",""materials/imgs/D25.png""]","false","random","","",""
"","","","","","html-keyboard-response","365","591948","0.0-19.0-0.1-0.12","n01syvnxlj","","n01syvnxlj","""2024-11-12T18:18:03.720Z""","null","+","null","","","","","","",""
"","","","","","image-keyboard-response","366","593370","0.0-19.0-0.1-1.12","n01syvnxlj","","n01syvnxlj","""2024-11-12T18:18:03.720Z""","1420","materials/imgs/D35.png","arrowright","","[""materials/imgs/D8.png"",""materials/imgs/D24.png""]","false","random","","",""
"","","","","","html-keyboard-response","367","593873","0.0-19.0-0.1-0.13","n01syvnxlj","","n01syvnxlj","""2024-11-12T18:18:03.720Z""","null","+","null","","","","","","",""
"","","","","","image-keyboard-response","368","596658","0.0-19.0-0.1-1.13","n01syvnxlj","","n01syvnxlj","""2024-11-12T18:18:03.720Z""","2783","materials/imgs/D79.png","arrowright","","[""materials/imgs/D46.png"",""materials/imgs/D81.png""]","false","random","","",""
"","","","","","html-keyboard-response","369","597161","0.0-19.0-1.1-0.1","n01syvnxlj","","n01syvnxlj","""2024-11-12T18:18:03.720Z""","null","+","null","","","","","","",""
"","","","","","image-keyboard-response","370","597732","0.0-19.0-1.1-1.1","n01syvnxlj","","n01syvnxlj","""2024-11-12T18:18:03.720Z""","569","materials/imgs/D8.png","arrowright","","[""materials/imgs/D18.png"",""materials/imgs/D8.png""]","","check","materials/imgs/D8.png","1","true"
"","","","","","html-keyboard-response","371","598235","0.0-19.0-2.1-0.2","n01syvnxlj","","n01syvnxlj","""2024-11-12T18:18:03.720Z""","null","+","null","","","","","","",""
"","","","","","image-keyboard-response","372","599374","0.0-19.0-2.1-1.2","n01syvnxlj","","n01syvnxlj","""2024-11-12T18:18:03.720Z""","1137","materials/imgs/D24.png","arrowleft","","[""materials/imgs/D36.png"",""materials/imgs/D8.png""]","false","validation","","",""
"","","","","","html-keyboard-response","373","599879","0.0-19.0-2.1-0.3","n01syvnxlj","","n01syvnxlj","""2024-11-12T18:18:03.720Z""","null","+","null","","","","","","",""
"","","","","","image-keyboard-response","374","601125","0.0-19.0-2.1-1.3","n01syvnxlj","","n01syvnxlj","""2024-11-12T18:18:03.720Z""","1239","materials/imgs/D111.png","arrowleft","","[""materials/imgs/D82.png"",""materials/imgs/D95.png""]","false","validation","","",""
"","","","","","html-keyboard-response","375","601629","0.0-19.0-0.2-0.14","n01syvnxlj","","n01syvnxlj","""2024-11-12T18:18:03.720Z""","null","+","null","","","","","","",""
"","","","","","image-keyboard-response","376","602555","0.0-19.0-0.2-1.14","n01syvnxlj","","n01syvnxlj","""2024-11-12T18:18:03.720Z""","924","materials/imgs/D101.png","arrowleft","","[""materials/imgs/D56.png"",""materials/imgs/D105.png""]","false","random","","",""
"","","","","","html-keyboard-response","377","603058","0.0-19.0-0.2-0.15","n01syvnxlj","","n01syvnxlj","""2024-11-12T18:18:03.720Z""","null","+","null","","","","","","",""
"","","","","","image-keyboard-response","378","604256","0.0-19.0-0.2-1.15","n01syvnxlj","","n01syvnxlj","""2024-11-12T18:18:03.720Z""","1196","materials/imgs/D6.png","arrowleft","","[""materials/imgs/D87.png"",""materials/imgs/D25.png""]","false","random","","",""
"","","","","","html-keyboard-response","379","604759","0.0-19.0-0.2-0.16","n01syvnxlj","","n01syvnxlj","""2024-11-12T18:18:03.720Z""","null","+","null","","","","","","",""
"","","","","","image-keyboard-response","380","605546","0.0-19.0-0.2-1.16","n01syvnxlj","","n01syvnxlj","""2024-11-12T18:18:03.720Z""","785","materials/imgs/D92.png","arrowright","","[""materials/imgs/D77.png"",""materials/imgs/D111.png""]","false","random","","",""
"","","","","","html-keyboard-response","381","606049","0.0-19.0-0.2-0.17","n01syvnxlj","","n01syvnxlj","""2024-11-12T18:18:03.720Z""","null","+","null","","","","","","",""
"","","","","","image-keyboard-response","382","626826","0.0-19.0-0.2-1.17","n01syvnxlj","","n01syvnxlj","""2024-11-12T18:18:03.720Z""","20775","materials/imgs/D101.png","arrowright","","[""materials/imgs/D57.png"",""materials/imgs/D102.png""]","false","random","","",""
"","","","","","html-keyboard-response","383","627329","0.0-19.0-0.2-0.18","n01syvnxlj","","n01syvnxlj","""2024-11-12T18:18:03.720Z""","null","+","null","","","","","","",""
"","","","","","image-keyboard-response","384","628244","0.0-19.0-0.2-1.18","n01syvnxlj","","n01syvnxlj","""2024-11-12T18:18:03.720Z""","912","materials/imgs/D102.png","arrowright","","[""materials/imgs/D4.png"",""materials/imgs/D6.png""]","false","random","","",""
"","","","","","html-keyboard-response","385","628746","0.0-19.0-0.2-0.19","n01syvnxlj","","n01syvnxlj","""2024-11-12T18:18:03.720Z""","null","+","null","","","","","","",""
"","","","","","image-keyboard-response","386","629750","0.0-19.0-0.2-1.19","n01syvnxlj","","n01syvnxlj","""2024-11-12T18:18:03.720Z""","1002","materials/imgs/D32.png","arrowright","","[""materials/imgs/D25.png"",""materials/imgs/D85.png""]","false","random","","",""
"","","","","","html-keyboard-response","387","630254","0.0-19.0-0.2-0.20","n01syvnxlj","","n01syvnxlj","""2024-11-12T18:18:03.720Z""","null","+","null","","","","","","",""
"","","","","","image-keyboard-response","388","631612","0.0-19.0-0.2-1.20","n01syvnxlj","","n01syvnxlj","""2024-11-12T18:18:03.720Z""","1355","materials/imgs/D46.png","arrowleft","","[""materials/imgs/D11.png"",""materials/imgs/D32.png""]","false","random","","",""
"","","","","","html-keyboard-response","389","632115","0.0-19.0-1.2-0.2","n01syvnxlj","","n01syvnxlj","""2024-11-12T18:18:03.720Z""","null","+","null","","","","","","",""
"","","","","","image-keyboard-response","390","632643","0.0-19.0-1.2-1.2","n01syvnxlj","","n01syvnxlj","""2024-11-12T18:18:03.720Z""","526","materials/imgs/D101.png","arrowright","","[""materials/imgs/D106.png"",""materials/imgs/D101.png""]","","check","materials/imgs/D101.png","1","true"
"","","","","","html-keyboard-response","391","633146","0.0-19.0-2.2-0.4","n01syvnxlj","","n01syvnxlj","""2024-11-12T18:18:03.720Z""","null","+","null","","","","","","",""
"","","","","","image-keyboard-response","392","634594","0.0-19.0-2.2-1.4","n01syvnxlj","","n01syvnxlj","""2024-11-12T18:18:03.720Z""","1446","materials/imgs/D6.png","arrowright","","[""materials/imgs/D26.png"",""materials/imgs/D76.png""]","false","validation","","",""
"","","","","","html-keyboard-response","393","635095","0.0-19.0-2.2-0.5","n01syvnxlj","","n01syvnxlj","""2024-11-12T18:18:03.720Z""","null","+","null","","","","","","",""
"","","","","","image-keyboard-response","394","636407","0.0-19.0-2.2-1.5","n01syvnxlj","","n01syvnxlj","""2024-11-12T18:18:03.720Z""","1310","materials/imgs/D103.png","arrowleft","","[""materials/imgs/D76.png"",""materials/imgs/D106.png""]","false","validation","","",""
"","","","","","html-keyboard-response","395","636909","0.0-19.0-0.3-0.21","n01syvnxlj","","n01syvnxlj","""2024-11-12T18:18:03.720Z""","null","+","null","","","","","","",""
"","","","","","image-keyboard-response","396","637849","0.0-19.0-0.3-1.21","n01syvnxlj","","n01syvnxlj","""2024-11-12T18:18:03.720Z""","937","materials/imgs/D1.png","arrowleft","","[""materials/imgs/D35.png"",""materials/imgs/D32.png""]","false","random","","",""
"","","","","","html-keyboard-response","397","638351","0.0-19.0-0.3-0.22","n01syvnxlj","","n01syvnxlj","""2024-11-12T18:18:03.720Z""","null","+","null","","","","","","",""
"","","","","","image-keyboard-response","398","639252","0.0-19.0-0.3-1.22","n01syvnxlj","","n01syvnxlj","""2024-11-12T18:18:03.720Z""","899","materials/imgs/D52.png","arrowright","","[""materials/imgs/D82.png"",""materials/imgs/D55.png""]","false","random","","",""
"","","","","","html-keyboard-response","399","639756","0.0-19.0-0.3-0.23","n01syvnxlj","","n01syvnxlj","""2024-11-12T18:18:03.720Z""","null","+","null","","","","","","",""
"","","","","","image-keyboard-response","400","640311","0.0-19.0-0.3-1.23","n01syvnxlj","","n01syvnxlj","""2024-11-12T18:18:03.720Z""","553","materials/imgs/D104.png","arrowright","","[""materials/imgs/D74.png"",""materials/imgs/D22.png""]","false","random","","",""
"","","","","","html-keyboard-response","401","640815","0.0-19.0-0.3-0.24","n01syvnxlj","","n01syvnxlj","""2024-11-12T18:18:03.720Z""","null","+","null","","","","","","",""
"","","","","","image-keyboard-response","402","642236","0.0-19.0-0.3-1.24","n01syvnxlj","","n01syvnxlj","""2024-11-12T18:18:03.720Z""","1420","materials/imgs/D51.png","arrowright","","[""materials/imgs/D75.png"",""materials/imgs/D94.png""]","false","random","","",""
"","","","","","html-keyboard-response","403","642738","0.0-19.0-0.3-0.25","n01syvnxlj","","n01syvnxlj","""2024-11-12T18:18:03.720Z""","null","+","null","","","","","","",""
"","","","","","image-keyboard-response","404","643404","0.0-19.0-0.3-1.25","n01syvnxlj","","n01syvnxlj","""2024-11-12T18:18:03.720Z""","664","materials/imgs/D57.png","arrowleft","","[""materials/imgs/D4.png"",""materials/imgs/D66.png""]","false","random","","",""
"","","","","","html-keyboard-response","405","643905","0.0-19.0-0.3-0.26","n01syvnxlj","","n01syvnxlj","""2024-11-12T18:18:03.720Z""","null","+","null","","","","","","",""
"","","","","","image-keyboard-response","406","645911","0.0-19.0-0.3-1.26","n01syvnxlj","","n01syvnxlj","""2024-11-12T18:18:03.720Z""","2004","materials/imgs/D82.png","arrowright","","[""materials/imgs/D29.png"",""materials/imgs/D4.png""]","false","random","","",""
"","","","","","html-keyboard-response","407","646413","0.0-19.0-0.3-0.27","n01syvnxlj","","n01syvnxlj","""2024-11-12T18:18:03.720Z""","null","+","null","","","","","","",""
"","","","","","image-keyboard-response","408","647406","0.0-19.0-0.3-1.27","n01syvnxlj","","n01syvnxlj","""2024-11-12T18:18:03.720Z""","991","materials/imgs/D26.png","arrowright","","[""materials/imgs/D48.png"",""materials/imgs/D83.png""]","false","random","","",""
"","","","","","html-keyboard-response","409","647910","0.0-19.0-1.3-0.3","n01syvnxlj","","n01syvnxlj","""2024-11-12T18:18:03.720Z""","null","+","null","","","","","","",""
"","","","","","image-keyboard-response","410","648600","0.0-19.0-1.3-1.3","n01syvnxlj","","n01syvnxlj","""2024-11-12T18:18:03.720Z""","688","materials/imgs/D53.png","arrowright","","[""materials/imgs/D64.png"",""materials/imgs/D53.png""]","","check","materials/imgs/D53.png","1","true"
"","","","","","html-keyboard-response","411","649104","0.0-19.0-2.3-0.6","n01syvnxlj","","n01syvnxlj","""2024-11-12T18:18:03.720Z""","null","+","null","","","","","","",""
"","","","","","image-keyboard-response","412","651071","0.0-19.0-2.3-1.6","n01syvnxlj","","n01syvnxlj","""2024-11-12T18:18:03.720Z""","1966","materials/imgs/D47.png","arrowleft","","[""materials/imgs/D1.png"",""materials/imgs/D52.png""]","false","validation","","",""
"","","","","","html-keyboard-response","413","651576","0.0-19.0-2.3-0.7","n01syvnxlj","","n01syvnxlj","""2024-11-12T18:18:03.720Z""","null","+","null","","","","","","",""
"","","","","","image-keyboard-response","414","652181","0.0-19.0-2.3-1.7","n01syvnxlj","","n01syvnxlj","""2024-11-12T18:18:03.720Z""","604","materials/imgs/D57.png","arrowright","","[""materials/imgs/D111.png"",""materials/imgs/D4.png""]","false","validation","","",""
"","","","","","html-keyboard-response","415","652682","0.0-19.0-0.4-0.28","n01syvnxlj","","n01syvnxlj","""2024-11-12T18:18:03.720Z""","null","+","null","","","","","","",""
"","","","","","image-keyboard-response","416","653504","0.0-19.0-0.4-1.28","n01syvnxlj","","n01syvnxlj","""2024-11-12T18:18:03.720Z""","820","materials/imgs/D83.png","arrowright","","[""materials/imgs/D6.png"",""materials/imgs/D78.png""]","false","random","","",""
"","","","","","html-keyboard-response","417","654006","0.0-19.0-0.4-0.29","n01syvnxlj","","n01syvnxlj","""2024-11-12T18:18:03.720Z""","null","+","null","","","","","","",""
"","","","","","image-keyboard-response","418","655172","0.0-19.0-0.4-1.29","n01syvnxlj","","n01syvnxlj","""2024-11-12T18:18:03.720Z""","1165","materials/imgs/D75.png","arrowright","","[""materials/imgs/D52.png"",""materials/imgs/D103.png""]","false","random","","",""
"","","","","","html-keyboard-response","419","655675","0.0-19.0-0.4-0.30","n01syvnxlj","","n01syvnxlj","""2024-11-12T18:18:03.720Z""","null","+","null","","","","","","",""
"","","","","","image-keyboard-response","420","656290","0.0-19.0-0.4-1.30","n01syvnxlj","","n01syvnxlj","""2024-11-12T18:18:03.720Z""","613","materials/imgs/D32.png","arrowleft","","[""materials/imgs/D29.png"",""materials/imgs/D16.png""]","false","random","","",""
"","","","","","html-keyboard-response","421","656793","0.0-19.0-0.4-0.31","n01syvnxlj","","n01syvnxlj","""2024-11-12T18:18:03.720Z""","null","+","null","","","","","","",""
"","","","","","image-keyboard-response","422","657574","0.0-19.0-0.4-1.31","n01syvnxlj","","n01syvnxlj","""2024-11-12T18:18:03.720Z""","780","materials/imgs/D17.png","arrowright","","[""materials/imgs/D96.png"",""materials/imgs/D49.png""]","false","random","","",""
"","","","","","html-keyboard-response","423","658079","0.0-19.0-0.4-0.32","n01syvnxlj","","n01syvnxlj","""2024-11-12T18:18:03.720Z""","null","+","null","","","","","","",""
"","","","","","image-keyboard-response","424","658687","0.0-19.0-0.4-1.32","n01syvnxlj","","n01syvnxlj","""2024-11-12T18:18:03.720Z""","606","materials/imgs/D76.png","arrowright","","[""materials/imgs/D29.png"",""materials/imgs/D37.png""]","false","random","","",""
"","","","","","html-keyboard-response","425","659190","0.0-19.0-0.4-0.33","n01syvnxlj","","n01syvnxlj","""2024-11-12T18:18:03.720Z""","null","+","null","","","","","","",""
"","","","","","image-keyboard-response","426","660184","0.0-19.0-0.4-1.33","n01syvnxlj","","n01syvnxlj","""2024-11-12T18:18:03.720Z""","992","materials/imgs/D11.png","arrowright","","[""materials/imgs/D74.png"",""materials/imgs/D103.png""]","false","random","","",""
"","","","","","html-keyboard-response","427","660688","0.0-19.0-0.4-0.34","n01syvnxlj","","n01syvnxlj","""2024-11-12T18:18:03.720Z""","null","+","null","","","","","","",""
"","","","","","image-keyboard-response","428","661606","0.0-19.0-0.4-1.34","n01syvnxlj","","n01syvnxlj","""2024-11-12T18:18:03.720Z""","917","materials/imgs/D105.png","arrowright","","[""materials/imgs/D20.png"",""materials/imgs/D14.png""]","false","random","","",""
"","","","","","html-keyboard-response","429","662107","0.0-19.0-1.4-0.4","n01syvnxlj","","n01syvnxlj","""2024-11-12T18:18:03.720Z""","null","+","null","","","","","","",""
"","","","","","image-keyboard-response","430","662625","0.0-19.0-1.4-1.4","n01syvnxlj","","n01syvnxlj","""2024-11-12T18:18:03.720Z""","515","materials/imgs/D8.png","arrowright","","[""materials/imgs/D18.png"",""materials/imgs/D8.png""]","","check","materials/imgs/D8.png","1","true"
"","","","","","html-keyboard-response","431","663127","0.0-19.0-2.4-0.8","n01syvnxlj","","n01syvnxlj","""2024-11-12T18:18:03.720Z""","null","+","null","","","","","","",""
"","","","","","image-keyboard-response","432","664896","0.0-19.0-2.4-1.8","n01syvnxlj","","n01syvnxlj","""2024-11-12T18:18:03.720Z""","1767","materials/imgs/D111.png","arrowleft","","[""materials/imgs/D82.png"",""materials/imgs/D95.png""]","false","validation","","",""
"","","","","","html-keyboard-response","433","665399","0.0-19.0-2.4-0.9","n01syvnxlj","","n01syvnxlj","""2024-11-12T18:18:03.720Z""","null","+","null","","","","","","",""
"","","","","","image-keyboard-response","434","666877","0.0-19.0-2.4-1.9","n01syvnxlj","","n01syvnxlj","""2024-11-12T18:18:03.720Z""","1476","materials/imgs/D46.png","arrowleft","","[""materials/imgs/D92.png"",""materials/imgs/D77.png""]","false","validation","","",""
