"success","timeout","failed_images","failed_audio","failed_video","trial_type","trial_index","time_elapsed","internal_node_id","subject_id","sona_id","subjectID","dateInfo","rt","stimulus","response","question_order","choices","speedy","sampleAlg","selected_image","selected_index","correct"
"true","false","[]","[]","[]","preload","0","45","0.0-0.0","n2e9lrvhzh","","n2e9lrvhzh","""2024-11-12T20:36:03.926Z""","","","","","","","","","",""
"true","","","","","fullscreen","1","2422","0.0-1.0","n2e9lrvhzh","","n2e9lrvhzh","""2024-11-12T20:36:03.926Z""","","","","","","","","","",""
"","","","","","html-keyboard-response","2","2434","0.0-2.0","n2e9lrvhzh","","n2e9lrvhzh","""2024-11-12T20:36:03.926Z""","null","","null","","","","","","",""
"","","","","","html-button-response","3","8318","0.0-3.0","n2e9lrvhzh","","n2e9lrvhzh","""2024-11-12T20:36:03.926Z""","5882","<div style='text-align:center; font-size:20px; line-height:25px; width: 1200px;'>
                Welcome to our experiment! <br>
                <br>At the bottom of this screen, you will see a button that says 'Begin Experiment.
                <br>Please only click that button when you are ready to complete the 25 minute experiment in one sitting. <br>
                <br> Once you click that button, it will not be possible to restart the experiment. <br><br>","0","","","","","","",""
"true","","","","","fullscreen","4","11480","0.0-4.0","n2e9lrvhzh","","n2e9lrvhzh","""2024-11-12T20:36:03.926Z""","","","","","","","","","",""
"","","","","","survey-multi-select","5","34532","0.0-5.0","n2e9lrvhzh","","n2e9lrvhzh","""2024-11-12T20:36:03.926Z""","23048","","{""Consent"":[""<strong>I consent</strong>""]}","[0]","","","","","",""
"","","","","","html-button-response","6","37134","0.0-6.0","n2e9lrvhzh","","n2e9lrvhzh","""2024-11-12T20:36:03.926Z""","2600","Welcome! <p> This experiment involves two parts: demographic information, followed by the experimental task.<p> It will take about 25 minutes to complete both parts.","0","","","","","","",""
"","","","","","survey-text","7","47718","0.0-7.0","n2e9lrvhzh","","n2e9lrvhzh","""2024-11-12T20:36:03.926Z""","10582","","{""Age"":""18"",""Gender"":""male"",""Race/ethnicity"":""indian""}","","","","","","",""
"","","","","","html-button-response","8","67229","0.0-8.0","n2e9lrvhzh","","n2e9lrvhzh","""2024-11-12T20:36:03.926Z""","19509","<div style='text-align: center;'>
      <p>In each trial of this task, you will see three texture images: one target item on top, and two choices beneath the target item.</p>
      <p><strong>Please select the item that is most like the target item.</strong></p>
      <p>To select the option on the <strong>LEFT</strong>, press the <strong>LEFT ARROW</strong> key. 
      To select the option on the <strong>RIGHT</strong>, press the <strong>RIGHT ARROW</strong> key.</p>
                  <!-- Target Image at the Top -->
      <div style='margin: 20px;'>
        <img src='materials/imgs/instruction_images/InstructionImg1D78.png' alt='Target Image' style='width:200px; height:auto;' />
        <p><em>Target Image</em></p>
      </div>

      <!-- Two Choice Images Below -->
      <div style='display: flex; justify-content: center;'>
        <div style='margin-right: 50px;'>
          <img src='materials/imgs/instruction_images/InstructionImg2D34.png' alt='Choice Image 1' style='width:150px; height:auto;' />
          <p><em><strong>LEFT ARROW</strong></em></p>
        </div>
        <div style='margin-left: 50px;'>
          <img src='materials/imgs/instruction_images/InstructionImg3D80.png' alt='Choice Image 2' style='width:150px; height:auto;' />
          <p><em><strong>RIGHT ARROW</strong></em></p>
        </div>
      </div>
    </div>

      <p>When you are ready to proceed, please click 'Continue' to begin practice.</p>","0","","","","","","",""
"","","","","","html-keyboard-response","9","69733","0.0-9.0","n2e9lrvhzh","","n2e9lrvhzh","""2024-11-12T20:36:03.926Z""","null","+","null","","","","","","",""
"","","","","","html-keyboard-response","10","70235","0.0-10.0-0.0-0.0","n2e9lrvhzh","","n2e9lrvhzh","""2024-11-12T20:36:03.926Z""","null","+","null","","","","","","",""
"","","","","","image-keyboard-response","11","72579","0.0-10.0-0.0-1.0","n2e9lrvhzh","","n2e9lrvhzh","""2024-11-12T20:36:03.926Z""","2337","materials/imgs/D8.png","arrowleft","","[""materials/imgs/D37.png"",""materials/imgs/D26.png""]","false","random","","",""
"","","","","","html-keyboard-response","12","73081","0.0-10.0-0.0-0.1","n2e9lrvhzh","","n2e9lrvhzh","""2024-11-12T20:36:03.926Z""","null","+","null","","","","","","",""
"","","","","","image-keyboard-response","13","74281","0.0-10.0-0.0-1.1","n2e9lrvhzh","","n2e9lrvhzh","""2024-11-12T20:36:03.926Z""","1197","materials/imgs/D79.png","arrowleft","","[""materials/imgs/D105.png"",""materials/imgs/D37.png""]","false","random","","",""
"","","","","","html-keyboard-response","14","74781","0.0-10.0-0.0-0.2","n2e9lrvhzh","","n2e9lrvhzh","""2024-11-12T20:36:03.926Z""","null","+","null","","","","","","",""
"","","","","","image-keyboard-response","15","75938","0.0-10.0-0.0-1.2","n2e9lrvhzh","","n2e9lrvhzh","""2024-11-12T20:36:03.926Z""","1154","materials/imgs/D57.png","arrowleft","","[""materials/imgs/D9.png"",""materials/imgs/D3.png""]","false","random","","",""
"","","","","","html-keyboard-response","16","76440","0.0-10.0-0.0-0.3","n2e9lrvhzh","","n2e9lrvhzh","""2024-11-12T20:36:03.926Z""","null","+","null","","","","","","",""
"","","","","","image-keyboard-response","17","77744","0.0-10.0-0.0-1.3","n2e9lrvhzh","","n2e9lrvhzh","""2024-11-12T20:36:03.926Z""","1302","materials/imgs/D87.png","arrowright","","[""materials/imgs/D3.png"",""materials/imgs/D32.png""]","false","random","","",""
"","","","","","html-keyboard-response","18","78245","0.0-10.0-0.0-0.4","n2e9lrvhzh","","n2e9lrvhzh","""2024-11-12T20:36:03.926Z""","null","+","null","","","","","","",""
"","","","","","image-keyboard-response","19","79380","0.0-10.0-0.0-1.4","n2e9lrvhzh","","n2e9lrvhzh","""2024-11-12T20:36:03.926Z""","1133","materials/imgs/D11.png","arrowleft","","[""materials/imgs/D84.png"",""materials/imgs/D37.png""]","false","random","","",""
"","","","","","html-keyboard-response","20","79882","0.0-10.0-0.0-0.5","n2e9lrvhzh","","n2e9lrvhzh","""2024-11-12T20:36:03.926Z""","null","+","null","","","","","","",""
"","","","","","image-keyboard-response","21","81259","0.0-10.0-0.0-1.5","n2e9lrvhzh","","n2e9lrvhzh","""2024-11-12T20:36:03.926Z""","1375","materials/imgs/D37.png","arrowright","","[""materials/imgs/D6.png"",""materials/imgs/D49.png""]","false","random","","",""
"","","","","","html-keyboard-response","22","81761","0.0-10.0-0.0-0.6","n2e9lrvhzh","","n2e9lrvhzh","""2024-11-12T20:36:03.926Z""","null","+","null","","","","","","",""
"","","","","","image-keyboard-response","23","83310","0.0-10.0-0.0-1.6","n2e9lrvhzh","","n2e9lrvhzh","""2024-11-12T20:36:03.926Z""","1547","materials/imgs/D87.png","arrowright","","[""materials/imgs/D101.png"",""materials/imgs/D22.png""]","false","random","","",""
"","","","","","html-keyboard-response","24","83811","0.0-10.0-0.0-0.7","n2e9lrvhzh","","n2e9lrvhzh","""2024-11-12T20:36:03.926Z""","null","+","null","","","","","","",""
"","","","","","image-keyboard-response","25","85396","0.0-10.0-0.0-1.7","n2e9lrvhzh","","n2e9lrvhzh","""2024-11-12T20:36:03.926Z""","1582","materials/imgs/D32.png","arrowright","","[""materials/imgs/D49.png"",""materials/imgs/D35.png""]","false","random","","",""
"","","","","","html-keyboard-response","26","85897","0.0-10.0-0.0-0.8","n2e9lrvhzh","","n2e9lrvhzh","""2024-11-12T20:36:03.926Z""","null","+","null","","","","","","",""
"","","","","","image-keyboard-response","27","87861","0.0-10.0-0.0-1.8","n2e9lrvhzh","","n2e9lrvhzh","""2024-11-12T20:36:03.926Z""","1962","materials/imgs/D34.png","arrowright","","[""materials/imgs/D51.png"",""materials/imgs/D85.png""]","false","random","","",""
"","","","","","html-keyboard-response","28","88363","0.0-10.0-0.0-0.9","n2e9lrvhzh","","n2e9lrvhzh","""2024-11-12T20:36:03.926Z""","null","+","null","","","","","","",""
"","","","","","image-keyboard-response","29","91699","0.0-10.0-0.0-1.9","n2e9lrvhzh","","n2e9lrvhzh","""2024-11-12T20:36:03.926Z""","3334","materials/imgs/D6.png","arrowright","","[""materials/imgs/D20.png"",""materials/imgs/D82.png""]","false","random","","",""
"","","","","","html-button-response","30","97382","0.0-11.0","n2e9lrvhzh","","n2e9lrvhzh","""2024-11-12T20:36:03.926Z""","5681","<p>Great job!</p>
      <p>You are now ready to begin the experiment.</p>
      <p>There will be around 200 trials. You will have opportunities to take breaks at three stages of the trials.</p>
      <p>When you are ready to begin please click 'Continue'.</p>","0","","","","","","",""
"","","","","","html-keyboard-response","31","99886","0.0-12.0","n2e9lrvhzh","","n2e9lrvhzh","""2024-11-12T20:36:03.926Z""","null","+","null","","","","","","",""
"","","","","","html-keyboard-response","32","100388","0.0-13.0-0.0-0.0","n2e9lrvhzh","","n2e9lrvhzh","""2024-11-12T20:36:03.926Z""","null","+","null","","","","","","",""
"","","","","","image-keyboard-response","33","101544","0.0-13.0-0.0-1.0","n2e9lrvhzh","","n2e9lrvhzh","""2024-11-12T20:36:03.926Z""","1152","materials/imgs/D104.png","arrowleft","","[""materials/imgs/D56.png"",""materials/imgs/D85.png""]","false","random","","",""
"","","","","","html-keyboard-response","34","102048","0.0-13.0-0.0-0.1","n2e9lrvhzh","","n2e9lrvhzh","""2024-11-12T20:36:03.926Z""","null","+","null","","","","","","",""
"","","","","","image-keyboard-response","35","103186","0.0-13.0-0.0-1.1","n2e9lrvhzh","","n2e9lrvhzh","""2024-11-12T20:36:03.926Z""","1135","materials/imgs/D79.png","arrowright","","[""materials/imgs/D37.png"",""materials/imgs/D18.png""]","false","random","","",""
"","","","","","html-keyboard-response","36","103687","0.0-13.0-0.0-0.2","n2e9lrvhzh","","n2e9lrvhzh","""2024-11-12T20:36:03.926Z""","null","+","null","","","","","","",""
"","","","","","image-keyboard-response","37","104810","0.0-13.0-0.0-1.2","n2e9lrvhzh","","n2e9lrvhzh","""2024-11-12T20:36:03.926Z""","1121","materials/imgs/D111.png","arrowright","","[""materials/imgs/D29.png"",""materials/imgs/D8.png""]","false","random","","",""
"","","","","","html-keyboard-response","38","105311","0.0-13.0-0.0-0.3","n2e9lrvhzh","","n2e9lrvhzh","""2024-11-12T20:36:03.926Z""","null","+","null","","","","","","",""
"","","","","","image-keyboard-response","39","106514","0.0-13.0-0.0-1.3","n2e9lrvhzh","","n2e9lrvhzh","""2024-11-12T20:36:03.926Z""","1201","materials/imgs/D81.png","arrowleft","","[""materials/imgs/D1.png"",""materials/imgs/D87.png""]","false","random","","",""
"","","","","","html-keyboard-response","40","107016","0.0-13.0-0.0-0.4","n2e9lrvhzh","","n2e9lrvhzh","""2024-11-12T20:36:03.926Z""","null","+","null","","","","","","",""
"","","","","","image-keyboard-response","41","107943","0.0-13.0-0.0-1.4","n2e9lrvhzh","","n2e9lrvhzh","""2024-11-12T20:36:03.926Z""","925","materials/imgs/D37.png","arrowright","","[""materials/imgs/D11.png"",""materials/imgs/D24.png""]","false","random","","",""
"","","","","","html-keyboard-response","42","108445","0.0-13.0-0.0-0.5","n2e9lrvhzh","","n2e9lrvhzh","""2024-11-12T20:36:03.926Z""","null","+","null","","","","","","",""
"","","","","","image-keyboard-response","43","109404","0.0-13.0-0.0-1.5","n2e9lrvhzh","","n2e9lrvhzh","""2024-11-12T20:36:03.926Z""","957","materials/imgs/D82.png","arrowright","","[""materials/imgs/D25.png"",""materials/imgs/D47.png""]","false","random","","",""
"","","","","","html-keyboard-response","44","109904","0.0-13.0-0.0-0.6","n2e9lrvhzh","","n2e9lrvhzh","""2024-11-12T20:36:03.926Z""","null","+","null","","","","","","",""
"","","","","","image-keyboard-response","45","111265","0.0-13.0-0.0-1.6","n2e9lrvhzh","","n2e9lrvhzh","""2024-11-12T20:36:03.926Z""","1358","materials/imgs/D1.png","arrowleft","","[""materials/imgs/D3.png"",""materials/imgs/D32.png""]","false","random","","",""
"","","","","","html-keyboard-response","46","111766","0.0-13.0-1.0-0.0","n2e9lrvhzh","","n2e9lrvhzh","""2024-11-12T20:36:03.926Z""","null","+","null","","","","","","",""
"","","","","","image-keyboard-response","47","112520","0.0-13.0-1.0-1.0","n2e9lrvhzh","","n2e9lrvhzh","""2024-11-12T20:36:03.926Z""","752","materials/imgs/D64.png","arrowleft","","[""materials/imgs/D64.png"",""materials/imgs/D53.png""]","","check","materials/imgs/D64.png","0","true"
"","","","","","html-keyboard-response","48","113022","0.0-13.0-2.0-0.0","n2e9lrvhzh","","n2e9lrvhzh","""2024-11-12T20:36:03.926Z""","null","+","null","","","","","","",""
"","","","","","image-keyboard-response","49","114317","0.0-13.0-2.0-1.0","n2e9lrvhzh","","n2e9lrvhzh","""2024-11-12T20:36:03.926Z""","1294","materials/imgs/D32.png","arrowleft","","[""materials/imgs/D68.png"",""materials/imgs/D96.png""]","false","validation","","",""
"","","","","","html-keyboard-response","50","114819","0.0-13.0-2.0-0.1","n2e9lrvhzh","","n2e9lrvhzh","""2024-11-12T20:36:03.926Z""","null","+","null","","","","","","",""
"","","","","","image-keyboard-response","51","116306","0.0-13.0-2.0-1.1","n2e9lrvhzh","","n2e9lrvhzh","""2024-11-12T20:36:03.926Z""","1485","materials/imgs/D26.png","arrowright","","[""materials/imgs/D36.png"",""materials/imgs/D92.png""]","false","validation","","",""
"","","","","","html-keyboard-response","52","116810","0.0-13.0-0.1-0.7","n2e9lrvhzh","","n2e9lrvhzh","""2024-11-12T20:36:03.926Z""","null","+","null","","","","","","",""
"","","","","","image-keyboard-response","53","118215","0.0-13.0-0.1-1.7","n2e9lrvhzh","","n2e9lrvhzh","""2024-11-12T20:36:03.926Z""","1403","materials/imgs/D76.png","arrowright","","[""materials/imgs/D111.png"",""materials/imgs/D20.png""]","false","random","","",""
"","","","","","html-keyboard-response","54","118716","0.0-13.0-0.1-0.8","n2e9lrvhzh","","n2e9lrvhzh","""2024-11-12T20:36:03.926Z""","null","+","null","","","","","","",""
"","","","","","image-keyboard-response","55","119852","0.0-13.0-0.1-1.8","n2e9lrvhzh","","n2e9lrvhzh","""2024-11-12T20:36:03.926Z""","1134","materials/imgs/D37.png","arrowright","","[""materials/imgs/D11.png"",""materials/imgs/D65.png""]","false","random","","",""
"","","","","","html-keyboard-response","56","120353","0.0-13.0-0.1-0.9","n2e9lrvhzh","","n2e9lrvhzh","""2024-11-12T20:36:03.926Z""","null","+","null","","","","","","",""
"","","","","","image-keyboard-response","57","121239","0.0-13.0-0.1-1.9","n2e9lrvhzh","","n2e9lrvhzh","""2024-11-12T20:36:03.926Z""","883","materials/imgs/D84.png","arrowleft","","[""materials/imgs/D57.png"",""materials/imgs/D6.png""]","false","random","","",""
"","","","","","html-keyboard-response","58","121741","0.0-13.0-0.1-0.10","n2e9lrvhzh","","n2e9lrvhzh","""2024-11-12T20:36:03.926Z""","null","+","null","","","","","","",""
"","","","","","image-keyboard-response","59","122649","0.0-13.0-0.1-1.10","n2e9lrvhzh","","n2e9lrvhzh","""2024-11-12T20:36:03.926Z""","906","materials/imgs/D32.png","arrowright","","[""materials/imgs/D56.png"",""materials/imgs/D34.png""]","false","random","","",""
"","","","","","html-keyboard-response","60","123151","0.0-13.0-0.1-0.11","n2e9lrvhzh","","n2e9lrvhzh","""2024-11-12T20:36:03.926Z""","null","+","null","","","","","","",""
"","","","","","image-keyboard-response","61","124327","0.0-13.0-0.1-1.11","n2e9lrvhzh","","n2e9lrvhzh","""2024-11-12T20:36:03.926Z""","1174","materials/imgs/D104.png","arrowleft","","[""materials/imgs/D6.png"",""materials/imgs/D14.png""]","false","random","","",""
"","","","","","html-keyboard-response","62","124829","0.0-13.0-0.1-0.12","n2e9lrvhzh","","n2e9lrvhzh","""2024-11-12T20:36:03.926Z""","null","+","null","","","","","","",""
"","","","","","image-keyboard-response","63","126715","0.0-13.0-0.1-1.12","n2e9lrvhzh","","n2e9lrvhzh","""2024-11-12T20:36:03.926Z""","1884","materials/imgs/D104.png","arrowleft","","[""materials/imgs/D85.png"",""materials/imgs/D68.png""]","false","random","","",""
"","","","","","html-keyboard-response","64","127217","0.0-13.0-0.1-0.13","n2e9lrvhzh","","n2e9lrvhzh","""2024-11-12T20:36:03.926Z""","null","+","null","","","","","","",""
"","","","","","image-keyboard-response","65","129767","0.0-13.0-0.1-1.13","n2e9lrvhzh","","n2e9lrvhzh","""2024-11-12T20:36:03.926Z""","2548","materials/imgs/D68.png","arrowright","","[""materials/imgs/D111.png"",""materials/imgs/D77.png""]","false","random","","",""
"","","","","","html-keyboard-response","66","130269","0.0-13.0-1.1-0.1","n2e9lrvhzh","","n2e9lrvhzh","""2024-11-12T20:36:03.926Z""","null","+","null","","","","","","",""
"","","","","","image-keyboard-response","67","131085","0.0-13.0-1.1-1.1","n2e9lrvhzh","","n2e9lrvhzh","""2024-11-12T20:36:03.926Z""","814","materials/imgs/D101.png","arrowright","","[""materials/imgs/D106.png"",""materials/imgs/D101.png""]","","check","materials/imgs/D101.png","1","true"
"","","","","","html-keyboard-response","68","131586","0.0-13.0-2.1-0.2","n2e9lrvhzh","","n2e9lrvhzh","""2024-11-12T20:36:03.926Z""","null","+","null","","","","","","",""
"","","","","","image-keyboard-response","69","134035","0.0-13.0-2.1-1.2","n2e9lrvhzh","","n2e9lrvhzh","""2024-11-12T20:36:03.926Z""","2448","materials/imgs/D101.png","arrowright","","[""materials/imgs/D76.png"",""materials/imgs/D47.png""]","false","validation","","",""
"","","","","","html-keyboard-response","70","134537","0.0-13.0-2.1-0.3","n2e9lrvhzh","","n2e9lrvhzh","""2024-11-12T20:36:03.926Z""","null","+","null","","","","","","",""
"","","","","","image-keyboard-response","71","136015","0.0-13.0-2.1-1.3","n2e9lrvhzh","","n2e9lrvhzh","""2024-11-12T20:36:03.926Z""","1477","materials/imgs/D1.png","arrowleft","","[""materials/imgs/D57.png"",""materials/imgs/D76.png""]","false","validation","","",""
"","","","","","html-keyboard-response","72","136516","0.0-13.0-0.2-0.14","n2e9lrvhzh","","n2e9lrvhzh","""2024-11-12T20:36:03.926Z""","null","+","null","","","","","","",""
"","","","","","image-keyboard-response","73","137653","0.0-13.0-0.2-1.14","n2e9lrvhzh","","n2e9lrvhzh","""2024-11-12T20:36:03.926Z""","1134","materials/imgs/D105.png","arrowright","","[""materials/imgs/D24.png"",""materials/imgs/D81.png""]","false","random","","",""
"","","","","","html-keyboard-response","74","138154","0.0-13.0-0.2-0.15","n2e9lrvhzh","","n2e9lrvhzh","""2024-11-12T20:36:03.926Z""","null","+","null","","","","","","",""
"","","","","","image-keyboard-response","75","138988","0.0-13.0-0.2-1.15","n2e9lrvhzh","","n2e9lrvhzh","""2024-11-12T20:36:03.926Z""","833","materials/imgs/D4.png","arrowright","","[""materials/imgs/D8.png"",""materials/imgs/D84.png""]","false","random","","",""
"","","","","","html-keyboard-response","76","139490","0.0-13.0-0.2-0.16","n2e9lrvhzh","","n2e9lrvhzh","""2024-11-12T20:36:03.926Z""","null","+","null","","","","","","",""
"","","","","","image-keyboard-response","77","140663","0.0-13.0-0.2-1.16","n2e9lrvhzh","","n2e9lrvhzh","""2024-11-12T20:36:03.926Z""","1172","materials/imgs/D64.png","arrowright","","[""materials/imgs/D21.png"",""materials/imgs/D53.png""]","false","random","","",""
"","","","","","html-keyboard-response","78","141164","0.0-13.0-0.2-0.17","n2e9lrvhzh","","n2e9lrvhzh","""2024-11-12T20:36:03.926Z""","null","+","null","","","","","","",""
"","","","","","image-keyboard-response","79","142602","0.0-13.0-0.2-1.17","n2e9lrvhzh","","n2e9lrvhzh","""2024-11-12T20:36:03.926Z""","1436","materials/imgs/D52.png","arrowright","","[""materials/imgs/D51.png"",""materials/imgs/D37.png""]","false","random","","",""
"","","","","","html-keyboard-response","80","143103","0.0-13.0-0.2-0.18","n2e9lrvhzh","","n2e9lrvhzh","""2024-11-12T20:36:03.926Z""","null","+","null","","","","","","",""
"","","","","","image-keyboard-response","81","145873","0.0-13.0-0.2-1.18","n2e9lrvhzh","","n2e9lrvhzh","""2024-11-12T20:36:03.926Z""","2767","materials/imgs/D64.png","arrowright","","[""materials/imgs/D66.png"",""materials/imgs/D19.png""]","false","random","","",""
"","","","","","html-keyboard-response","82","146374","0.0-13.0-0.2-0.19","n2e9lrvhzh","","n2e9lrvhzh","""2024-11-12T20:36:03.926Z""","null","+","null","","","","","","",""
"","","","","","image-keyboard-response","83","147278","0.0-13.0-0.2-1.19","n2e9lrvhzh","","n2e9lrvhzh","""2024-11-12T20:36:03.926Z""","902","materials/imgs/D55.png","arrowleft","","[""materials/imgs/D29.png"",""materials/imgs/D66.png""]","false","random","","",""
"","","","","","html-keyboard-response","84","147780","0.0-13.0-0.2-0.20","n2e9lrvhzh","","n2e9lrvhzh","""2024-11-12T20:36:03.926Z""","null","+","null","","","","","","",""
"","","","","","image-keyboard-response","85","148451","0.0-13.0-0.2-1.20","n2e9lrvhzh","","n2e9lrvhzh","""2024-11-12T20:36:03.926Z""","669","materials/imgs/D11.png","arrowright","","[""materials/imgs/D104.png"",""materials/imgs/D85.png""]","false","random","","",""
"","","","","","html-keyboard-response","86","148953","0.0-13.0-1.2-0.2","n2e9lrvhzh","","n2e9lrvhzh","""2024-11-12T20:36:03.926Z""","null","+","null","","","","","","",""
"","","","","","image-keyboard-response","87","149683","0.0-13.0-1.2-1.2","n2e9lrvhzh","","n2e9lrvhzh","""2024-11-12T20:36:03.926Z""","728","materials/imgs/D78.png","arrowright","","[""materials/imgs/D76.png"",""materials/imgs/D78.png""]","","check","materials/imgs/D78.png","1","true"
"","","","","","html-keyboard-response","88","150185","0.0-13.0-2.2-0.4","n2e9lrvhzh","","n2e9lrvhzh","""2024-11-12T20:36:03.926Z""","null","+","null","","","","","","",""
"","","","","","image-keyboard-response","89","150986","0.0-13.0-2.2-1.4","n2e9lrvhzh","","n2e9lrvhzh","""2024-11-12T20:36:03.926Z""","800","materials/imgs/D66.png","arrowleft","","[""materials/imgs/D85.png"",""materials/imgs/D25.png""]","false","validation","","",""
"","","","","","html-keyboard-response","90","151488","0.0-13.0-2.2-0.5","n2e9lrvhzh","","n2e9lrvhzh","""2024-11-12T20:36:03.926Z""","null","+","null","","","","","","",""
"","","","","","image-keyboard-response","91","153245","0.0-13.0-2.2-1.5","n2e9lrvhzh","","n2e9lrvhzh","""2024-11-12T20:36:03.926Z""","1756","materials/imgs/D46.png","arrowleft","","[""materials/imgs/D92.png"",""materials/imgs/D77.png""]","false","validation","","",""
"","","","","","html-keyboard-response","92","153746","0.0-13.0-0.3-0.21","n2e9lrvhzh","","n2e9lrvhzh","""2024-11-12T20:36:03.926Z""","null","+","null","","","","","","",""
"","","","","","image-keyboard-response","93","154833","0.0-13.0-0.3-1.21","n2e9lrvhzh","","n2e9lrvhzh","""2024-11-12T20:36:03.926Z""","1085","materials/imgs/D26.png","arrowright","","[""materials/imgs/D36.png"",""materials/imgs/D52.png""]","false","random","","",""
"","","","","","html-keyboard-response","94","155335","0.0-13.0-0.3-0.22","n2e9lrvhzh","","n2e9lrvhzh","""2024-11-12T20:36:03.926Z""","null","+","null","","","","","","",""
"","","","","","image-keyboard-response","95","156148","0.0-13.0-0.3-1.22","n2e9lrvhzh","","n2e9lrvhzh","""2024-11-12T20:36:03.926Z""","811","materials/imgs/D80.png","arrowright","","[""materials/imgs/D32.png"",""materials/imgs/D22.png""]","false","random","","",""
"","","","","","html-keyboard-response","96","156650","0.0-13.0-0.3-0.23","n2e9lrvhzh","","n2e9lrvhzh","""2024-11-12T20:36:03.926Z""","null","+","null","","","","","","",""
"","","","","","image-keyboard-response","97","157308","0.0-13.0-0.3-1.23","n2e9lrvhzh","","n2e9lrvhzh","""2024-11-12T20:36:03.926Z""","655","materials/imgs/D75.png","arrowleft","","[""materials/imgs/D111.png"",""materials/imgs/D104.png""]","false","random","","",""
"","","","","","html-keyboard-response","98","157809","0.0-13.0-0.3-0.24","n2e9lrvhzh","","n2e9lrvhzh","""2024-11-12T20:36:03.926Z""","null","+","null","","","","","","",""
"","","","","","image-keyboard-response","99","159246","0.0-13.0-0.3-1.24","n2e9lrvhzh","","n2e9lrvhzh","""2024-11-12T20:36:03.926Z""","1435","materials/imgs/D6.png","arrowright","","[""materials/imgs/D75.png"",""materials/imgs/D111.png""]","false","random","","",""
"","","","","","html-keyboard-response","100","159747","0.0-13.0-0.3-0.25","n2e9lrvhzh","","n2e9lrvhzh","""2024-11-12T20:36:03.926Z""","null","+","null","","","","","","",""
"","","","","","image-keyboard-response","101","160577","0.0-13.0-0.3-1.25","n2e9lrvhzh","","n2e9lrvhzh","""2024-11-12T20:36:03.926Z""","829","materials/imgs/D79.png","arrowleft","","[""materials/imgs/D22.png"",""materials/imgs/D26.png""]","false","random","","",""
"","","","","","html-keyboard-response","102","161079","0.0-13.0-0.3-0.26","n2e9lrvhzh","","n2e9lrvhzh","""2024-11-12T20:36:03.926Z""","null","+","null","","","","","","",""
"","","","","","image-keyboard-response","103","162413","0.0-13.0-0.3-1.26","n2e9lrvhzh","","n2e9lrvhzh","""2024-11-12T20:36:03.926Z""","1334","materials/imgs/D47.png","arrowleft","","[""materials/imgs/D6.png"",""materials/imgs/D35.png""]","false","random","","",""
"","","","","","html-keyboard-response","104","162914","0.0-13.0-0.3-0.27","n2e9lrvhzh","","n2e9lrvhzh","""2024-11-12T20:36:03.926Z""","null","+","null","","","","","","",""
"","","","","","image-keyboard-response","105","164096","0.0-13.0-0.3-1.27","n2e9lrvhzh","","n2e9lrvhzh","""2024-11-12T20:36:03.926Z""","1179","materials/imgs/D34.png","arrowleft","","[""materials/imgs/D20.png"",""materials/imgs/D57.png""]","false","random","","",""
"","","","","","html-keyboard-response","106","164598","0.0-13.0-1.3-0.3","n2e9lrvhzh","","n2e9lrvhzh","""2024-11-12T20:36:03.926Z""","null","+","null","","","","","","",""
"","","","","","image-keyboard-response","107","165457","0.0-13.0-1.3-1.3","n2e9lrvhzh","","n2e9lrvhzh","""2024-11-12T20:36:03.926Z""","857","materials/imgs/D8.png","arrowright","","[""materials/imgs/D18.png"",""materials/imgs/D8.png""]","","check","materials/imgs/D8.png","1","true"
"","","","","","html-keyboard-response","108","165959","0.0-13.0-2.3-0.6","n2e9lrvhzh","","n2e9lrvhzh","""2024-11-12T20:36:03.926Z""","null","+","null","","","","","","",""
"","","","","","image-keyboard-response","109","167927","0.0-13.0-2.3-1.6","n2e9lrvhzh","","n2e9lrvhzh","""2024-11-12T20:36:03.926Z""","1967","materials/imgs/D77.png","arrowright","","[""materials/imgs/D102.png"",""materials/imgs/D65.png""]","false","validation","","",""
"","","","","","html-keyboard-response","110","168428","0.0-13.0-2.3-0.7","n2e9lrvhzh","","n2e9lrvhzh","""2024-11-12T20:36:03.926Z""","null","+","null","","","","","","",""
"","","","","","image-keyboard-response","111","171122","0.0-13.0-2.3-1.7","n2e9lrvhzh","","n2e9lrvhzh","""2024-11-12T20:36:03.926Z""","2692","materials/imgs/D81.png","arrowright","","[""materials/imgs/D105.png"",""materials/imgs/D24.png""]","false","validation","","",""
"","","","","","html-keyboard-response","112","171623","0.0-13.0-0.4-0.28","n2e9lrvhzh","","n2e9lrvhzh","""2024-11-12T20:36:03.926Z""","null","+","null","","","","","","",""
"","","","","","image-keyboard-response","113","172695","0.0-13.0-0.4-1.28","n2e9lrvhzh","","n2e9lrvhzh","""2024-11-12T20:36:03.926Z""","1070","materials/imgs/D6.png","arrowleft","","[""materials/imgs/D79.png"",""materials/imgs/D51.png""]","false","random","","",""
"","","","","","html-keyboard-response","114","173196","0.0-13.0-0.4-0.29","n2e9lrvhzh","","n2e9lrvhzh","""2024-11-12T20:36:03.926Z""","null","+","null","","","","","","",""
"","","","","","image-keyboard-response","115","176346","0.0-13.0-0.4-1.29","n2e9lrvhzh","","n2e9lrvhzh","""2024-11-12T20:36:03.926Z""","3148","materials/imgs/D20.png","arrowright","","[""materials/imgs/D29.png"",""materials/imgs/D102.png""]","false","random","","",""
"","","","","","html-keyboard-response","116","176847","0.0-13.0-0.4-0.30","n2e9lrvhzh","","n2e9lrvhzh","""2024-11-12T20:36:03.926Z""","null","+","null","","","","","","",""
"","","","","","image-keyboard-response","117","178001","0.0-13.0-0.4-1.30","n2e9lrvhzh","","n2e9lrvhzh","""2024-11-12T20:36:03.926Z""","1151","materials/imgs/D56.png","arrowright","","[""materials/imgs/D6.png"",""materials/imgs/D32.png""]","false","random","","",""
"","","","","","html-keyboard-response","118","178502","0.0-13.0-0.4-0.31","n2e9lrvhzh","","n2e9lrvhzh","""2024-11-12T20:36:03.926Z""","null","+","null","","","","","","",""
"","","","","","image-keyboard-response","119","179476","0.0-13.0-0.4-1.31","n2e9lrvhzh","","n2e9lrvhzh","""2024-11-12T20:36:03.926Z""","972","materials/imgs/D87.png","arrowright","","[""materials/imgs/D51.png"",""materials/imgs/D36.png""]","false","random","","",""
"","","","","","html-keyboard-response","120","179978","0.0-13.0-0.4-0.32","n2e9lrvhzh","","n2e9lrvhzh","""2024-11-12T20:36:03.926Z""","null","+","null","","","","","","",""
"","","","","","image-keyboard-response","121","181024","0.0-13.0-0.4-1.32","n2e9lrvhzh","","n2e9lrvhzh","""2024-11-12T20:36:03.926Z""","1044","materials/imgs/D76.png","arrowright","","[""materials/imgs/D65.png"",""materials/imgs/D106.png""]","false","random","","",""
"","","","","","html-keyboard-response","122","181526","0.0-13.0-0.4-0.33","n2e9lrvhzh","","n2e9lrvhzh","""2024-11-12T20:36:03.926Z""","null","+","null","","","","","","",""
"","","","","","image-keyboard-response","123","182759","0.0-13.0-0.4-1.33","n2e9lrvhzh","","n2e9lrvhzh","""2024-11-12T20:36:03.926Z""","1231","materials/imgs/D103.png","arrowleft","","[""materials/imgs/D87.png"",""materials/imgs/D46.png""]","false","random","","",""
"","","","","","html-keyboard-response","124","183261","0.0-13.0-0.4-0.34","n2e9lrvhzh","","n2e9lrvhzh","""2024-11-12T20:36:03.926Z""","null","+","null","","","","","","",""
"","","","","","image-keyboard-response","125","184337","0.0-13.0-0.4-1.34","n2e9lrvhzh","","n2e9lrvhzh","""2024-11-12T20:36:03.926Z""","1074","materials/imgs/D14.png","arrowleft","","[""materials/imgs/D77.png"",""materials/imgs/D22.png""]","false","random","","",""
"","","","","","html-keyboard-response","126","184837","0.0-13.0-1.4-0.4","n2e9lrvhzh","","n2e9lrvhzh","""2024-11-12T20:36:03.926Z""","null","+","null","","","","","","",""
"","","","","","image-keyboard-response","127","185581","0.0-13.0-1.4-1.4","n2e9lrvhzh","","n2e9lrvhzh","""2024-11-12T20:36:03.926Z""","741","materials/imgs/D8.png","arrowright","","[""materials/imgs/D18.png"",""materials/imgs/D8.png""]","","check","materials/imgs/D8.png","1","true"
"","","","","","html-keyboard-response","128","186082","0.0-13.0-2.4-0.8","n2e9lrvhzh","","n2e9lrvhzh","""2024-11-12T20:36:03.926Z""","null","+","null","","","","","","",""
"","","","","","image-keyboard-response","129","189513","0.0-13.0-2.4-1.8","n2e9lrvhzh","","n2e9lrvhzh","""2024-11-12T20:36:03.926Z""","3429","materials/imgs/D64.png","arrowright","","[""materials/imgs/D6.png"",""materials/imgs/D81.png""]","false","validation","","",""
"","","","","","html-keyboard-response","130","190014","0.0-13.0-2.4-0.9","n2e9lrvhzh","","n2e9lrvhzh","""2024-11-12T20:36:03.926Z""","null","+","null","","","","","","",""
"","","","","","image-keyboard-response","131","191552","0.0-13.0-2.4-1.9","n2e9lrvhzh","","n2e9lrvhzh","""2024-11-12T20:36:03.926Z""","1536","materials/imgs/D20.png","arrowright","","[""materials/imgs/D84.png"",""materials/imgs/D85.png""]","false","validation","","",""
"","","","","","html-button-response","132","193848","0.0-14.0","n2e9lrvhzh","","n2e9lrvhzh","""2024-11-12T20:36:03.926Z""","2295","You have completed 25% of the trials. Please click 'Continue' when you are ready proceed.","0","","","","","","",""
"","","","","","html-keyboard-response","133","194350","0.0-15.0-0.0-0.0","n2e9lrvhzh","","n2e9lrvhzh","""2024-11-12T20:36:03.926Z""","null","+","null","","","","","","",""
"","","","","","image-keyboard-response","134","195549","0.0-15.0-0.0-1.0","n2e9lrvhzh","","n2e9lrvhzh","""2024-11-12T20:36:03.926Z""","1197","materials/imgs/D103.png","arrowleft","","[""materials/imgs/D53.png"",""materials/imgs/D22.png""]","false","random","","",""
"","","","","","html-keyboard-response","135","196051","0.0-15.0-0.0-0.1","n2e9lrvhzh","","n2e9lrvhzh","""2024-11-12T20:36:03.926Z""","null","+","null","","","","","","",""
"","","","","","image-keyboard-response","136","196936","0.0-15.0-0.0-1.1","n2e9lrvhzh","","n2e9lrvhzh","""2024-11-12T20:36:03.926Z""","882","materials/imgs/D22.png","arrowright","","[""materials/imgs/D68.png"",""materials/imgs/D111.png""]","false","random","","",""
"","","","","","html-keyboard-response","137","197437","0.0-15.0-0.0-0.2","n2e9lrvhzh","","n2e9lrvhzh","""2024-11-12T20:36:03.926Z""","null","+","null","","","","","","",""
"","","","","","image-keyboard-response","138","199137","0.0-15.0-0.0-1.2","n2e9lrvhzh","","n2e9lrvhzh","""2024-11-12T20:36:03.926Z""","1698","materials/imgs/D66.png","arrowleft","","[""materials/imgs/D3.png"",""materials/imgs/D82.png""]","false","random","","",""
"","","","","","html-keyboard-response","139","199639","0.0-15.0-0.0-0.3","n2e9lrvhzh","","n2e9lrvhzh","""2024-11-12T20:36:03.926Z""","null","+","null","","","","","","",""
"","","","","","image-keyboard-response","140","200776","0.0-15.0-0.0-1.3","n2e9lrvhzh","","n2e9lrvhzh","""2024-11-12T20:36:03.926Z""","1136","materials/imgs/D83.png","arrowleft","","[""materials/imgs/D53.png"",""materials/imgs/D111.png""]","false","random","","",""
"","","","","","html-keyboard-response","141","201278","0.0-15.0-0.0-0.4","n2e9lrvhzh","","n2e9lrvhzh","""2024-11-12T20:36:03.926Z""","null","+","null","","","","","","",""
"","","","","","image-keyboard-response","142","201983","0.0-15.0-0.0-1.4","n2e9lrvhzh","","n2e9lrvhzh","""2024-11-12T20:36:03.926Z""","703","materials/imgs/D4.png","arrowright","","[""materials/imgs/D1.png"",""materials/imgs/D49.png""]","false","random","","",""
"","","","","","html-keyboard-response","143","202484","0.0-15.0-0.0-0.5","n2e9lrvhzh","","n2e9lrvhzh","""2024-11-12T20:36:03.926Z""","null","+","null","","","","","","",""
"","","","","","image-keyboard-response","144","203306","0.0-15.0-0.0-1.5","n2e9lrvhzh","","n2e9lrvhzh","""2024-11-12T20:36:03.926Z""","820","materials/imgs/D82.png","arrowright","","[""materials/imgs/D37.png"",""materials/imgs/D66.png""]","false","random","","",""
"","","","","","html-keyboard-response","145","203808","0.0-15.0-0.0-0.6","n2e9lrvhzh","","n2e9lrvhzh","""2024-11-12T20:36:03.926Z""","null","+","null","","","","","","",""
"","","","","","image-keyboard-response","146","204609","0.0-15.0-0.0-1.6","n2e9lrvhzh","","n2e9lrvhzh","""2024-11-12T20:36:03.926Z""","799","materials/imgs/D17.png","arrowleft","","[""materials/imgs/D14.png"",""materials/imgs/D51.png""]","false","random","","",""
"","","","","","html-keyboard-response","147","205111","0.0-15.0-1.0-0.0","n2e9lrvhzh","","n2e9lrvhzh","""2024-11-12T20:36:03.926Z""","null","+","null","","","","","","",""
"","","","","","image-keyboard-response","148","205724","0.0-15.0-1.0-1.0","n2e9lrvhzh","","n2e9lrvhzh","""2024-11-12T20:36:03.926Z""","612","materials/imgs/D101.png","arrowright","","[""materials/imgs/D106.png"",""materials/imgs/D101.png""]","","check","materials/imgs/D101.png","1","true"
"","","","","","html-keyboard-response","149","206226","0.0-15.0-2.0-0.0","n2e9lrvhzh","","n2e9lrvhzh","""2024-11-12T20:36:03.926Z""","null","+","null","","","","","","",""
"","","","","","image-keyboard-response","150","206898","0.0-15.0-2.0-1.0","n2e9lrvhzh","","n2e9lrvhzh","""2024-11-12T20:36:03.926Z""","670","materials/imgs/D16.png","arrowleft","","[""materials/imgs/D52.png"",""materials/imgs/D25.png""]","false","validation","","",""
"","","","","","html-keyboard-response","151","207399","0.0-15.0-2.0-0.1","n2e9lrvhzh","","n2e9lrvhzh","""2024-11-12T20:36:03.926Z""","null","+","null","","","","","","",""
"","","","","","image-keyboard-response","152","208049","0.0-15.0-2.0-1.1","n2e9lrvhzh","","n2e9lrvhzh","""2024-11-12T20:36:03.926Z""","648","materials/imgs/D82.png","arrowright","","[""materials/imgs/D83.png"",""materials/imgs/D22.png""]","false","validation","","",""
"","","","","","html-keyboard-response","153","208551","0.0-15.0-0.1-0.7","n2e9lrvhzh","","n2e9lrvhzh","""2024-11-12T20:36:03.926Z""","null","+","null","","","","","","",""
"","","","","","image-keyboard-response","154","209720","0.0-15.0-0.1-1.7","n2e9lrvhzh","","n2e9lrvhzh","""2024-11-12T20:36:03.926Z""","1167","materials/imgs/D16.png","arrowleft","","[""materials/imgs/D94.png"",""materials/imgs/D25.png""]","false","random","","",""
"","","","","","html-keyboard-response","155","210222","0.0-15.0-0.1-0.8","n2e9lrvhzh","","n2e9lrvhzh","""2024-11-12T20:36:03.926Z""","null","+","null","","","","","","",""
"","","","","","image-keyboard-response","156","211123","0.0-15.0-0.1-1.8","n2e9lrvhzh","","n2e9lrvhzh","""2024-11-12T20:36:03.926Z""","899","materials/imgs/D92.png","arrowleft","","[""materials/imgs/D111.png"",""materials/imgs/D96.png""]","false","random","","",""
"","","","","","html-keyboard-response","157","211624","0.0-15.0-0.1-0.9","n2e9lrvhzh","","n2e9lrvhzh","""2024-11-12T20:36:03.926Z""","null","+","null","","","","","","",""
"","","","","","image-keyboard-response","158","212861","0.0-15.0-0.1-1.9","n2e9lrvhzh","","n2e9lrvhzh","""2024-11-12T20:36:03.926Z""","1234","materials/imgs/D76.png","arrowleft","","[""materials/imgs/D77.png"",""materials/imgs/D81.png""]","false","random","","",""
"","","","","","html-keyboard-response","159","213362","0.0-15.0-0.1-0.10","n2e9lrvhzh","","n2e9lrvhzh","""2024-11-12T20:36:03.926Z""","null","+","null","","","","","","",""
"","","","","","image-keyboard-response","160","214422","0.0-15.0-0.1-1.10","n2e9lrvhzh","","n2e9lrvhzh","""2024-11-12T20:36:03.926Z""","1058","materials/imgs/D3.png","arrowright","","[""materials/imgs/D106.png"",""materials/imgs/D105.png""]","false","random","","",""
"","","","","","html-keyboard-response","161","214924","0.0-15.0-0.1-0.11","n2e9lrvhzh","","n2e9lrvhzh","""2024-11-12T20:36:03.926Z""","null","+","null","","","","","","",""
"","","","","","image-keyboard-response","162","216179","0.0-15.0-0.1-1.11","n2e9lrvhzh","","n2e9lrvhzh","""2024-11-12T20:36:03.926Z""","1254","materials/imgs/D95.png","arrowleft","","[""materials/imgs/D94.png"",""materials/imgs/D9.png""]","false","random","","",""
"","","","","","html-keyboard-response","163","216680","0.0-15.0-0.1-0.12","n2e9lrvhzh","","n2e9lrvhzh","""2024-11-12T20:36:03.926Z""","null","+","null","","","","","","",""
"","","","","","image-keyboard-response","164","217628","0.0-15.0-0.1-1.12","n2e9lrvhzh","","n2e9lrvhzh","""2024-11-12T20:36:03.926Z""","945","materials/imgs/D92.png","arrowright","","[""materials/imgs/D46.png"",""materials/imgs/D66.png""]","false","random","","",""
"","","","","","html-keyboard-response","165","218129","0.0-15.0-0.1-0.13","n2e9lrvhzh","","n2e9lrvhzh","""2024-11-12T20:36:03.926Z""","null","+","null","","","","","","",""
"","","","","","image-keyboard-response","166","219785","0.0-15.0-0.1-1.13","n2e9lrvhzh","","n2e9lrvhzh","""2024-11-12T20:36:03.926Z""","1655","materials/imgs/D82.png","arrowleft","","[""materials/imgs/D4.png"",""materials/imgs/D29.png""]","false","random","","",""
"","","","","","html-keyboard-response","167","220286","0.0-15.0-1.1-0.1","n2e9lrvhzh","","n2e9lrvhzh","""2024-11-12T20:36:03.926Z""","null","+","null","","","","","","",""
"","","","","","image-keyboard-response","168","220956","0.0-15.0-1.1-1.1","n2e9lrvhzh","","n2e9lrvhzh","""2024-11-12T20:36:03.926Z""","668","materials/imgs/D8.png","arrowright","","[""materials/imgs/D18.png"",""materials/imgs/D8.png""]","","check","materials/imgs/D8.png","1","true"
"","","","","","html-keyboard-response","169","221457","0.0-15.0-2.1-0.2","n2e9lrvhzh","","n2e9lrvhzh","""2024-11-12T20:36:03.926Z""","null","+","null","","","","","","",""
"","","","","","image-keyboard-response","170","222385","0.0-15.0-2.1-1.2","n2e9lrvhzh","","n2e9lrvhzh","""2024-11-12T20:36:03.926Z""","926","materials/imgs/D9.png","arrowright","","[""materials/imgs/D103.png"",""materials/imgs/D4.png""]","false","validation","","",""
"","","","","","html-keyboard-response","171","222887","0.0-15.0-2.1-0.3","n2e9lrvhzh","","n2e9lrvhzh","""2024-11-12T20:36:03.926Z""","null","+","null","","","","","","",""
"","","","","","image-keyboard-response","172","223690","0.0-15.0-2.1-1.3","n2e9lrvhzh","","n2e9lrvhzh","""2024-11-12T20:36:03.926Z""","802","materials/imgs/D82.png","arrowright","","[""materials/imgs/D83.png"",""materials/imgs/D22.png""]","false","validation","","",""
"","","","","","html-keyboard-response","173","224191","0.0-15.0-0.2-0.14","n2e9lrvhzh","","n2e9lrvhzh","""2024-11-12T20:36:03.926Z""","null","+","null","","","","","","",""
"","","","","","image-keyboard-response","174","225338","0.0-15.0-0.2-1.14","n2e9lrvhzh","","n2e9lrvhzh","""2024-11-12T20:36:03.926Z""","1145","materials/imgs/D48.png","arrowleft","","[""materials/imgs/D47.png"",""materials/imgs/D6.png""]","false","random","","",""
"","","","","","html-keyboard-response","175","225839","0.0-15.0-0.2-0.15","n2e9lrvhzh","","n2e9lrvhzh","""2024-11-12T20:36:03.926Z""","null","+","null","","","","","","",""
"","","","","","image-keyboard-response","176","227250","0.0-15.0-0.2-1.15","n2e9lrvhzh","","n2e9lrvhzh","""2024-11-12T20:36:03.926Z""","1408","materials/imgs/D22.png","arrowright","","[""materials/imgs/D8.png"",""materials/imgs/D106.png""]","false","random","","",""
"","","","","","html-keyboard-response","177","227752","0.0-15.0-0.2-0.16","n2e9lrvhzh","","n2e9lrvhzh","""2024-11-12T20:36:03.926Z""","null","+","null","","","","","","",""
"","","","","","image-keyboard-response","178","228944","0.0-15.0-0.2-1.16","n2e9lrvhzh","","n2e9lrvhzh","""2024-11-12T20:36:03.926Z""","1190","materials/imgs/D9.png","arrowleft","","[""materials/imgs/D21.png"",""materials/imgs/D49.png""]","false","random","","",""
"","","","","","html-keyboard-response","179","229446","0.0-15.0-0.2-0.17","n2e9lrvhzh","","n2e9lrvhzh","""2024-11-12T20:36:03.926Z""","null","+","null","","","","","","",""
"","","","","","image-keyboard-response","180","230302","0.0-15.0-0.2-1.17","n2e9lrvhzh","","n2e9lrvhzh","""2024-11-12T20:36:03.926Z""","855","materials/imgs/D46.png","arrowleft","","[""materials/imgs/D94.png"",""materials/imgs/D52.png""]","false","random","","",""
"","","","","","html-keyboard-response","181","230804","0.0-15.0-0.2-0.18","n2e9lrvhzh","","n2e9lrvhzh","""2024-11-12T20:36:03.926Z""","null","+","null","","","","","","",""
"","","","","","image-keyboard-response","182","231550","0.0-15.0-0.2-1.18","n2e9lrvhzh","","n2e9lrvhzh","""2024-11-12T20:36:03.926Z""","744","materials/imgs/D74.png","arrowright","","[""materials/imgs/D105.png"",""materials/imgs/D3.png""]","false","random","","",""
"","","","","","html-keyboard-response","183","232051","0.0-15.0-0.2-0.19","n2e9lrvhzh","","n2e9lrvhzh","""2024-11-12T20:36:03.926Z""","null","+","null","","","","","","",""
"","","","","","image-keyboard-response","184","232755","0.0-15.0-0.2-1.19","n2e9lrvhzh","","n2e9lrvhzh","""2024-11-12T20:36:03.926Z""","702","materials/imgs/D92.png","arrowright","","[""materials/imgs/D66.png"",""materials/imgs/D103.png""]","false","random","","",""
"","","","","","html-keyboard-response","185","233256","0.0-15.0-0.2-0.20","n2e9lrvhzh","","n2e9lrvhzh","""2024-11-12T20:36:03.926Z""","null","+","null","","","","","","",""
"","","","","","image-keyboard-response","186","234313","0.0-15.0-0.2-1.20","n2e9lrvhzh","","n2e9lrvhzh","""2024-11-12T20:36:03.926Z""","1055","materials/imgs/D20.png","arrowleft","","[""materials/imgs/D78.png"",""materials/imgs/D1.png""]","false","random","","",""
"","","","","","html-keyboard-response","187","234814","0.0-15.0-1.2-0.2","n2e9lrvhzh","","n2e9lrvhzh","""2024-11-12T20:36:03.926Z""","null","+","null","","","","","","",""
"","","","","","image-keyboard-response","188","235364","0.0-15.0-1.2-1.2","n2e9lrvhzh","","n2e9lrvhzh","""2024-11-12T20:36:03.926Z""","548","materials/imgs/D18.png","arrowright","","[""materials/imgs/D8.png"",""materials/imgs/D18.png""]","","check","materials/imgs/D18.png","1","true"
"","","","","","html-keyboard-response","189","235865","0.0-15.0-2.2-0.4","n2e9lrvhzh","","n2e9lrvhzh","""2024-11-12T20:36:03.926Z""","null","+","null","","","","","","",""
"","","","","","image-keyboard-response","190","236707","0.0-15.0-2.2-1.4","n2e9lrvhzh","","n2e9lrvhzh","""2024-11-12T20:36:03.926Z""","841","materials/imgs/D105.png","arrowleft","","[""materials/imgs/D106.png"",""materials/imgs/D52.png""]","false","validation","","",""
"","","","","","html-keyboard-response","191","237209","0.0-15.0-2.2-0.5","n2e9lrvhzh","","n2e9lrvhzh","""2024-11-12T20:36:03.926Z""","null","+","null","","","","","","",""
"","","","","","image-keyboard-response","192","238027","0.0-15.0-2.2-1.5","n2e9lrvhzh","","n2e9lrvhzh","""2024-11-12T20:36:03.926Z""","817","materials/imgs/D24.png","arrowleft","","[""materials/imgs/D36.png"",""materials/imgs/D8.png""]","false","validation","","",""
"","","","","","html-keyboard-response","193","238529","0.0-15.0-0.3-0.21","n2e9lrvhzh","","n2e9lrvhzh","""2024-11-12T20:36:03.926Z""","null","+","null","","","","","","",""
"","","","","","image-keyboard-response","194","239390","0.0-15.0-0.3-1.21","n2e9lrvhzh","","n2e9lrvhzh","""2024-11-12T20:36:03.926Z""","859","materials/imgs/D66.png","arrowright","","[""materials/imgs/D29.png"",""materials/imgs/D32.png""]","false","random","","",""
"","","","","","html-keyboard-response","195","239892","0.0-15.0-0.3-0.22","n2e9lrvhzh","","n2e9lrvhzh","""2024-11-12T20:36:03.926Z""","null","+","null","","","","","","",""
"","","","","","image-keyboard-response","196","240625","0.0-15.0-0.3-1.22","n2e9lrvhzh","","n2e9lrvhzh","""2024-11-12T20:36:03.926Z""","731","materials/imgs/D16.png","arrowleft","","[""materials/imgs/D4.png"",""materials/imgs/D94.png""]","false","random","","",""
"","","","","","html-keyboard-response","197","241126","0.0-15.0-0.3-0.23","n2e9lrvhzh","","n2e9lrvhzh","""2024-11-12T20:36:03.926Z""","null","+","null","","","","","","",""
"","","","","","image-keyboard-response","198","242470","0.0-15.0-0.3-1.23","n2e9lrvhzh","","n2e9lrvhzh","""2024-11-12T20:36:03.926Z""","1342","materials/imgs/D95.png","arrowleft","","[""materials/imgs/D81.png"",""materials/imgs/D46.png""]","false","random","","",""
"","","","","","html-keyboard-response","199","242971","0.0-15.0-0.3-0.24","n2e9lrvhzh","","n2e9lrvhzh","""2024-11-12T20:36:03.926Z""","null","+","null","","","","","","",""
"","","","","","image-keyboard-response","200","244120","0.0-15.0-0.3-1.24","n2e9lrvhzh","","n2e9lrvhzh","""2024-11-12T20:36:03.926Z""","1147","materials/imgs/D74.png","arrowleft","","[""materials/imgs/D49.png"",""materials/imgs/D25.png""]","false","random","","",""
"","","","","","html-keyboard-response","201","244622","0.0-15.0-0.3-0.25","n2e9lrvhzh","","n2e9lrvhzh","""2024-11-12T20:36:03.926Z""","null","+","null","","","","","","",""
"","","","","","image-keyboard-response","202","245715","0.0-15.0-0.3-1.25","n2e9lrvhzh","","n2e9lrvhzh","""2024-11-12T20:36:03.926Z""","1091","materials/imgs/D94.png","arrowright","","[""materials/imgs/D34.png"",""materials/imgs/D47.png""]","false","random","","",""
"","","","","","html-keyboard-response","203","246216","0.0-15.0-0.3-0.26","n2e9lrvhzh","","n2e9lrvhzh","""2024-11-12T20:36:03.926Z""","null","+","null","","","","","","",""
"","","","","","image-keyboard-response","204","246979","0.0-15.0-0.3-1.26","n2e9lrvhzh","","n2e9lrvhzh","""2024-11-12T20:36:03.926Z""","761","materials/imgs/D6.png","arrowright","","[""materials/imgs/D18.png"",""materials/imgs/D84.png""]","false","random","","",""
"","","","","","html-keyboard-response","205","247480","0.0-15.0-0.3-0.27","n2e9lrvhzh","","n2e9lrvhzh","""2024-11-12T20:36:03.926Z""","null","+","null","","","","","","",""
"","","","","","image-keyboard-response","206","248692","0.0-15.0-0.3-1.27","n2e9lrvhzh","","n2e9lrvhzh","""2024-11-12T20:36:03.926Z""","1210","materials/imgs/D80.png","arrowright","","[""materials/imgs/D66.png"",""materials/imgs/D51.png""]","false","random","","",""
"","","","","","html-keyboard-response","207","249193","0.0-15.0-1.3-0.3","n2e9lrvhzh","","n2e9lrvhzh","""2024-11-12T20:36:03.926Z""","null","+","null","","","","","","",""
"","","","","","image-keyboard-response","208","249896","0.0-15.0-1.3-1.3","n2e9lrvhzh","","n2e9lrvhzh","""2024-11-12T20:36:03.926Z""","701","materials/imgs/D18.png","arrowright","","[""materials/imgs/D8.png"",""materials/imgs/D18.png""]","","check","materials/imgs/D18.png","1","true"
"","","","","","html-keyboard-response","209","250397","0.0-15.0-2.3-0.6","n2e9lrvhzh","","n2e9lrvhzh","""2024-11-12T20:36:03.926Z""","null","+","null","","","","","","",""
"","","","","","image-keyboard-response","210","251360","0.0-15.0-2.3-1.6","n2e9lrvhzh","","n2e9lrvhzh","""2024-11-12T20:36:03.926Z""","961","materials/imgs/D8.png","arrowleft","","[""materials/imgs/D101.png"",""materials/imgs/D52.png""]","false","validation","","",""
"","","","","","html-keyboard-response","211","251861","0.0-15.0-2.3-0.7","n2e9lrvhzh","","n2e9lrvhzh","""2024-11-12T20:36:03.926Z""","null","+","null","","","","","","",""
"","","","","","image-keyboard-response","212","253219","0.0-15.0-2.3-1.7","n2e9lrvhzh","","n2e9lrvhzh","""2024-11-12T20:36:03.926Z""","1356","materials/imgs/D19.png","arrowleft","","[""materials/imgs/D111.png"",""materials/imgs/D56.png""]","false","validation","","",""
"","","","","","html-keyboard-response","213","253720","0.0-15.0-0.4-0.28","n2e9lrvhzh","","n2e9lrvhzh","""2024-11-12T20:36:03.926Z""","null","+","null","","","","","","",""
"","","","","","image-keyboard-response","214","254461","0.0-15.0-0.4-1.28","n2e9lrvhzh","","n2e9lrvhzh","""2024-11-12T20:36:03.926Z""","739","materials/imgs/D1.png","arrowright","","[""materials/imgs/D34.png"",""materials/imgs/D20.png""]","false","random","","",""
"","","","","","html-keyboard-response","215","254963","0.0-15.0-0.4-0.29","n2e9lrvhzh","","n2e9lrvhzh","""2024-11-12T20:36:03.926Z""","null","+","null","","","","","","",""
"","","","","","image-keyboard-response","216","256354","0.0-15.0-0.4-1.29","n2e9lrvhzh","","n2e9lrvhzh","""2024-11-12T20:36:03.926Z""","1389","materials/imgs/D36.png","arrowleft","","[""materials/imgs/D85.png"",""materials/imgs/D47.png""]","false","random","","",""
"","","","","","html-keyboard-response","217","256855","0.0-15.0-0.4-0.30","n2e9lrvhzh","","n2e9lrvhzh","""2024-11-12T20:36:03.926Z""","null","+","null","","","","","","",""
"","","","","","image-keyboard-response","218","257797","0.0-15.0-0.4-1.30","n2e9lrvhzh","","n2e9lrvhzh","""2024-11-12T20:36:03.926Z""","939","materials/imgs/D46.png","arrowleft","","[""materials/imgs/D1.png"",""materials/imgs/D87.png""]","false","random","","",""
"","","","","","html-keyboard-response","219","258299","0.0-15.0-0.4-0.31","n2e9lrvhzh","","n2e9lrvhzh","""2024-11-12T20:36:03.926Z""","null","+","null","","","","","","",""
"","","","","","image-keyboard-response","220","259425","0.0-15.0-0.4-1.31","n2e9lrvhzh","","n2e9lrvhzh","""2024-11-12T20:36:03.926Z""","1124","materials/imgs/D103.png","arrowleft","","[""materials/imgs/D85.png"",""materials/imgs/D106.png""]","false","random","","",""
"","","","","","html-keyboard-response","221","259926","0.0-15.0-0.4-0.32","n2e9lrvhzh","","n2e9lrvhzh","""2024-11-12T20:36:03.926Z""","null","+","null","","","","","","",""
"","","","","","image-keyboard-response","222","260608","0.0-15.0-0.4-1.32","n2e9lrvhzh","","n2e9lrvhzh","""2024-11-12T20:36:03.926Z""","679","materials/imgs/D29.png","arrowright","","[""materials/imgs/D48.png"",""materials/imgs/D14.png""]","false","random","","",""
"","","","","","html-keyboard-response","223","261109","0.0-15.0-0.4-0.33","n2e9lrvhzh","","n2e9lrvhzh","""2024-11-12T20:36:03.926Z""","null","+","null","","","","","","",""
"","","","","","image-keyboard-response","224","262057","0.0-15.0-0.4-1.33","n2e9lrvhzh","","n2e9lrvhzh","""2024-11-12T20:36:03.926Z""","946","materials/imgs/D34.png","arrowright","","[""materials/imgs/D103.png"",""materials/imgs/D55.png""]","false","random","","",""
"","","","","","html-keyboard-response","225","262558","0.0-15.0-0.4-0.34","n2e9lrvhzh","","n2e9lrvhzh","""2024-11-12T20:36:03.926Z""","null","+","null","","","","","","",""
"","","","","","image-keyboard-response","226","263489","0.0-15.0-0.4-1.34","n2e9lrvhzh","","n2e9lrvhzh","""2024-11-12T20:36:03.926Z""","928","materials/imgs/D111.png","arrowleft","","[""materials/imgs/D46.png"",""materials/imgs/D1.png""]","false","random","","",""
"","","","","","html-keyboard-response","227","263989","0.0-15.0-1.4-0.4","n2e9lrvhzh","","n2e9lrvhzh","""2024-11-12T20:36:03.926Z""","null","+","null","","","","","","",""
"","","","","","image-keyboard-response","228","264706","0.0-15.0-1.4-1.4","n2e9lrvhzh","","n2e9lrvhzh","""2024-11-12T20:36:03.926Z""","715","materials/imgs/D46.png","arrowleft","","[""materials/imgs/D46.png"",""materials/imgs/D26.png""]","","check","materials/imgs/D46.png","0","true"
"","","","","","html-keyboard-response","229","265207","0.0-15.0-2.4-0.8","n2e9lrvhzh","","n2e9lrvhzh","""2024-11-12T20:36:03.926Z""","null","+","null","","","","","","",""
"","","","","","image-keyboard-response","230","267393","0.0-15.0-2.4-1.8","n2e9lrvhzh","","n2e9lrvhzh","""2024-11-12T20:36:03.926Z""","2184","materials/imgs/D35.png","arrowright","","[""materials/imgs/D83.png"",""materials/imgs/D24.png""]","false","validation","","",""
"","","","","","html-keyboard-response","231","267895","0.0-15.0-2.4-0.9","n2e9lrvhzh","","n2e9lrvhzh","""2024-11-12T20:36:03.926Z""","null","+","null","","","","","","",""
"","","","","","image-keyboard-response","232","269741","0.0-15.0-2.4-1.9","n2e9lrvhzh","","n2e9lrvhzh","""2024-11-12T20:36:03.926Z""","1845","materials/imgs/D83.png","arrowleft","","[""materials/imgs/D24.png"",""materials/imgs/D8.png""]","false","validation","","",""
"","","","","","html-button-response","233","281684","0.0-16.0","n2e9lrvhzh","","n2e9lrvhzh","""2024-11-12T20:36:03.926Z""","11942","You have completed 50% of the trials. Please click 'Continue' when you are ready proceed.","0","","","","","","",""
"","","","","","html-keyboard-response","234","282185","0.0-17.0-0.0-0.0","n2e9lrvhzh","","n2e9lrvhzh","""2024-11-12T20:36:03.926Z""","null","+","null","","","","","","",""
"","","","","","image-keyboard-response","235","283257","0.0-17.0-0.0-1.0","n2e9lrvhzh","","n2e9lrvhzh","""2024-11-12T20:36:03.926Z""","1070","materials/imgs/D57.png","arrowleft","","[""materials/imgs/D53.png"",""materials/imgs/D46.png""]","false","random","","",""
"","","","","","html-keyboard-response","236","283759","0.0-17.0-0.0-0.1","n2e9lrvhzh","","n2e9lrvhzh","""2024-11-12T20:36:03.926Z""","null","+","null","","","","","","",""
"","","","","","image-keyboard-response","237","285585","0.0-17.0-0.0-1.1","n2e9lrvhzh","","n2e9lrvhzh","""2024-11-12T20:36:03.926Z""","1823","materials/imgs/D25.png","arrowleft","","[""materials/imgs/D32.png"",""materials/imgs/D24.png""]","false","random","","",""
"","","","","","html-keyboard-response","238","286086","0.0-17.0-0.0-0.2","n2e9lrvhzh","","n2e9lrvhzh","""2024-11-12T20:36:03.926Z""","null","+","null","","","","","","",""
"","","","","","image-keyboard-response","239","286816","0.0-17.0-0.0-1.2","n2e9lrvhzh","","n2e9lrvhzh","""2024-11-12T20:36:03.926Z""","728","materials/imgs/D19.png","arrowright","","[""materials/imgs/D49.png"",""materials/imgs/D106.png""]","false","random","","",""
"","","","","","html-keyboard-response","240","287318","0.0-17.0-0.0-0.3","n2e9lrvhzh","","n2e9lrvhzh","""2024-11-12T20:36:03.926Z""","null","+","null","","","","","","",""
"","","","","","image-keyboard-response","241","288113","0.0-17.0-0.0-1.3","n2e9lrvhzh","","n2e9lrvhzh","""2024-11-12T20:36:03.926Z""","793","materials/imgs/D35.png","arrowleft","","[""materials/imgs/D52.png"",""materials/imgs/D79.png""]","false","random","","",""
"","","","","","html-keyboard-response","242","288614","0.0-17.0-0.0-0.4","n2e9lrvhzh","","n2e9lrvhzh","""2024-11-12T20:36:03.926Z""","null","+","null","","","","","","",""
"","","","","","image-keyboard-response","243","289446","0.0-17.0-0.0-1.4","n2e9lrvhzh","","n2e9lrvhzh","""2024-11-12T20:36:03.926Z""","831","materials/imgs/D1.png","arrowleft","","[""materials/imgs/D47.png"",""materials/imgs/D103.png""]","false","random","","",""
"","","","","","html-keyboard-response","244","289948","0.0-17.0-0.0-0.5","n2e9lrvhzh","","n2e9lrvhzh","""2024-11-12T20:36:03.926Z""","null","+","null","","","","","","",""
"","","","","","image-keyboard-response","245","290676","0.0-17.0-0.0-1.5","n2e9lrvhzh","","n2e9lrvhzh","""2024-11-12T20:36:03.926Z""","726","materials/imgs/D9.png","arrowright","","[""materials/imgs/D64.png"",""materials/imgs/D87.png""]","false","random","","",""
"","","","","","html-keyboard-response","246","291177","0.0-17.0-0.0-0.6","n2e9lrvhzh","","n2e9lrvhzh","""2024-11-12T20:36:03.926Z""","null","+","null","","","","","","",""
"","","","","","image-keyboard-response","247","291744","0.0-17.0-0.0-1.6","n2e9lrvhzh","","n2e9lrvhzh","""2024-11-12T20:36:03.926Z""","566","materials/imgs/D104.png","arrowleft","","[""materials/imgs/D4.png"",""materials/imgs/D49.png""]","false","random","","",""
"","","","","","html-keyboard-response","248","292246","0.0-17.0-1.0-0.0","n2e9lrvhzh","","n2e9lrvhzh","""2024-11-12T20:36:03.926Z""","null","+","null","","","","","","",""
"","","","","","image-keyboard-response","249","292784","0.0-17.0-1.0-1.0","n2e9lrvhzh","","n2e9lrvhzh","""2024-11-12T20:36:03.926Z""","536","materials/imgs/D26.png","arrowleft","","[""materials/imgs/D26.png"",""materials/imgs/D46.png""]","","check","materials/imgs/D26.png","0","true"
"","","","","","html-keyboard-response","250","293285","0.0-17.0-2.0-0.0","n2e9lrvhzh","","n2e9lrvhzh","""2024-11-12T20:36:03.926Z""","null","+","null","","","","","","",""
"","","","","","image-keyboard-response","251","293666","0.0-17.0-2.0-1.0","n2e9lrvhzh","","n2e9lrvhzh","""2024-11-12T20:36:03.926Z""","379","materials/imgs/D75.png","arrowleft","","[""materials/imgs/D96.png"",""materials/imgs/D4.png""]","true","validation","","",""
"","","","","","html-keyboard-response","252","297796","0.0-17.0-2.0-2.0-0.0","n2e9lrvhzh","","n2e9lrvhzh","""2024-11-12T20:36:03.926Z""","4129","<p><strong>You're going too fast.</strong><p>Please slow down and assess each triplet.<p>Press 'y' to continue.</p></p>","y","","","","","","",""
"","","","","","html-keyboard-response","253","298297","0.0-17.0-2.0-0.1","n2e9lrvhzh","","n2e9lrvhzh","""2024-11-12T20:36:03.926Z""","null","+","null","","","","","","",""
"","","","","","image-keyboard-response","254","299556","0.0-17.0-2.0-1.1","n2e9lrvhzh","","n2e9lrvhzh","""2024-11-12T20:36:03.926Z""","1258","materials/imgs/D20.png","arrowleft","","[""materials/imgs/D84.png"",""materials/imgs/D85.png""]","false","validation","","",""
"","","","","","html-keyboard-response","255","300058","0.0-17.0-0.1-0.7","n2e9lrvhzh","","n2e9lrvhzh","""2024-11-12T20:36:03.926Z""","null","+","null","","","","","","",""
"","","","","","image-keyboard-response","256","300964","0.0-17.0-0.1-1.7","n2e9lrvhzh","","n2e9lrvhzh","""2024-11-12T20:36:03.926Z""","904","materials/imgs/D11.png","arrowleft","","[""materials/imgs/D76.png"",""materials/imgs/D104.png""]","false","random","","",""
"","","","","","html-keyboard-response","257","301466","0.0-17.0-0.1-0.8","n2e9lrvhzh","","n2e9lrvhzh","""2024-11-12T20:36:03.926Z""","null","+","null","","","","","","",""
"","","","","","image-keyboard-response","258","304710","0.0-17.0-0.1-1.8","n2e9lrvhzh","","n2e9lrvhzh","""2024-11-12T20:36:03.926Z""","3242","materials/imgs/D51.png","arrowleft","","[""materials/imgs/D103.png"",""materials/imgs/D34.png""]","false","random","","",""
"","","","","","html-keyboard-response","259","305212","0.0-17.0-0.1-0.9","n2e9lrvhzh","","n2e9lrvhzh","""2024-11-12T20:36:03.926Z""","null","+","null","","","","","","",""
"","","","","","image-keyboard-response","260","306718","0.0-17.0-0.1-1.9","n2e9lrvhzh","","n2e9lrvhzh","""2024-11-12T20:36:03.926Z""","1503","materials/imgs/D87.png","arrowleft","","[""materials/imgs/D106.png"",""materials/imgs/D77.png""]","false","random","","",""
"","","","","","html-keyboard-response","261","307219","0.0-17.0-0.1-0.10","n2e9lrvhzh","","n2e9lrvhzh","""2024-11-12T20:36:03.926Z""","null","+","null","","","","","","",""
"","","","","","image-keyboard-response","262","309071","0.0-17.0-0.1-1.10","n2e9lrvhzh","","n2e9lrvhzh","""2024-11-12T20:36:03.926Z""","1850","materials/imgs/D19.png","arrowleft","","[""materials/imgs/D11.png"",""materials/imgs/D75.png""]","false","random","","",""
"","","","","","html-keyboard-response","263","309572","0.0-17.0-0.1-0.11","n2e9lrvhzh","","n2e9lrvhzh","""2024-11-12T20:36:03.926Z""","null","+","null","","","","","","",""
"","","","","","image-keyboard-response","264","310668","0.0-17.0-0.1-1.11","n2e9lrvhzh","","n2e9lrvhzh","""2024-11-12T20:36:03.926Z""","1094","materials/imgs/D16.png","arrowleft","","[""materials/imgs/D65.png"",""materials/imgs/D25.png""]","false","random","","",""
"","","","","","html-keyboard-response","265","311169","0.0-17.0-0.1-0.12","n2e9lrvhzh","","n2e9lrvhzh","""2024-11-12T20:36:03.926Z""","null","+","null","","","","","","",""
"","","","","","image-keyboard-response","266","313681","0.0-17.0-0.1-1.12","n2e9lrvhzh","","n2e9lrvhzh","""2024-11-12T20:36:03.926Z""","2510","materials/imgs/D102.png","arrowleft","","[""materials/imgs/D26.png"",""materials/imgs/D25.png""]","false","random","","",""
"","","","","","html-keyboard-response","267","314183","0.0-17.0-0.1-0.13","n2e9lrvhzh","","n2e9lrvhzh","""2024-11-12T20:36:03.926Z""","null","+","null","","","","","","",""
"","","","","","image-keyboard-response","268","316283","0.0-17.0-0.1-1.13","n2e9lrvhzh","","n2e9lrvhzh","""2024-11-12T20:36:03.926Z""","2098","materials/imgs/D20.png","arrowleft","","[""materials/imgs/D95.png"",""materials/imgs/D11.png""]","false","random","","",""
"","","","","","html-keyboard-response","269","316784","0.0-17.0-1.1-0.1","n2e9lrvhzh","","n2e9lrvhzh","""2024-11-12T20:36:03.926Z""","null","+","null","","","","","","",""
"","","","","","image-keyboard-response","270","317528","0.0-17.0-1.1-1.1","n2e9lrvhzh","","n2e9lrvhzh","""2024-11-12T20:36:03.926Z""","743","materials/imgs/D26.png","arrowleft","","[""materials/imgs/D26.png"",""materials/imgs/D46.png""]","","check","materials/imgs/D26.png","0","true"
"","","","","","html-keyboard-response","271","318030","0.0-17.0-2.1-0.2","n2e9lrvhzh","","n2e9lrvhzh","""2024-11-12T20:36:03.926Z""","null","+","null","","","","","","",""
"","","","","","image-keyboard-response","272","319737","0.0-17.0-2.1-1.2","n2e9lrvhzh","","n2e9lrvhzh","""2024-11-12T20:36:03.926Z""","1705","materials/imgs/D96.png","arrowleft","","[""materials/imgs/D46.png"",""materials/imgs/D18.png""]","false","validation","","",""
"","","","","","html-keyboard-response","273","320238","0.0-17.0-2.1-0.3","n2e9lrvhzh","","n2e9lrvhzh","""2024-11-12T20:36:03.926Z""","null","+","null","","","","","","",""
"","","","","","image-keyboard-response","274","322457","0.0-17.0-2.1-1.3","n2e9lrvhzh","","n2e9lrvhzh","""2024-11-12T20:36:03.926Z""","2217","materials/imgs/D65.png","arrowleft","","[""materials/imgs/D4.png"",""materials/imgs/D16.png""]","false","validation","","",""
"","","","","","html-keyboard-response","275","322958","0.0-17.0-0.2-0.14","n2e9lrvhzh","","n2e9lrvhzh","""2024-11-12T20:36:03.926Z""","null","+","null","","","","","","",""
"","","","","","image-keyboard-response","276","324130","0.0-17.0-0.2-1.14","n2e9lrvhzh","","n2e9lrvhzh","""2024-11-12T20:36:03.926Z""","1170","materials/imgs/D3.png","arrowright","","[""materials/imgs/D16.png"",""materials/imgs/D84.png""]","false","random","","",""
"","","","","","html-keyboard-response","277","324632","0.0-17.0-0.2-0.15","n2e9lrvhzh","","n2e9lrvhzh","""2024-11-12T20:36:03.926Z""","null","+","null","","","","","","",""
"","","","","","image-keyboard-response","278","325968","0.0-17.0-0.2-1.15","n2e9lrvhzh","","n2e9lrvhzh","""2024-11-12T20:36:03.926Z""","1334","materials/imgs/D104.png","arrowright","","[""materials/imgs/D74.png"",""materials/imgs/D55.png""]","false","random","","",""
"","","","","","html-keyboard-response","279","326469","0.0-17.0-0.2-0.16","n2e9lrvhzh","","n2e9lrvhzh","""2024-11-12T20:36:03.926Z""","null","+","null","","","","","","",""
"","","","","","image-keyboard-response","280","329951","0.0-17.0-0.2-1.16","n2e9lrvhzh","","n2e9lrvhzh","""2024-11-12T20:36:03.926Z""","3481","materials/imgs/D20.png","arrowleft","","[""materials/imgs/D92.png"",""materials/imgs/D4.png""]","false","random","","",""
"","","","","","html-keyboard-response","281","330453","0.0-17.0-0.2-0.17","n2e9lrvhzh","","n2e9lrvhzh","""2024-11-12T20:36:03.926Z""","null","+","null","","","","","","",""
"","","","","","image-keyboard-response","282","331890","0.0-17.0-0.2-1.17","n2e9lrvhzh","","n2e9lrvhzh","""2024-11-12T20:36:03.926Z""","1434","materials/imgs/D26.png","arrowright","","[""materials/imgs/D51.png"",""materials/imgs/D74.png""]","false","random","","",""
"","","","","","html-keyboard-response","283","332391","0.0-17.0-0.2-0.18","n2e9lrvhzh","","n2e9lrvhzh","""2024-11-12T20:36:03.926Z""","null","+","null","","","","","","",""
"","","","","","image-keyboard-response","284","334606","0.0-17.0-0.2-1.18","n2e9lrvhzh","","n2e9lrvhzh","""2024-11-12T20:36:03.926Z""","2214","materials/imgs/D9.png","arrowright","","[""materials/imgs/D11.png"",""materials/imgs/D21.png""]","false","random","","",""
"","","","","","html-keyboard-response","285","335108","0.0-17.0-0.2-0.19","n2e9lrvhzh","","n2e9lrvhzh","""2024-11-12T20:36:03.926Z""","null","+","null","","","","","","",""
"","","","","","image-keyboard-response","286","336290","0.0-17.0-0.2-1.19","n2e9lrvhzh","","n2e9lrvhzh","""2024-11-12T20:36:03.926Z""","1179","materials/imgs/D6.png","arrowright","","[""materials/imgs/D92.png"",""materials/imgs/D16.png""]","false","random","","",""
"","","","","","html-keyboard-response","287","336791","0.0-17.0-0.2-0.20","n2e9lrvhzh","","n2e9lrvhzh","""2024-11-12T20:36:03.926Z""","null","+","null","","","","","","",""
"","","","","","image-keyboard-response","288","337724","0.0-17.0-0.2-1.20","n2e9lrvhzh","","n2e9lrvhzh","""2024-11-12T20:36:03.926Z""","930","materials/imgs/D77.png","arrowright","","[""materials/imgs/D102.png"",""materials/imgs/D79.png""]","false","random","","",""
"","","","","","html-keyboard-response","289","338225","0.0-17.0-1.2-0.2","n2e9lrvhzh","","n2e9lrvhzh","""2024-11-12T20:36:03.926Z""","null","+","null","","","","","","",""
"","","","","","image-keyboard-response","290","339078","0.0-17.0-1.2-1.2","n2e9lrvhzh","","n2e9lrvhzh","""2024-11-12T20:36:03.926Z""","850","materials/imgs/D106.png","arrowleft","","[""materials/imgs/D106.png"",""materials/imgs/D101.png""]","","check","materials/imgs/D106.png","0","true"
"","","","","","html-keyboard-response","291","339579","0.0-17.0-2.2-0.4","n2e9lrvhzh","","n2e9lrvhzh","""2024-11-12T20:36:03.926Z""","null","+","null","","","","","","",""
"","","","","","image-keyboard-response","292","340438","0.0-17.0-2.2-1.4","n2e9lrvhzh","","n2e9lrvhzh","""2024-11-12T20:36:03.926Z""","857","materials/imgs/D16.png","arrowleft","","[""materials/imgs/D52.png"",""materials/imgs/D25.png""]","false","validation","","",""
"","","","","","html-keyboard-response","293","340940","0.0-17.0-2.2-0.5","n2e9lrvhzh","","n2e9lrvhzh","""2024-11-12T20:36:03.926Z""","null","+","null","","","","","","",""
"","","","","","image-keyboard-response","294","341971","0.0-17.0-2.2-1.5","n2e9lrvhzh","","n2e9lrvhzh","""2024-11-12T20:36:03.926Z""","1030","materials/imgs/D85.png","arrowleft","","[""materials/imgs/D6.png"",""materials/imgs/D111.png""]","false","validation","","",""
"","","","","","html-keyboard-response","295","342472","0.0-17.0-0.3-0.21","n2e9lrvhzh","","n2e9lrvhzh","""2024-11-12T20:36:03.926Z""","null","+","null","","","","","","",""
"","","","","","image-keyboard-response","296","342865","0.0-17.0-0.3-1.21","n2e9lrvhzh","","n2e9lrvhzh","""2024-11-12T20:36:03.926Z""","391","materials/imgs/D9.png","arrowright","","[""materials/imgs/D64.png"",""materials/imgs/D94.png""]","true","random","","",""
"","","","","","html-keyboard-response","297","344841","0.0-17.0-0.3-2.21-0.21","n2e9lrvhzh","","n2e9lrvhzh","""2024-11-12T20:36:03.926Z""","1975","<p><strong>You're going too fast.</strong><p>Please slow down and assess each triplet.<p>Press 'y' to continue.</p></p>","y","","","","","","",""
"","","","","","html-keyboard-response","298","345342","0.0-17.0-0.3-0.22","n2e9lrvhzh","","n2e9lrvhzh","""2024-11-12T20:36:03.926Z""","null","+","null","","","","","","",""
"","","","","","image-keyboard-response","299","346802","0.0-17.0-0.3-1.22","n2e9lrvhzh","","n2e9lrvhzh","""2024-11-12T20:36:03.926Z""","1458","materials/imgs/D78.png","arrowleft","","[""materials/imgs/D111.png"",""materials/imgs/D9.png""]","false","random","","",""
"","","","","","html-keyboard-response","300","347304","0.0-17.0-0.3-0.23","n2e9lrvhzh","","n2e9lrvhzh","""2024-11-12T20:36:03.926Z""","null","+","null","","","","","","",""
"","","","","","image-keyboard-response","301","348376","0.0-17.0-0.3-1.23","n2e9lrvhzh","","n2e9lrvhzh","""2024-11-12T20:36:03.926Z""","1070","materials/imgs/D105.png","arrowright","","[""materials/imgs/D47.png"",""materials/imgs/D32.png""]","false","random","","",""
"","","","","","html-keyboard-response","302","348878","0.0-17.0-0.3-0.24","n2e9lrvhzh","","n2e9lrvhzh","""2024-11-12T20:36:03.926Z""","null","+","null","","","","","","",""
"","","","","","image-keyboard-response","303","350784","0.0-17.0-0.3-1.24","n2e9lrvhzh","","n2e9lrvhzh","""2024-11-12T20:36:03.926Z""","1903","materials/imgs/D17.png","arrowleft","","[""materials/imgs/D21.png"",""materials/imgs/D57.png""]","false","random","","",""
"","","","","","html-keyboard-response","304","351285","0.0-17.0-0.3-0.25","n2e9lrvhzh","","n2e9lrvhzh","""2024-11-12T20:36:03.926Z""","null","+","null","","","","","","",""
"","","","","","image-keyboard-response","305","352891","0.0-17.0-0.3-1.25","n2e9lrvhzh","","n2e9lrvhzh","""2024-11-12T20:36:03.926Z""","1604","materials/imgs/D25.png","arrowright","","[""materials/imgs/D20.png"",""materials/imgs/D14.png""]","false","random","","",""
"","","","","","html-keyboard-response","306","353392","0.0-17.0-0.3-0.26","n2e9lrvhzh","","n2e9lrvhzh","""2024-11-12T20:36:03.926Z""","null","+","null","","","","","","",""
"","","","","","image-keyboard-response","307","354465","0.0-17.0-0.3-1.26","n2e9lrvhzh","","n2e9lrvhzh","""2024-11-12T20:36:03.926Z""","1071","materials/imgs/D84.png","arrowleft","","[""materials/imgs/D103.png"",""materials/imgs/D96.png""]","false","random","","",""
"","","","","","html-keyboard-response","308","354966","0.0-17.0-0.3-0.27","n2e9lrvhzh","","n2e9lrvhzh","""2024-11-12T20:36:03.926Z""","null","+","null","","","","","","",""
"","","","","","image-keyboard-response","309","356037","0.0-17.0-0.3-1.27","n2e9lrvhzh","","n2e9lrvhzh","""2024-11-12T20:36:03.926Z""","1069","materials/imgs/D17.png","arrowright","","[""materials/imgs/D84.png"",""materials/imgs/D80.png""]","false","random","","",""
"","","","","","html-keyboard-response","310","356539","0.0-17.0-1.3-0.3","n2e9lrvhzh","","n2e9lrvhzh","""2024-11-12T20:36:03.926Z""","null","+","null","","","","","","",""
"","","","","","image-keyboard-response","311","357374","0.0-17.0-1.3-1.3","n2e9lrvhzh","","n2e9lrvhzh","""2024-11-12T20:36:03.926Z""","833","materials/imgs/D26.png","arrowleft","","[""materials/imgs/D26.png"",""materials/imgs/D46.png""]","","check","materials/imgs/D26.png","0","true"
"","","","","","html-keyboard-response","312","357875","0.0-17.0-2.3-0.6","n2e9lrvhzh","","n2e9lrvhzh","""2024-11-12T20:36:03.926Z""","null","+","null","","","","","","",""
"","","","","","image-keyboard-response","313","359069","0.0-17.0-2.3-1.6","n2e9lrvhzh","","n2e9lrvhzh","""2024-11-12T20:36:03.926Z""","1192","materials/imgs/D79.png","arrowleft","","[""materials/imgs/D51.png"",""materials/imgs/D64.png""]","false","validation","","",""
"","","","","","html-keyboard-response","314","359570","0.0-17.0-2.3-0.7","n2e9lrvhzh","","n2e9lrvhzh","""2024-11-12T20:36:03.926Z""","null","+","null","","","","","","",""
"","","","","","image-keyboard-response","315","360783","0.0-17.0-2.3-1.7","n2e9lrvhzh","","n2e9lrvhzh","""2024-11-12T20:36:03.926Z""","1211","materials/imgs/D92.png","arrowleft","","[""materials/imgs/D56.png"",""materials/imgs/D77.png""]","false","validation","","",""
"","","","","","html-keyboard-response","316","361285","0.0-17.0-0.4-0.28","n2e9lrvhzh","","n2e9lrvhzh","""2024-11-12T20:36:03.926Z""","null","+","null","","","","","","",""
"","","","","","image-keyboard-response","317","369041","0.0-17.0-0.4-1.28","n2e9lrvhzh","","n2e9lrvhzh","""2024-11-12T20:36:03.926Z""","7754","materials/imgs/D36.png","arrowright","","[""materials/imgs/D24.png"",""materials/imgs/D55.png""]","false","random","","",""
"","","","","","html-keyboard-response","318","369543","0.0-17.0-0.4-0.29","n2e9lrvhzh","","n2e9lrvhzh","""2024-11-12T20:36:03.926Z""","null","+","null","","","","","","",""
"","","","","","image-keyboard-response","319","372295","0.0-17.0-0.4-1.29","n2e9lrvhzh","","n2e9lrvhzh","""2024-11-12T20:36:03.926Z""","2749","materials/imgs/D80.png","arrowleft","","[""materials/imgs/D79.png"",""materials/imgs/D53.png""]","false","random","","",""
"","","","","","html-keyboard-response","320","372796","0.0-17.0-0.4-0.30","n2e9lrvhzh","","n2e9lrvhzh","""2024-11-12T20:36:03.926Z""","null","+","null","","","","","","",""
"","","","","","image-keyboard-response","321","373694","0.0-17.0-0.4-1.30","n2e9lrvhzh","","n2e9lrvhzh","""2024-11-12T20:36:03.926Z""","896","materials/imgs/D46.png","arrowleft","","[""materials/imgs/D56.png"",""materials/imgs/D14.png""]","false","random","","",""
"","","","","","html-keyboard-response","322","374196","0.0-17.0-0.4-0.31","n2e9lrvhzh","","n2e9lrvhzh","""2024-11-12T20:36:03.926Z""","null","+","null","","","","","","",""
"","","","","","image-keyboard-response","323","375541","0.0-17.0-0.4-1.31","n2e9lrvhzh","","n2e9lrvhzh","""2024-11-12T20:36:03.926Z""","1343","materials/imgs/D16.png","arrowleft","","[""materials/imgs/D56.png"",""materials/imgs/D74.png""]","false","random","","",""
"","","","","","html-keyboard-response","324","376042","0.0-17.0-0.4-0.32","n2e9lrvhzh","","n2e9lrvhzh","""2024-11-12T20:36:03.926Z""","null","+","null","","","","","","",""
"","","","","","image-keyboard-response","325","378042","0.0-17.0-0.4-1.32","n2e9lrvhzh","","n2e9lrvhzh","""2024-11-12T20:36:03.926Z""","1998","materials/imgs/D11.png","arrowright","","[""materials/imgs/D32.png"",""materials/imgs/D64.png""]","false","random","","",""
"","","","","","html-keyboard-response","326","378542","0.0-17.0-0.4-0.33","n2e9lrvhzh","","n2e9lrvhzh","""2024-11-12T20:36:03.926Z""","null","+","null","","","","","","",""
"","","","","","image-keyboard-response","327","379757","0.0-17.0-0.4-1.33","n2e9lrvhzh","","n2e9lrvhzh","""2024-11-12T20:36:03.926Z""","1212","materials/imgs/D9.png","arrowleft","","[""materials/imgs/D17.png"",""materials/imgs/D66.png""]","false","random","","",""
"","","","","","html-keyboard-response","328","380258","0.0-17.0-0.4-0.34","n2e9lrvhzh","","n2e9lrvhzh","""2024-11-12T20:36:03.926Z""","null","+","null","","","","","","",""
"","","","","","image-keyboard-response","329","382450","0.0-17.0-0.4-1.34","n2e9lrvhzh","","n2e9lrvhzh","""2024-11-12T20:36:03.926Z""","2190","materials/imgs/D79.png","arrowleft","","[""materials/imgs/D81.png"",""materials/imgs/D20.png""]","false","random","","",""
"","","","","","html-keyboard-response","330","382951","0.0-17.0-1.4-0.4","n2e9lrvhzh","","n2e9lrvhzh","""2024-11-12T20:36:03.926Z""","null","+","null","","","","","","",""
"","","","","","image-keyboard-response","331","383712","0.0-17.0-1.4-1.4","n2e9lrvhzh","","n2e9lrvhzh","""2024-11-12T20:36:03.926Z""","759","materials/imgs/D76.png","arrowleft","","[""materials/imgs/D76.png"",""materials/imgs/D78.png""]","","check","materials/imgs/D76.png","0","true"
"","","","","","html-keyboard-response","332","384214","0.0-17.0-2.4-0.8","n2e9lrvhzh","","n2e9lrvhzh","""2024-11-12T20:36:03.926Z""","null","+","null","","","","","","",""
"","","","","","image-keyboard-response","333","385648","0.0-17.0-2.4-1.8","n2e9lrvhzh","","n2e9lrvhzh","""2024-11-12T20:36:03.926Z""","1432","materials/imgs/D36.png","arrowright","","[""materials/imgs/D47.png"",""materials/imgs/D49.png""]","false","validation","","",""
"","","","","","html-keyboard-response","334","386149","0.0-17.0-2.4-0.9","n2e9lrvhzh","","n2e9lrvhzh","""2024-11-12T20:36:03.926Z""","null","+","null","","","","","","",""
"","","","","","image-keyboard-response","335","387631","0.0-17.0-2.4-1.9","n2e9lrvhzh","","n2e9lrvhzh","""2024-11-12T20:36:03.926Z""","1480","materials/imgs/D49.png","arrowright","","[""materials/imgs/D8.png"",""materials/imgs/D101.png""]","false","validation","","",""
"","","","","","html-button-response","336","390848","0.0-18.0","n2e9lrvhzh","","n2e9lrvhzh","""2024-11-12T20:36:03.926Z""","3215","You have completed 75% of the trials. Please click 'Continue' when you are ready proceed.","0","","","","","","",""
"","","","","","html-keyboard-response","337","391349","0.0-19.0-0.0-0.0","n2e9lrvhzh","","n2e9lrvhzh","""2024-11-12T20:36:03.926Z""","null","+","null","","","","","","",""
"","","","","","image-keyboard-response","338","392318","0.0-19.0-0.0-1.0","n2e9lrvhzh","","n2e9lrvhzh","""2024-11-12T20:36:03.926Z""","966","materials/imgs/D32.png","arrowleft","","[""materials/imgs/D55.png"",""materials/imgs/D8.png""]","false","random","","",""
"","","","","","html-keyboard-response","339","392819","0.0-19.0-0.0-0.1","n2e9lrvhzh","","n2e9lrvhzh","""2024-11-12T20:36:03.926Z""","null","+","null","","","","","","",""
"","","","","","image-keyboard-response","340","393687","0.0-19.0-0.0-1.1","n2e9lrvhzh","","n2e9lrvhzh","""2024-11-12T20:36:03.926Z""","866","materials/imgs/D17.png","arrowleft","","[""materials/imgs/D106.png"",""materials/imgs/D84.png""]","false","random","","",""
"","","","","","html-keyboard-response","341","394188","0.0-19.0-0.0-0.2","n2e9lrvhzh","","n2e9lrvhzh","""2024-11-12T20:36:03.926Z""","null","+","null","","","","","","",""
"","","","","","image-keyboard-response","342","394841","0.0-19.0-0.0-1.2","n2e9lrvhzh","","n2e9lrvhzh","""2024-11-12T20:36:03.926Z""","651","materials/imgs/D104.png","arrowleft","","[""materials/imgs/D17.png"",""materials/imgs/D49.png""]","false","random","","",""
"","","","","","html-keyboard-response","343","395343","0.0-19.0-0.0-0.3","n2e9lrvhzh","","n2e9lrvhzh","""2024-11-12T20:36:03.926Z""","null","+","null","","","","","","",""
"","","","","","image-keyboard-response","344","395850","0.0-19.0-0.0-1.3","n2e9lrvhzh","","n2e9lrvhzh","""2024-11-12T20:36:03.926Z""","505","materials/imgs/D36.png","arrowleft","","[""materials/imgs/D11.png"",""materials/imgs/D68.png""]","false","random","","",""
"","","","","","html-keyboard-response","345","396352","0.0-19.0-0.0-0.4","n2e9lrvhzh","","n2e9lrvhzh","""2024-11-12T20:36:03.926Z""","null","+","null","","","","","","",""
"","","","","","image-keyboard-response","346","396930","0.0-19.0-0.0-1.4","n2e9lrvhzh","","n2e9lrvhzh","""2024-11-12T20:36:03.926Z""","575","materials/imgs/D22.png","arrowright","","[""materials/imgs/D11.png"",""materials/imgs/D21.png""]","false","random","","",""
"","","","","","html-keyboard-response","347","397431","0.0-19.0-0.0-0.5","n2e9lrvhzh","","n2e9lrvhzh","""2024-11-12T20:36:03.926Z""","null","+","null","","","","","","",""
"","","","","","image-keyboard-response","348","398635","0.0-19.0-0.0-1.5","n2e9lrvhzh","","n2e9lrvhzh","""2024-11-12T20:36:03.926Z""","1203","materials/imgs/D56.png","arrowright","","[""materials/imgs/D19.png"",""materials/imgs/D16.png""]","false","random","","",""
"","","","","","html-keyboard-response","349","399136","0.0-19.0-0.0-0.6","n2e9lrvhzh","","n2e9lrvhzh","""2024-11-12T20:36:03.926Z""","null","+","null","","","","","","",""
"","","","","","image-keyboard-response","350","400049","0.0-19.0-0.0-1.6","n2e9lrvhzh","","n2e9lrvhzh","""2024-11-12T20:36:03.926Z""","911","materials/imgs/D101.png","arrowleft","","[""materials/imgs/D4.png"",""materials/imgs/D94.png""]","false","random","","",""
"","","","","","html-keyboard-response","351","400550","0.0-19.0-1.0-0.0","n2e9lrvhzh","","n2e9lrvhzh","""2024-11-12T20:36:03.926Z""","null","+","null","","","","","","",""
"","","","","","image-keyboard-response","352","401122","0.0-19.0-1.0-1.0","n2e9lrvhzh","","n2e9lrvhzh","""2024-11-12T20:36:03.926Z""","570","materials/imgs/D8.png","arrowright","","[""materials/imgs/D18.png"",""materials/imgs/D8.png""]","","check","materials/imgs/D8.png","1","true"
"","","","","","html-keyboard-response","353","401623","0.0-19.0-2.0-0.0","n2e9lrvhzh","","n2e9lrvhzh","""2024-11-12T20:36:03.926Z""","null","+","null","","","","","","",""
"","","","","","image-keyboard-response","354","403168","0.0-19.0-2.0-1.0","n2e9lrvhzh","","n2e9lrvhzh","""2024-11-12T20:36:03.926Z""","1543","materials/imgs/D95.png","arrowleft","","[""materials/imgs/D36.png"",""materials/imgs/D4.png""]","false","validation","","",""
"","","","","","html-keyboard-response","355","403670","0.0-19.0-2.0-0.1","n2e9lrvhzh","","n2e9lrvhzh","""2024-11-12T20:36:03.926Z""","null","+","null","","","","","","",""
"","","","","","image-keyboard-response","356","404368","0.0-19.0-2.0-1.1","n2e9lrvhzh","","n2e9lrvhzh","""2024-11-12T20:36:03.926Z""","696","materials/imgs/D6.png","arrowright","","[""materials/imgs/D26.png"",""materials/imgs/D76.png""]","false","validation","","",""
"","","","","","html-keyboard-response","357","404869","0.0-19.0-0.1-0.7","n2e9lrvhzh","","n2e9lrvhzh","""2024-11-12T20:36:03.926Z""","null","+","null","","","","","","",""
"","","","","","image-keyboard-response","358","405985","0.0-19.0-0.1-1.7","n2e9lrvhzh","","n2e9lrvhzh","""2024-11-12T20:36:03.926Z""","1114","materials/imgs/D3.png","arrowleft","","[""materials/imgs/D22.png"",""materials/imgs/D14.png""]","false","random","","",""
"","","","","","html-keyboard-response","359","406486","0.0-19.0-0.1-0.8","n2e9lrvhzh","","n2e9lrvhzh","""2024-11-12T20:36:03.926Z""","null","+","null","","","","","","",""
"","","","","","image-keyboard-response","360","407375","0.0-19.0-0.1-1.8","n2e9lrvhzh","","n2e9lrvhzh","""2024-11-12T20:36:03.926Z""","887","materials/imgs/D9.png","arrowright","","[""materials/imgs/D76.png"",""materials/imgs/D57.png""]","false","random","","",""
"","","","","","html-keyboard-response","361","407877","0.0-19.0-0.1-0.9","n2e9lrvhzh","","n2e9lrvhzh","""2024-11-12T20:36:03.926Z""","null","+","null","","","","","","",""
"","","","","","image-keyboard-response","362","408524","0.0-19.0-0.1-1.9","n2e9lrvhzh","","n2e9lrvhzh","""2024-11-12T20:36:03.926Z""","645","materials/imgs/D103.png","arrowright","","[""materials/imgs/D3.png"",""materials/imgs/D106.png""]","false","random","","",""
"","","","","","html-keyboard-response","363","409025","0.0-19.0-0.1-0.10","n2e9lrvhzh","","n2e9lrvhzh","""2024-11-12T20:36:03.926Z""","null","+","null","","","","","","",""
"","","","","","image-keyboard-response","364","409764","0.0-19.0-0.1-1.10","n2e9lrvhzh","","n2e9lrvhzh","""2024-11-12T20:36:03.926Z""","727","materials/imgs/D103.png","arrowleft","","[""materials/imgs/D95.png"",""materials/imgs/D83.png""]","false","random","","",""
"","","","","","html-keyboard-response","365","410265","0.0-19.0-0.1-0.11","n2e9lrvhzh","","n2e9lrvhzh","""2024-11-12T20:36:03.926Z""","null","+","null","","","","","","",""
"","","","","","image-keyboard-response","366","411143","0.0-19.0-0.1-1.11","n2e9lrvhzh","","n2e9lrvhzh","""2024-11-12T20:36:03.926Z""","875","materials/imgs/D18.png","arrowright","","[""materials/imgs/D14.png"",""materials/imgs/D32.png""]","false","random","","",""
"","","","","","html-keyboard-response","367","411644","0.0-19.0-0.1-0.12","n2e9lrvhzh","","n2e9lrvhzh","""2024-11-12T20:36:03.926Z""","null","+","null","","","","","","",""
"","","","","","image-keyboard-response","368","412486","0.0-19.0-0.1-1.12","n2e9lrvhzh","","n2e9lrvhzh","""2024-11-12T20:36:03.926Z""","840","materials/imgs/D21.png","arrowright","","[""materials/imgs/D68.png"",""materials/imgs/D36.png""]","false","random","","",""
"","","","","","html-keyboard-response","369","412987","0.0-19.0-0.1-0.13","n2e9lrvhzh","","n2e9lrvhzh","""2024-11-12T20:36:03.926Z""","null","+","null","","","","","","",""
"","","","","","image-keyboard-response","370","413835","0.0-19.0-0.1-1.13","n2e9lrvhzh","","n2e9lrvhzh","""2024-11-12T20:36:03.926Z""","846","materials/imgs/D20.png","arrowright","","[""materials/imgs/D48.png"",""materials/imgs/D53.png""]","false","random","","",""
"","","","","","html-keyboard-response","371","414336","0.0-19.0-1.1-0.1","n2e9lrvhzh","","n2e9lrvhzh","""2024-11-12T20:36:03.926Z""","null","+","null","","","","","","",""
"","","","","","image-keyboard-response","372","415294","0.0-19.0-1.1-1.1","n2e9lrvhzh","","n2e9lrvhzh","""2024-11-12T20:36:03.926Z""","956","materials/imgs/D78.png","arrowright","","[""materials/imgs/D76.png"",""materials/imgs/D78.png""]","","check","materials/imgs/D78.png","1","true"
"","","","","","html-keyboard-response","373","415796","0.0-19.0-2.1-0.2","n2e9lrvhzh","","n2e9lrvhzh","""2024-11-12T20:36:03.926Z""","null","+","null","","","","","","",""
"","","","","","image-keyboard-response","374","417463","0.0-19.0-2.1-1.2","n2e9lrvhzh","","n2e9lrvhzh","""2024-11-12T20:36:03.926Z""","1666","materials/imgs/D64.png","arrowleft","","[""materials/imgs/D6.png"",""materials/imgs/D81.png""]","false","validation","","",""
"","","","","","html-keyboard-response","375","417965","0.0-19.0-2.1-0.3","n2e9lrvhzh","","n2e9lrvhzh","""2024-11-12T20:36:03.926Z""","null","+","null","","","","","","",""
"","","","","","image-keyboard-response","376","418748","0.0-19.0-2.1-1.3","n2e9lrvhzh","","n2e9lrvhzh","""2024-11-12T20:36:03.926Z""","781","materials/imgs/D6.png","arrowright","","[""materials/imgs/D26.png"",""materials/imgs/D76.png""]","false","validation","","",""
"","","","","","html-keyboard-response","377","419250","0.0-19.0-0.2-0.14","n2e9lrvhzh","","n2e9lrvhzh","""2024-11-12T20:36:03.926Z""","null","+","null","","","","","","",""
"","","","","","image-keyboard-response","378","419895","0.0-19.0-0.2-1.14","n2e9lrvhzh","","n2e9lrvhzh","""2024-11-12T20:36:03.926Z""","642","materials/imgs/D56.png","arrowleft","","[""materials/imgs/D111.png"",""materials/imgs/D79.png""]","false","random","","",""
"","","","","","html-keyboard-response","379","420396","0.0-19.0-0.2-0.15","n2e9lrvhzh","","n2e9lrvhzh","""2024-11-12T20:36:03.926Z""","null","+","null","","","","","","",""
"","","","","","image-keyboard-response","380","420793","0.0-19.0-0.2-1.15","n2e9lrvhzh","","n2e9lrvhzh","""2024-11-12T20:36:03.926Z""","394","materials/imgs/D84.png","arrowleft","","[""materials/imgs/D104.png"",""materials/imgs/D20.png""]","true","random","","",""
"","","","","","html-keyboard-response","381","423470","0.0-19.0-0.2-2.15-0.15","n2e9lrvhzh","","n2e9lrvhzh","""2024-11-12T20:36:03.926Z""","2676","<p><strong>You're going too fast.</strong><p>Please slow down and assess each triplet.<p>Press 'y' to continue.</p></p>","y","","","","","","",""
"","","","","","html-keyboard-response","382","423971","0.0-19.0-0.2-0.16","n2e9lrvhzh","","n2e9lrvhzh","""2024-11-12T20:36:03.926Z""","null","+","null","","","","","","",""
"","","","","","image-keyboard-response","383","424159","0.0-19.0-0.2-1.16","n2e9lrvhzh","","n2e9lrvhzh","""2024-11-12T20:36:03.926Z""","187","materials/imgs/D36.png","arrowleft","","[""materials/imgs/D14.png"",""materials/imgs/D75.png""]","true","random","","",""
"","","","","","html-keyboard-response","384","425319","0.0-19.0-0.2-2.16-0.16","n2e9lrvhzh","","n2e9lrvhzh","""2024-11-12T20:36:03.926Z""","1158","<p><strong>You're going too fast.</strong><p>Please slow down and assess each triplet.<p>Press 'y' to continue.</p></p>","y","","","","","","",""
"","","","","","html-keyboard-response","385","425820","0.0-19.0-0.2-0.17","n2e9lrvhzh","","n2e9lrvhzh","""2024-11-12T20:36:03.926Z""","null","+","null","","","","","","",""
"","","","","","image-keyboard-response","386","427113","0.0-19.0-0.2-1.17","n2e9lrvhzh","","n2e9lrvhzh","""2024-11-12T20:36:03.926Z""","1291","materials/imgs/D96.png","arrowleft","","[""materials/imgs/D82.png"",""materials/imgs/D4.png""]","false","random","","",""
"","","","","","html-keyboard-response","387","427614","0.0-19.0-0.2-0.18","n2e9lrvhzh","","n2e9lrvhzh","""2024-11-12T20:36:03.926Z""","null","+","null","","","","","","",""
"","","","","","image-keyboard-response","388","428294","0.0-19.0-0.2-1.18","n2e9lrvhzh","","n2e9lrvhzh","""2024-11-12T20:36:03.926Z""","677","materials/imgs/D87.png","arrowleft","","[""materials/imgs/D24.png"",""materials/imgs/D22.png""]","false","random","","",""
"","","","","","html-keyboard-response","389","428795","0.0-19.0-0.2-0.19","n2e9lrvhzh","","n2e9lrvhzh","""2024-11-12T20:36:03.926Z""","null","+","null","","","","","","",""
"","","","","","image-keyboard-response","390","429707","0.0-19.0-0.2-1.19","n2e9lrvhzh","","n2e9lrvhzh","""2024-11-12T20:36:03.926Z""","911","materials/imgs/D92.png","arrowleft","","[""materials/imgs/D22.png"",""materials/imgs/D66.png""]","false","random","","",""
"","","","","","html-keyboard-response","391","430208","0.0-19.0-0.2-0.20","n2e9lrvhzh","","n2e9lrvhzh","""2024-11-12T20:36:03.926Z""","null","+","null","","","","","","",""
"","","","","","image-keyboard-response","392","431246","0.0-19.0-0.2-1.20","n2e9lrvhzh","","n2e9lrvhzh","""2024-11-12T20:36:03.926Z""","1035","materials/imgs/D16.png","arrowright","","[""materials/imgs/D83.png"",""materials/imgs/D84.png""]","false","random","","",""
"","","","","","html-keyboard-response","393","431747","0.0-19.0-1.2-0.2","n2e9lrvhzh","","n2e9lrvhzh","""2024-11-12T20:36:03.926Z""","null","+","null","","","","","","",""
"","","","","","image-keyboard-response","394","432765","0.0-19.0-1.2-1.2","n2e9lrvhzh","","n2e9lrvhzh","""2024-11-12T20:36:03.926Z""","1016","materials/imgs/D18.png","arrowright","","[""materials/imgs/D8.png"",""materials/imgs/D18.png""]","","check","materials/imgs/D18.png","1","true"
"","","","","","html-keyboard-response","395","433267","0.0-19.0-2.2-0.4","n2e9lrvhzh","","n2e9lrvhzh","""2024-11-12T20:36:03.926Z""","null","+","null","","","","","","",""
"","","","","","image-keyboard-response","396","434155","0.0-19.0-2.2-1.4","n2e9lrvhzh","","n2e9lrvhzh","""2024-11-12T20:36:03.926Z""","886","materials/imgs/D105.png","arrowleft","","[""materials/imgs/D106.png"",""materials/imgs/D52.png""]","false","validation","","",""
"","","","","","html-keyboard-response","397","434655","0.0-19.0-2.2-0.5","n2e9lrvhzh","","n2e9lrvhzh","""2024-11-12T20:36:03.926Z""","null","+","null","","","","","","",""
"","","","","","image-keyboard-response","398","437280","0.0-19.0-2.2-1.5","n2e9lrvhzh","","n2e9lrvhzh","""2024-11-12T20:36:03.926Z""","2623","materials/imgs/D68.png","arrowright","","[""materials/imgs/D96.png"",""materials/imgs/D48.png""]","false","validation","","",""
"","","","","","html-keyboard-response","399","437781","0.0-19.0-0.3-0.21","n2e9lrvhzh","","n2e9lrvhzh","""2024-11-12T20:36:03.926Z""","null","+","null","","","","","","",""
"","","","","","image-keyboard-response","400","440189","0.0-19.0-0.3-1.21","n2e9lrvhzh","","n2e9lrvhzh","""2024-11-12T20:36:03.926Z""","2406","materials/imgs/D83.png","arrowright","","[""materials/imgs/D49.png"",""materials/imgs/D46.png""]","false","random","","",""
"","","","","","html-keyboard-response","401","440690","0.0-19.0-0.3-0.22","n2e9lrvhzh","","n2e9lrvhzh","""2024-11-12T20:36:03.926Z""","null","+","null","","","","","","",""
"","","","","","image-keyboard-response","402","443169","0.0-19.0-0.3-1.22","n2e9lrvhzh","","n2e9lrvhzh","""2024-11-12T20:36:03.926Z""","2476","materials/imgs/D52.png","arrowleft","","[""materials/imgs/D57.png"",""materials/imgs/D4.png""]","false","random","","",""
"","","","","","html-keyboard-response","403","443671","0.0-19.0-0.3-0.23","n2e9lrvhzh","","n2e9lrvhzh","""2024-11-12T20:36:03.926Z""","null","+","null","","","","","","",""
"","","","","","image-keyboard-response","404","444789","0.0-19.0-0.3-1.23","n2e9lrvhzh","","n2e9lrvhzh","""2024-11-12T20:36:03.926Z""","1116","materials/imgs/D64.png","arrowright","","[""materials/imgs/D4.png"",""materials/imgs/D11.png""]","false","random","","",""
"","","","","","html-keyboard-response","405","445290","0.0-19.0-0.3-0.24","n2e9lrvhzh","","n2e9lrvhzh","""2024-11-12T20:36:03.926Z""","null","+","null","","","","","","",""
"","","","","","image-keyboard-response","406","447567","0.0-19.0-0.3-1.24","n2e9lrvhzh","","n2e9lrvhzh","""2024-11-12T20:36:03.926Z""","2275","materials/imgs/D83.png","arrowright","","[""materials/imgs/D35.png"",""materials/imgs/D9.png""]","false","random","","",""
"","","","","","html-keyboard-response","407","448068","0.0-19.0-0.3-0.25","n2e9lrvhzh","","n2e9lrvhzh","""2024-11-12T20:36:03.926Z""","null","+","null","","","","","","",""
"","","","","","image-keyboard-response","408","449198","0.0-19.0-0.3-1.25","n2e9lrvhzh","","n2e9lrvhzh","""2024-11-12T20:36:03.926Z""","1128","materials/imgs/D103.png","arrowright","","[""materials/imgs/D14.png"",""materials/imgs/D17.png""]","false","random","","",""
"","","","","","html-keyboard-response","409","449700","0.0-19.0-0.3-0.26","n2e9lrvhzh","","n2e9lrvhzh","""2024-11-12T20:36:03.926Z""","null","+","null","","","","","","",""
"","","","","","image-keyboard-response","410","452395","0.0-19.0-0.3-1.26","n2e9lrvhzh","","n2e9lrvhzh","""2024-11-12T20:36:03.926Z""","2693","materials/imgs/D95.png","arrowright","","[""materials/imgs/D35.png"",""materials/imgs/D104.png""]","false","random","","",""
"","","","","","html-keyboard-response","411","452896","0.0-19.0-0.3-0.27","n2e9lrvhzh","","n2e9lrvhzh","""2024-11-12T20:36:03.926Z""","null","+","null","","","","","","",""
"","","","","","image-keyboard-response","412","453415","0.0-19.0-0.3-1.27","n2e9lrvhzh","","n2e9lrvhzh","""2024-11-12T20:36:03.926Z""","516","materials/imgs/D3.png","arrowright","","[""materials/imgs/D1.png"",""materials/imgs/D16.png""]","false","random","","",""
"","","","","","html-keyboard-response","413","453917","0.0-19.0-1.3-0.3","n2e9lrvhzh","","n2e9lrvhzh","""2024-11-12T20:36:03.926Z""","null","+","null","","","","","","",""
"","","","","","image-keyboard-response","414","454643","0.0-19.0-1.3-1.3","n2e9lrvhzh","","n2e9lrvhzh","""2024-11-12T20:36:03.926Z""","725","materials/imgs/D76.png","arrowleft","","[""materials/imgs/D76.png"",""materials/imgs/D78.png""]","","check","materials/imgs/D76.png","0","true"
"","","","","","html-keyboard-response","415","455145","0.0-19.0-2.3-0.6","n2e9lrvhzh","","n2e9lrvhzh","""2024-11-12T20:36:03.926Z""","null","+","null","","","","","","",""
"","","","","","image-keyboard-response","416","456006","0.0-19.0-2.3-1.6","n2e9lrvhzh","","n2e9lrvhzh","""2024-11-12T20:36:03.926Z""","859","materials/imgs/D85.png","arrowright","","[""materials/imgs/D6.png"",""materials/imgs/D111.png""]","false","validation","","",""
"","","","","","html-keyboard-response","417","456508","0.0-19.0-2.3-0.7","n2e9lrvhzh","","n2e9lrvhzh","""2024-11-12T20:36:03.926Z""","null","+","null","","","","","","",""
"","","","","","image-keyboard-response","418","458213","0.0-19.0-2.3-1.7","n2e9lrvhzh","","n2e9lrvhzh","""2024-11-12T20:36:03.926Z""","1703","materials/imgs/D25.png","arrowleft","","[""materials/imgs/D103.png"",""materials/imgs/D64.png""]","false","validation","","",""
"","","","","","html-keyboard-response","419","458714","0.0-19.0-0.4-0.28","n2e9lrvhzh","","n2e9lrvhzh","""2024-11-12T20:36:03.926Z""","null","+","null","","","","","","",""
"","","","","","image-keyboard-response","420","459451","0.0-19.0-0.4-1.28","n2e9lrvhzh","","n2e9lrvhzh","""2024-11-12T20:36:03.926Z""","735","materials/imgs/D65.png","arrowright","","[""materials/imgs/D21.png"",""materials/imgs/D49.png""]","false","random","","",""
"","","","","","html-keyboard-response","421","459953","0.0-19.0-0.4-0.29","n2e9lrvhzh","","n2e9lrvhzh","""2024-11-12T20:36:03.926Z""","null","+","null","","","","","","",""
"","","","","","image-keyboard-response","422","460899","0.0-19.0-0.4-1.29","n2e9lrvhzh","","n2e9lrvhzh","""2024-11-12T20:36:03.926Z""","944","materials/imgs/D64.png","arrowleft","","[""materials/imgs/D65.png"",""materials/imgs/D24.png""]","false","random","","",""
"","","","","","html-keyboard-response","423","461400","0.0-19.0-0.4-0.30","n2e9lrvhzh","","n2e9lrvhzh","""2024-11-12T20:36:03.926Z""","null","+","null","","","","","","",""
"","","","","","image-keyboard-response","424","462279","0.0-19.0-0.4-1.30","n2e9lrvhzh","","n2e9lrvhzh","""2024-11-12T20:36:03.926Z""","876","materials/imgs/D79.png","arrowright","","[""materials/imgs/D94.png"",""materials/imgs/D84.png""]","false","random","","",""
"","","","","","html-keyboard-response","425","462780","0.0-19.0-0.4-0.31","n2e9lrvhzh","","n2e9lrvhzh","""2024-11-12T20:36:03.926Z""","null","+","null","","","","","","",""
"","","","","","image-keyboard-response","426","463611","0.0-19.0-0.4-1.31","n2e9lrvhzh","","n2e9lrvhzh","""2024-11-12T20:36:03.926Z""","829","materials/imgs/D8.png","arrowright","","[""materials/imgs/D49.png"",""materials/imgs/D66.png""]","false","random","","",""
"","","","","","html-keyboard-response","427","464112","0.0-19.0-0.4-0.32","n2e9lrvhzh","","n2e9lrvhzh","""2024-11-12T20:36:03.926Z""","null","+","null","","","","","","",""
"","","","","","image-keyboard-response","428","464824","0.0-19.0-0.4-1.32","n2e9lrvhzh","","n2e9lrvhzh","""2024-11-12T20:36:03.926Z""","710","materials/imgs/D11.png","arrowright","","[""materials/imgs/D25.png"",""materials/imgs/D75.png""]","false","random","","",""
"","","","","","html-keyboard-response","429","465325","0.0-19.0-0.4-0.33","n2e9lrvhzh","","n2e9lrvhzh","""2024-11-12T20:36:03.926Z""","null","+","null","","","","","","",""
"","","","","","image-keyboard-response","430","466197","0.0-19.0-0.4-1.33","n2e9lrvhzh","","n2e9lrvhzh","""2024-11-12T20:36:03.926Z""","870","materials/imgs/D76.png","arrowleft","","[""materials/imgs/D51.png"",""materials/imgs/D84.png""]","false","random","","",""
"","","","","","html-keyboard-response","431","466699","0.0-19.0-0.4-0.34","n2e9lrvhzh","","n2e9lrvhzh","""2024-11-12T20:36:03.926Z""","null","+","null","","","","","","",""
"","","","","","image-keyboard-response","432","467945","0.0-19.0-0.4-1.34","n2e9lrvhzh","","n2e9lrvhzh","""2024-11-12T20:36:03.926Z""","1244","materials/imgs/D47.png","arrowleft","","[""materials/imgs/D18.png"",""materials/imgs/D51.png""]","false","random","","",""
"","","","","","html-keyboard-response","433","468446","0.0-19.0-1.4-0.4","n2e9lrvhzh","","n2e9lrvhzh","""2024-11-12T20:36:03.926Z""","null","+","null","","","","","","",""
"","","","","","image-keyboard-response","434","469360","0.0-19.0-1.4-1.4","n2e9lrvhzh","","n2e9lrvhzh","""2024-11-12T20:36:03.926Z""","912","materials/imgs/D26.png","arrowleft","","[""materials/imgs/D26.png"",""materials/imgs/D46.png""]","","check","materials/imgs/D26.png","0","true"
"","","","","","html-keyboard-response","435","469861","0.0-19.0-2.4-0.8","n2e9lrvhzh","","n2e9lrvhzh","""2024-11-12T20:36:03.926Z""","null","+","null","","","","","","",""
"","","","","","image-keyboard-response","436","470972","0.0-19.0-2.4-1.8","n2e9lrvhzh","","n2e9lrvhzh","""2024-11-12T20:36:03.926Z""","1109","materials/imgs/D18.png","arrowright","","[""materials/imgs/D32.png"",""materials/imgs/D57.png""]","false","validation","","",""
"","","","","","html-keyboard-response","437","471473","0.0-19.0-2.4-0.9","n2e9lrvhzh","","n2e9lrvhzh","""2024-11-12T20:36:03.926Z""","null","+","null","","","","","","",""
"","","","","","image-keyboard-response","438","472406","0.0-19.0-2.4-1.9","n2e9lrvhzh","","n2e9lrvhzh","""2024-11-12T20:36:03.926Z""","931","materials/imgs/D8.png","arrowleft","","[""materials/imgs/D101.png"",""materials/imgs/D52.png""]","false","validation","","",""
