"success","timeout","failed_images","failed_audio","failed_video","trial_type","trial_index","time_elapsed","internal_node_id","subject_id","sona_id","subjectID","dateInfo","rt","stimulus","response","question_order","choices","speedy","sampleAlg","selected_image","selected_index","correct"
"true","false","[]","[]","[]","preload","0","326","0.0-0.0","n2poat8str","","n2poat8str","""2024-11-12T18:31:17.302Z""","","","","","","","","","",""
"true","","","","","fullscreen","1","3598","0.0-1.0","n2poat8str","","n2poat8str","""2024-11-12T18:31:17.302Z""","","","","","","","","","",""
"","","","","","html-keyboard-response","2","3610","0.0-2.0","n2poat8str","","n2poat8str","""2024-11-12T18:31:17.302Z""","null","","null","","","","","","",""
"","","","","","html-button-response","3","5746","0.0-3.0","n2poat8str","","n2poat8str","""2024-11-12T18:31:17.302Z""","2134","<div style='text-align:center; font-size:20px; line-height:25px; width: 1200px;'>
                Welcome to our experiment! <br>
                <br>At the bottom of this screen, you will see a button that says 'Begin Experiment.
                <br>Please only click that button when you are ready to complete the 25 minute experiment in one sitting. <br>
                <br> Once you click that button, it will not be possible to restart the experiment. <br><br>","0","","","","","","",""
"true","","","","","fullscreen","4","7567","0.0-4.0","n2poat8str","","n2poat8str","""2024-11-12T18:31:17.302Z""","","","","","","","","","",""
"","","","","","survey-multi-select","5","32464","0.0-5.0","n2poat8str","","n2poat8str","""2024-11-12T18:31:17.302Z""","24892","","{""Consent"":[""<strong>I consent</strong>""]}","[0]","","","","","",""
"","","","","","html-button-response","6","34698","0.0-6.0","n2poat8str","","n2poat8str","""2024-11-12T18:31:17.302Z""","2231","Welcome! <p> This experiment involves two parts: demographic information, followed by the experimental task.<p> It will take about 25 minutes to complete both parts.","0","","","","","","",""
"","","","","","survey-text","7","46897","0.0-7.0","n2poat8str","","n2poat8str","""2024-11-12T18:31:17.302Z""","12197","","{""Age"":""21"",""Gender"":""Female"",""Race/ethnicity"":""White""}","","","","","","",""
"","","","","","html-button-response","8","64746","0.0-8.0","n2poat8str","","n2poat8str","""2024-11-12T18:31:17.302Z""","17849","<div style='text-align: center;'>
      <p>In each trial of this task, you will see three texture images: one target item on top, and two choices beneath the target item.</p>
      <p><strong>Please select the item that is most like the target item.</strong></p>
      <p>To select the option on the <strong>LEFT</strong>, press the <strong>LEFT ARROW</strong> key. 
      To select the option on the <strong>RIGHT</strong>, press the <strong>RIGHT ARROW</strong> key.</p>
                  <!-- Target Image at the Top -->
      <div style='margin: 20px;'>
        <img src='materials/imgs/instruction_images/InstructionImg1D78.png' alt='Target Image' style='width:200px; height:auto;' />
        <p><em>Target Image</em></p>
      </div>

      <!-- Two Choice Images Below -->
      <div style='display: flex; justify-content: center;'>
        <div style='margin-right: 50px;'>
          <img src='materials/imgs/instruction_images/InstructionImg2D34.png' alt='Choice Image 1' style='width:150px; height:auto;' />
          <p><em><strong>LEFT ARROW</strong></em></p>
        </div>
        <div style='margin-left: 50px;'>
          <img src='materials/imgs/instruction_images/InstructionImg3D80.png' alt='Choice Image 2' style='width:150px; height:auto;' />
          <p><em><strong>RIGHT ARROW</strong></em></p>
        </div>
      </div>
    </div>

      <p>When you are ready to proceed, please click 'Continue' to begin practice.</p>","0","","","","","","",""
"","","","","","html-keyboard-response","9","67250","0.0-9.0","n2poat8str","","n2poat8str","""2024-11-12T18:31:17.302Z""","null","+","null","","","","","","",""
"","","","","","html-keyboard-response","10","67752","0.0-10.0-0.0-0.0","n2poat8str","","n2poat8str","""2024-11-12T18:31:17.302Z""","null","+","null","","","","","","",""
"","","","","","image-keyboard-response","11","70614","0.0-10.0-0.0-1.0","n2poat8str","","n2poat8str","""2024-11-12T18:31:17.302Z""","2859","materials/imgs/D35.png","arrowleft","","[""materials/imgs/D84.png"",""materials/imgs/D95.png""]","false","random","","",""
"","","","","","html-keyboard-response","12","71117","0.0-10.0-0.0-0.1","n2poat8str","","n2poat8str","""2024-11-12T18:31:17.302Z""","null","+","null","","","","","","",""
"","","","","","image-keyboard-response","13","72348","0.0-10.0-0.0-1.1","n2poat8str","","n2poat8str","""2024-11-12T18:31:17.302Z""","1229","materials/imgs/D111.png","arrowright","","[""materials/imgs/D25.png"",""materials/imgs/D18.png""]","false","random","","",""
"","","","","","html-keyboard-response","14","72850","0.0-10.0-0.0-0.2","n2poat8str","","n2poat8str","""2024-11-12T18:31:17.302Z""","null","+","null","","","","","","",""
"","","","","","image-keyboard-response","15","73901","0.0-10.0-0.0-1.2","n2poat8str","","n2poat8str","""2024-11-12T18:31:17.302Z""","1048","materials/imgs/D17.png","arrowleft","","[""materials/imgs/D79.png"",""materials/imgs/D68.png""]","false","random","","",""
"","","","","","html-keyboard-response","16","74403","0.0-10.0-0.0-0.3","n2poat8str","","n2poat8str","""2024-11-12T18:31:17.302Z""","null","+","null","","","","","","",""
"","","","","","image-keyboard-response","17","75490","0.0-10.0-0.0-1.3","n2poat8str","","n2poat8str","""2024-11-12T18:31:17.302Z""","1085","materials/imgs/D48.png","arrowright","","[""materials/imgs/D83.png"",""materials/imgs/D1.png""]","false","random","","",""
"","","","","","html-keyboard-response","18","75991","0.0-10.0-0.0-0.4","n2poat8str","","n2poat8str","""2024-11-12T18:31:17.302Z""","null","+","null","","","","","","",""
"","","","","","image-keyboard-response","19","77054","0.0-10.0-0.0-1.4","n2poat8str","","n2poat8str","""2024-11-12T18:31:17.302Z""","1060","materials/imgs/D94.png","arrowleft","","[""materials/imgs/D8.png"",""materials/imgs/D32.png""]","false","random","","",""
"","","","","","html-keyboard-response","20","77555","0.0-10.0-0.0-0.5","n2poat8str","","n2poat8str","""2024-11-12T18:31:17.302Z""","null","+","null","","","","","","",""
"","","","","","image-keyboard-response","21","78471","0.0-10.0-0.0-1.5","n2poat8str","","n2poat8str","""2024-11-12T18:31:17.302Z""","914","materials/imgs/D82.png","arrowright","","[""materials/imgs/D51.png"",""materials/imgs/D53.png""]","false","random","","",""
"","","","","","html-keyboard-response","22","78972","0.0-10.0-0.0-0.6","n2poat8str","","n2poat8str","""2024-11-12T18:31:17.302Z""","null","+","null","","","","","","",""
"","","","","","image-keyboard-response","23","81115","0.0-10.0-0.0-1.6","n2poat8str","","n2poat8str","""2024-11-12T18:31:17.302Z""","2140","materials/imgs/D25.png","arrowleft","","[""materials/imgs/D111.png"",""materials/imgs/D75.png""]","false","random","","",""
"","","","","","html-keyboard-response","24","81617","0.0-10.0-0.0-0.7","n2poat8str","","n2poat8str","""2024-11-12T18:31:17.302Z""","null","+","null","","","","","","",""
"","","","","","image-keyboard-response","25","83126","0.0-10.0-0.0-1.7","n2poat8str","","n2poat8str","""2024-11-12T18:31:17.302Z""","1506","materials/imgs/D11.png","arrowleft","","[""materials/imgs/D19.png"",""materials/imgs/D95.png""]","false","random","","",""
"","","","","","html-keyboard-response","26","83627","0.0-10.0-0.0-0.8","n2poat8str","","n2poat8str","""2024-11-12T18:31:17.302Z""","null","+","null","","","","","","",""
"","","","","","image-keyboard-response","27","85177","0.0-10.0-0.0-1.8","n2poat8str","","n2poat8str","""2024-11-12T18:31:17.302Z""","1547","materials/imgs/D57.png","arrowleft","","[""materials/imgs/D4.png"",""materials/imgs/D55.png""]","false","random","","",""
"","","","","","html-keyboard-response","28","85678","0.0-10.0-0.0-0.9","n2poat8str","","n2poat8str","""2024-11-12T18:31:17.302Z""","null","+","null","","","","","","",""
"","","","","","image-keyboard-response","29","88269","0.0-10.0-0.0-1.9","n2poat8str","","n2poat8str","""2024-11-12T18:31:17.302Z""","2589","materials/imgs/D57.png","arrowleft","","[""materials/imgs/D77.png"",""materials/imgs/D53.png""]","false","random","","",""
"","","","","","html-button-response","30","93413","0.0-11.0","n2poat8str","","n2poat8str","""2024-11-12T18:31:17.302Z""","5143","<p>Great job!</p>
      <p>You are now ready to begin the experiment.</p>
      <p>There will be around 200 trials. You will have opportunities to take breaks at three stages of the trials.</p>
      <p>When you are ready to begin please click 'Continue'.</p>","0","","","","","","",""
"","","","","","html-keyboard-response","31","95917","0.0-12.0","n2poat8str","","n2poat8str","""2024-11-12T18:31:17.302Z""","null","+","null","","","","","","",""
"","","","","","html-keyboard-response","32","96418","0.0-13.0-0.0-0.0","n2poat8str","","n2poat8str","""2024-11-12T18:31:17.302Z""","null","+","null","","","","","","",""
"","","","","","image-keyboard-response","33","97655","0.0-13.0-0.0-1.0","n2poat8str","","n2poat8str","""2024-11-12T18:31:17.302Z""","1234","materials/imgs/D78.png","arrowright","","[""materials/imgs/D1.png"",""materials/imgs/D68.png""]","false","random","","",""
"","","","","","html-keyboard-response","34","98156","0.0-13.0-0.0-0.1","n2poat8str","","n2poat8str","""2024-11-12T18:31:17.302Z""","null","+","null","","","","","","",""
"","","","","","image-keyboard-response","35","100483","0.0-13.0-0.0-1.1","n2poat8str","","n2poat8str","""2024-11-12T18:31:17.302Z""","2324","materials/imgs/D96.png","arrowleft","","[""materials/imgs/D56.png"",""materials/imgs/D19.png""]","false","random","","",""
"","","","","","html-keyboard-response","36","100983","0.0-13.0-0.0-0.2","n2poat8str","","n2poat8str","""2024-11-12T18:31:17.302Z""","null","+","null","","","","","","",""
"","","","","","image-keyboard-response","37","101778","0.0-13.0-0.0-1.2","n2poat8str","","n2poat8str","""2024-11-12T18:31:17.302Z""","792","materials/imgs/D36.png","arrowleft","","[""materials/imgs/D57.png"",""materials/imgs/D34.png""]","false","random","","",""
"","","","","","html-keyboard-response","38","102279","0.0-13.0-0.0-0.3","n2poat8str","","n2poat8str","""2024-11-12T18:31:17.302Z""","null","+","null","","","","","","",""
"","","","","","image-keyboard-response","39","103840","0.0-13.0-0.0-1.3","n2poat8str","","n2poat8str","""2024-11-12T18:31:17.302Z""","1558","materials/imgs/D46.png","arrowright","","[""materials/imgs/D35.png"",""materials/imgs/D94.png""]","false","random","","",""
"","","","","","html-keyboard-response","40","104341","0.0-13.0-0.0-0.4","n2poat8str","","n2poat8str","""2024-11-12T18:31:17.302Z""","null","+","null","","","","","","",""
"","","","","","image-keyboard-response","41","106358","0.0-13.0-0.0-1.4","n2poat8str","","n2poat8str","""2024-11-12T18:31:17.302Z""","2015","materials/imgs/D104.png","arrowleft","","[""materials/imgs/D19.png"",""materials/imgs/D96.png""]","false","random","","",""
"","","","","","html-keyboard-response","42","106859","0.0-13.0-0.0-0.5","n2poat8str","","n2poat8str","""2024-11-12T18:31:17.302Z""","null","+","null","","","","","","",""
"","","","","","image-keyboard-response","43","108032","0.0-13.0-0.0-1.5","n2poat8str","","n2poat8str","""2024-11-12T18:31:17.302Z""","1171","materials/imgs/D78.png","arrowright","","[""materials/imgs/D57.png"",""materials/imgs/D55.png""]","false","random","","",""
"","","","","","html-keyboard-response","44","108534","0.0-13.0-0.0-0.6","n2poat8str","","n2poat8str","""2024-11-12T18:31:17.302Z""","null","+","null","","","","","","",""
"","","","","","image-keyboard-response","45","110079","0.0-13.0-0.0-1.6","n2poat8str","","n2poat8str","""2024-11-12T18:31:17.302Z""","1542","materials/imgs/D104.png","arrowleft","","[""materials/imgs/D95.png"",""materials/imgs/D11.png""]","false","random","","",""
"","","","","","html-keyboard-response","46","110580","0.0-13.0-1.0-0.0","n2poat8str","","n2poat8str","""2024-11-12T18:31:17.302Z""","null","+","null","","","","","","",""
"","","","","","image-keyboard-response","47","111286","0.0-13.0-1.0-1.0","n2poat8str","","n2poat8str","""2024-11-12T18:31:17.302Z""","703","materials/imgs/D26.png","arrowleft","","[""materials/imgs/D26.png"",""materials/imgs/D46.png""]","","check","materials/imgs/D26.png","0","true"
"","","","","","html-keyboard-response","48","111787","0.0-13.0-2.0-0.0","n2poat8str","","n2poat8str","""2024-11-12T18:31:17.302Z""","null","+","null","","","","","","",""
"","","","","","image-keyboard-response","49","113006","0.0-13.0-2.0-1.0","n2poat8str","","n2poat8str","""2024-11-12T18:31:17.302Z""","1216","materials/imgs/D19.png","arrowleft","","[""materials/imgs/D111.png"",""materials/imgs/D56.png""]","false","validation","","",""
"","","","","","html-keyboard-response","50","113507","0.0-13.0-2.0-0.1","n2poat8str","","n2poat8str","""2024-11-12T18:31:17.302Z""","null","+","null","","","","","","",""
"","","","","","image-keyboard-response","51","114816","0.0-13.0-2.0-1.1","n2poat8str","","n2poat8str","""2024-11-12T18:31:17.302Z""","1306","materials/imgs/D96.png","arrowleft","","[""materials/imgs/D46.png"",""materials/imgs/D18.png""]","false","validation","","",""
"","","","","","html-keyboard-response","52","115318","0.0-13.0-0.1-0.7","n2poat8str","","n2poat8str","""2024-11-12T18:31:17.302Z""","null","+","null","","","","","","",""
"","","","","","image-keyboard-response","53","117101","0.0-13.0-0.1-1.7","n2poat8str","","n2poat8str","""2024-11-12T18:31:17.302Z""","1781","materials/imgs/D92.png","arrowright","","[""materials/imgs/D74.png"",""materials/imgs/D18.png""]","false","random","","",""
"","","","","","html-keyboard-response","54","117603","0.0-13.0-0.1-0.8","n2poat8str","","n2poat8str","""2024-11-12T18:31:17.302Z""","null","+","null","","","","","","",""
"","","","","","image-keyboard-response","55","118658","0.0-13.0-0.1-1.8","n2poat8str","","n2poat8str","""2024-11-12T18:31:17.302Z""","1052","materials/imgs/D3.png","arrowleft","","[""materials/imgs/D24.png"",""materials/imgs/D87.png""]","false","random","","",""
"","","","","","html-keyboard-response","56","119160","0.0-13.0-0.1-0.9","n2poat8str","","n2poat8str","""2024-11-12T18:31:17.302Z""","null","+","null","","","","","","",""
"","","","","","image-keyboard-response","57","120774","0.0-13.0-0.1-1.9","n2poat8str","","n2poat8str","""2024-11-12T18:31:17.302Z""","1612","materials/imgs/D75.png","arrowleft","","[""materials/imgs/D36.png"",""materials/imgs/D53.png""]","false","random","","",""
"","","","","","html-keyboard-response","58","121275","0.0-13.0-0.1-0.10","n2poat8str","","n2poat8str","""2024-11-12T18:31:17.302Z""","null","+","null","","","","","","",""
"","","","","","image-keyboard-response","59","122623","0.0-13.0-0.1-1.10","n2poat8str","","n2poat8str","""2024-11-12T18:31:17.302Z""","1345","materials/imgs/D57.png","arrowright","","[""materials/imgs/D20.png"",""materials/imgs/D104.png""]","false","random","","",""
"","","","","","html-keyboard-response","60","123124","0.0-13.0-0.1-0.11","n2poat8str","","n2poat8str","""2024-11-12T18:31:17.302Z""","null","+","null","","","","","","",""
"","","","","","image-keyboard-response","61","124807","0.0-13.0-0.1-1.11","n2poat8str","","n2poat8str","""2024-11-12T18:31:17.302Z""","1681","materials/imgs/D80.png","arrowleft","","[""materials/imgs/D82.png"",""materials/imgs/D25.png""]","false","random","","",""
"","","","","","html-keyboard-response","62","125308","0.0-13.0-0.1-0.12","n2poat8str","","n2poat8str","""2024-11-12T18:31:17.302Z""","null","+","null","","","","","","",""
"","","","","","image-keyboard-response","63","127069","0.0-13.0-0.1-1.12","n2poat8str","","n2poat8str","""2024-11-12T18:31:17.302Z""","1760","materials/imgs/D25.png","arrowleft","","[""materials/imgs/D37.png"",""materials/imgs/D68.png""]","false","random","","",""
"","","","","","html-keyboard-response","64","127570","0.0-13.0-0.1-0.13","n2poat8str","","n2poat8str","""2024-11-12T18:31:17.302Z""","null","+","null","","","","","","",""
"","","","","","image-keyboard-response","65","129057","0.0-13.0-0.1-1.13","n2poat8str","","n2poat8str","""2024-11-12T18:31:17.302Z""","1484","materials/imgs/D57.png","arrowright","","[""materials/imgs/D47.png"",""materials/imgs/D85.png""]","false","random","","",""
"","","","","","html-keyboard-response","66","129558","0.0-13.0-1.1-0.1","n2poat8str","","n2poat8str","""2024-11-12T18:31:17.302Z""","null","+","null","","","","","","",""
"","","","","","image-keyboard-response","67","130109","0.0-13.0-1.1-1.1","n2poat8str","","n2poat8str","""2024-11-12T18:31:17.302Z""","550","materials/imgs/D26.png","arrowleft","","[""materials/imgs/D26.png"",""materials/imgs/D46.png""]","","check","materials/imgs/D26.png","0","true"
"","","","","","html-keyboard-response","68","130611","0.0-13.0-2.1-0.2","n2poat8str","","n2poat8str","""2024-11-12T18:31:17.302Z""","null","+","null","","","","","","",""
"","","","","","image-keyboard-response","69","131585","0.0-13.0-2.1-1.2","n2poat8str","","n2poat8str","""2024-11-12T18:31:17.302Z""","972","materials/imgs/D49.png","arrowright","","[""materials/imgs/D8.png"",""materials/imgs/D101.png""]","false","validation","","",""
"","","","","","html-keyboard-response","70","132087","0.0-13.0-2.1-0.3","n2poat8str","","n2poat8str","""2024-11-12T18:31:17.302Z""","null","+","null","","","","","","",""
"","","","","","image-keyboard-response","71","133604","0.0-13.0-2.1-1.3","n2poat8str","","n2poat8str","""2024-11-12T18:31:17.302Z""","1515","materials/imgs/D103.png","arrowright","","[""materials/imgs/D76.png"",""materials/imgs/D106.png""]","false","validation","","",""
"","","","","","html-keyboard-response","72","134105","0.0-13.0-0.2-0.14","n2poat8str","","n2poat8str","""2024-11-12T18:31:17.302Z""","null","+","null","","","","","","",""
"","","","","","image-keyboard-response","73","134936","0.0-13.0-0.2-1.14","n2poat8str","","n2poat8str","""2024-11-12T18:31:17.302Z""","828","materials/imgs/D18.png","arrowleft","","[""materials/imgs/D1.png"",""materials/imgs/D77.png""]","false","random","","",""
"","","","","","html-keyboard-response","74","135437","0.0-13.0-0.2-0.15","n2poat8str","","n2poat8str","""2024-11-12T18:31:17.302Z""","null","+","null","","","","","","",""
"","","","","","image-keyboard-response","75","136756","0.0-13.0-0.2-1.15","n2poat8str","","n2poat8str","""2024-11-12T18:31:17.302Z""","1316","materials/imgs/D9.png","arrowleft","","[""materials/imgs/D55.png"",""materials/imgs/D56.png""]","false","random","","",""
"","","","","","html-keyboard-response","76","137258","0.0-13.0-0.2-0.16","n2poat8str","","n2poat8str","""2024-11-12T18:31:17.302Z""","null","+","null","","","","","","",""
"","","","","","image-keyboard-response","77","138387","0.0-13.0-0.2-1.16","n2poat8str","","n2poat8str","""2024-11-12T18:31:17.302Z""","1127","materials/imgs/D20.png","arrowleft","","[""materials/imgs/D79.png"",""materials/imgs/D84.png""]","false","random","","",""
"","","","","","html-keyboard-response","78","138889","0.0-13.0-0.2-0.17","n2poat8str","","n2poat8str","""2024-11-12T18:31:17.302Z""","null","+","null","","","","","","",""
"","","","","","image-keyboard-response","79","140611","0.0-13.0-0.2-1.17","n2poat8str","","n2poat8str","""2024-11-12T18:31:17.302Z""","1720","materials/imgs/D21.png","arrowright","","[""materials/imgs/D1.png"",""materials/imgs/D76.png""]","false","random","","",""
"","","","","","html-keyboard-response","80","141113","0.0-13.0-0.2-0.18","n2poat8str","","n2poat8str","""2024-11-12T18:31:17.302Z""","null","+","null","","","","","","",""
"","","","","","image-keyboard-response","81","143843","0.0-13.0-0.2-1.18","n2poat8str","","n2poat8str","""2024-11-12T18:31:17.302Z""","2728","materials/imgs/D79.png","arrowright","","[""materials/imgs/D57.png"",""materials/imgs/D47.png""]","false","random","","",""
"","","","","","html-keyboard-response","82","144344","0.0-13.0-0.2-0.19","n2poat8str","","n2poat8str","""2024-11-12T18:31:17.302Z""","null","+","null","","","","","","",""
"","","","","","image-keyboard-response","83","145284","0.0-13.0-0.2-1.19","n2poat8str","","n2poat8str","""2024-11-12T18:31:17.302Z""","938","materials/imgs/D25.png","arrowleft","","[""materials/imgs/D1.png"",""materials/imgs/D14.png""]","false","random","","",""
"","","","","","html-keyboard-response","84","145786","0.0-13.0-0.2-0.20","n2poat8str","","n2poat8str","""2024-11-12T18:31:17.302Z""","null","+","null","","","","","","",""
"","","","","","image-keyboard-response","85","146849","0.0-13.0-0.2-1.20","n2poat8str","","n2poat8str","""2024-11-12T18:31:17.302Z""","1061","materials/imgs/D76.png","arrowright","","[""materials/imgs/D111.png"",""materials/imgs/D34.png""]","false","random","","",""
"","","","","","html-keyboard-response","86","147350","0.0-13.0-1.2-0.2","n2poat8str","","n2poat8str","""2024-11-12T18:31:17.302Z""","null","+","null","","","","","","",""
"","","","","","image-keyboard-response","87","148113","0.0-13.0-1.2-1.2","n2poat8str","","n2poat8str","""2024-11-12T18:31:17.302Z""","760","materials/imgs/D101.png","arrowright","","[""materials/imgs/D106.png"",""materials/imgs/D101.png""]","","check","materials/imgs/D101.png","1","true"
"","","","","","html-keyboard-response","88","148615","0.0-13.0-2.2-0.4","n2poat8str","","n2poat8str","""2024-11-12T18:31:17.302Z""","null","+","null","","","","","","",""
"","","","","","image-keyboard-response","89","149718","0.0-13.0-2.2-1.4","n2poat8str","","n2poat8str","""2024-11-12T18:31:17.302Z""","1101","materials/imgs/D4.png","arrowleft","","[""materials/imgs/D52.png"",""materials/imgs/D83.png""]","false","validation","","",""
"","","","","","html-keyboard-response","90","150220","0.0-13.0-2.2-0.5","n2poat8str","","n2poat8str","""2024-11-12T18:31:17.302Z""","null","+","null","","","","","","",""
"","","","","","image-keyboard-response","91","151474","0.0-13.0-2.2-1.5","n2poat8str","","n2poat8str","""2024-11-12T18:31:17.302Z""","1252","materials/imgs/D37.png","arrowleft","","[""materials/imgs/D84.png"",""materials/imgs/D111.png""]","false","validation","","",""
"","","","","","html-keyboard-response","92","151975","0.0-13.0-0.3-0.21","n2poat8str","","n2poat8str","""2024-11-12T18:31:17.302Z""","null","+","null","","","","","","",""
"","","","","","image-keyboard-response","93","153251","0.0-13.0-0.3-1.21","n2poat8str","","n2poat8str","""2024-11-12T18:31:17.302Z""","1274","materials/imgs/D83.png","arrowleft","","[""materials/imgs/D35.png"",""materials/imgs/D52.png""]","false","random","","",""
"","","","","","html-keyboard-response","94","153753","0.0-13.0-0.3-0.22","n2poat8str","","n2poat8str","""2024-11-12T18:31:17.302Z""","null","+","null","","","","","","",""
"","","","","","image-keyboard-response","95","154518","0.0-13.0-0.3-1.22","n2poat8str","","n2poat8str","""2024-11-12T18:31:17.302Z""","761","materials/imgs/D46.png","arrowleft","","[""materials/imgs/D47.png"",""materials/imgs/D77.png""]","false","random","","",""
"","","","","","html-keyboard-response","96","155019","0.0-13.0-0.3-0.23","n2poat8str","","n2poat8str","""2024-11-12T18:31:17.302Z""","null","+","null","","","","","","",""
"","","","","","image-keyboard-response","97","157274","0.0-13.0-0.3-1.23","n2poat8str","","n2poat8str","""2024-11-12T18:31:17.302Z""","2252","materials/imgs/D57.png","arrowright","","[""materials/imgs/D101.png"",""materials/imgs/D85.png""]","false","random","","",""
"","","","","","html-keyboard-response","98","157775","0.0-13.0-0.3-0.24","n2poat8str","","n2poat8str","""2024-11-12T18:31:17.302Z""","null","+","null","","","","","","",""
"","","","","","image-keyboard-response","99","158716","0.0-13.0-0.3-1.24","n2poat8str","","n2poat8str","""2024-11-12T18:31:17.302Z""","939","materials/imgs/D17.png","arrowleft","","[""materials/imgs/D105.png"",""materials/imgs/D56.png""]","false","random","","",""
"","","","","","html-keyboard-response","100","159217","0.0-13.0-0.3-0.25","n2poat8str","","n2poat8str","""2024-11-12T18:31:17.302Z""","null","+","null","","","","","","",""
"","","","","","image-keyboard-response","101","159953","0.0-13.0-0.3-1.25","n2poat8str","","n2poat8str","""2024-11-12T18:31:17.302Z""","734","materials/imgs/D14.png","arrowleft","","[""materials/imgs/D84.png"",""materials/imgs/D101.png""]","false","random","","",""
"","","","","","html-keyboard-response","102","160455","0.0-13.0-0.3-0.26","n2poat8str","","n2poat8str","""2024-11-12T18:31:17.302Z""","null","+","null","","","","","","",""
"","","","","","image-keyboard-response","103","161454","0.0-13.0-0.3-1.26","n2poat8str","","n2poat8str","""2024-11-12T18:31:17.302Z""","997","materials/imgs/D101.png","arrowright","","[""materials/imgs/D66.png"",""materials/imgs/D17.png""]","false","random","","",""
"","","","","","html-keyboard-response","104","161955","0.0-13.0-0.3-0.27","n2poat8str","","n2poat8str","""2024-11-12T18:31:17.302Z""","null","+","null","","","","","","",""
"","","","","","image-keyboard-response","105","162950","0.0-13.0-0.3-1.27","n2poat8str","","n2poat8str","""2024-11-12T18:31:17.302Z""","993","materials/imgs/D52.png","arrowleft","","[""materials/imgs/D103.png"",""materials/imgs/D3.png""]","false","random","","",""
"","","","","","html-keyboard-response","106","163451","0.0-13.0-1.3-0.3","n2poat8str","","n2poat8str","""2024-11-12T18:31:17.302Z""","null","+","null","","","","","","",""
"","","","","","image-keyboard-response","107","163984","0.0-13.0-1.3-1.3","n2poat8str","","n2poat8str","""2024-11-12T18:31:17.302Z""","531","materials/imgs/D26.png","arrowleft","","[""materials/imgs/D26.png"",""materials/imgs/D46.png""]","","check","materials/imgs/D26.png","0","true"
"","","","","","html-keyboard-response","108","164485","0.0-13.0-2.3-0.6","n2poat8str","","n2poat8str","""2024-11-12T18:31:17.302Z""","null","+","null","","","","","","",""
"","","","","","image-keyboard-response","109","165255","0.0-13.0-2.3-1.6","n2poat8str","","n2poat8str","""2024-11-12T18:31:17.302Z""","767","materials/imgs/D11.png","arrowleft","","[""materials/imgs/D83.png"",""materials/imgs/D48.png""]","false","validation","","",""
"","","","","","html-keyboard-response","110","165756","0.0-13.0-2.3-0.7","n2poat8str","","n2poat8str","""2024-11-12T18:31:17.302Z""","null","+","null","","","","","","",""
"","","","","","image-keyboard-response","111","167298","0.0-13.0-2.3-1.7","n2poat8str","","n2poat8str","""2024-11-12T18:31:17.302Z""","1539","materials/imgs/D36.png","arrowleft","","[""materials/imgs/D47.png"",""materials/imgs/D49.png""]","false","validation","","",""
"","","","","","html-keyboard-response","112","167799","0.0-13.0-0.4-0.28","n2poat8str","","n2poat8str","""2024-11-12T18:31:17.302Z""","null","+","null","","","","","","",""
"","","","","","image-keyboard-response","113","168532","0.0-13.0-0.4-1.28","n2poat8str","","n2poat8str","""2024-11-12T18:31:17.302Z""","731","materials/imgs/D77.png","arrowright","","[""materials/imgs/D74.png"",""materials/imgs/D104.png""]","false","random","","",""
"","","","","","html-keyboard-response","114","169033","0.0-13.0-0.4-0.29","n2poat8str","","n2poat8str","""2024-11-12T18:31:17.302Z""","null","+","null","","","","","","",""
"","","","","","image-keyboard-response","115","169973","0.0-13.0-0.4-1.29","n2poat8str","","n2poat8str","""2024-11-12T18:31:17.302Z""","937","materials/imgs/D111.png","arrowleft","","[""materials/imgs/D29.png"",""materials/imgs/D78.png""]","false","random","","",""
"","","","","","html-keyboard-response","116","170473","0.0-13.0-0.4-0.30","n2poat8str","","n2poat8str","""2024-11-12T18:31:17.302Z""","null","+","null","","","","","","",""
"","","","","","image-keyboard-response","117","171385","0.0-13.0-0.4-1.30","n2poat8str","","n2poat8str","""2024-11-12T18:31:17.302Z""","909","materials/imgs/D1.png","arrowright","","[""materials/imgs/D78.png"",""materials/imgs/D94.png""]","false","random","","",""
"","","","","","html-keyboard-response","118","171887","0.0-13.0-0.4-0.31","n2poat8str","","n2poat8str","""2024-11-12T18:31:17.302Z""","null","+","null","","","","","","",""
"","","","","","image-keyboard-response","119","173093","0.0-13.0-0.4-1.31","n2poat8str","","n2poat8str","""2024-11-12T18:31:17.302Z""","1204","materials/imgs/D24.png","arrowleft","","[""materials/imgs/D9.png"",""materials/imgs/D77.png""]","false","random","","",""
"","","","","","html-keyboard-response","120","173594","0.0-13.0-0.4-0.32","n2poat8str","","n2poat8str","""2024-11-12T18:31:17.302Z""","null","+","null","","","","","","",""
"","","","","","image-keyboard-response","121","174573","0.0-13.0-0.4-1.32","n2poat8str","","n2poat8str","""2024-11-12T18:31:17.302Z""","976","materials/imgs/D32.png","arrowleft","","[""materials/imgs/D22.png"",""materials/imgs/D48.png""]","false","random","","",""
"","","","","","html-keyboard-response","122","175074","0.0-13.0-0.4-0.33","n2poat8str","","n2poat8str","""2024-11-12T18:31:17.302Z""","null","+","null","","","","","","",""
"","","","","","image-keyboard-response","123","175804","0.0-13.0-0.4-1.33","n2poat8str","","n2poat8str","""2024-11-12T18:31:17.302Z""","727","materials/imgs/D4.png","arrowright","","[""materials/imgs/D48.png"",""materials/imgs/D57.png""]","false","random","","",""
"","","","","","html-keyboard-response","124","176305","0.0-13.0-0.4-0.34","n2poat8str","","n2poat8str","""2024-11-12T18:31:17.302Z""","null","+","null","","","","","","",""
"","","","","","image-keyboard-response","125","178903","0.0-13.0-0.4-1.34","n2poat8str","","n2poat8str","""2024-11-12T18:31:17.302Z""","2595","materials/imgs/D51.png","arrowright","","[""materials/imgs/D75.png"",""materials/imgs/D102.png""]","false","random","","",""
"","","","","","html-keyboard-response","126","179404","0.0-13.0-1.4-0.4","n2poat8str","","n2poat8str","""2024-11-12T18:31:17.302Z""","null","+","null","","","","","","",""
"","","","","","image-keyboard-response","127","180184","0.0-13.0-1.4-1.4","n2poat8str","","n2poat8str","""2024-11-12T18:31:17.302Z""","778","materials/imgs/D46.png","arrowleft","","[""materials/imgs/D46.png"",""materials/imgs/D26.png""]","","check","materials/imgs/D46.png","0","true"
"","","","","","html-keyboard-response","128","180686","0.0-13.0-2.4-0.8","n2poat8str","","n2poat8str","""2024-11-12T18:31:17.302Z""","null","+","null","","","","","","",""
"","","","","","image-keyboard-response","129","181662","0.0-13.0-2.4-1.8","n2poat8str","","n2poat8str","""2024-11-12T18:31:17.302Z""","974","materials/imgs/D79.png","arrowleft","","[""materials/imgs/D51.png"",""materials/imgs/D64.png""]","false","validation","","",""
"","","","","","html-keyboard-response","130","182163","0.0-13.0-2.4-0.9","n2poat8str","","n2poat8str","""2024-11-12T18:31:17.302Z""","null","+","null","","","","","","",""
"","","","","","image-keyboard-response","131","183536","0.0-13.0-2.4-1.9","n2poat8str","","n2poat8str","""2024-11-12T18:31:17.302Z""","1370","materials/imgs/D36.png","arrowright","","[""materials/imgs/D47.png"",""materials/imgs/D49.png""]","false","validation","","",""
"","","","","","html-button-response","132","185479","0.0-14.0","n2poat8str","","n2poat8str","""2024-11-12T18:31:17.302Z""","1942","You have completed 25% of the trials. Please click 'Continue' when you are ready proceed.","0","","","","","","",""
"","","","","","html-keyboard-response","133","185980","0.0-15.0-0.0-0.0","n2poat8str","","n2poat8str","""2024-11-12T18:31:17.302Z""","null","+","null","","","","","","",""
"","","","","","image-keyboard-response","134","186985","0.0-15.0-0.0-1.0","n2poat8str","","n2poat8str","""2024-11-12T18:31:17.302Z""","1002","materials/imgs/D95.png","arrowright","","[""materials/imgs/D83.png"",""materials/imgs/D26.png""]","false","random","","",""
"","","","","","html-keyboard-response","135","187487","0.0-15.0-0.0-0.1","n2poat8str","","n2poat8str","""2024-11-12T18:31:17.302Z""","null","+","null","","","","","","",""
"","","","","","image-keyboard-response","136","189619","0.0-15.0-0.0-1.1","n2poat8str","","n2poat8str","""2024-11-12T18:31:17.302Z""","2130","materials/imgs/D22.png","arrowright","","[""materials/imgs/D51.png"",""materials/imgs/D85.png""]","false","random","","",""
"","","","","","html-keyboard-response","137","190120","0.0-15.0-0.0-0.2","n2poat8str","","n2poat8str","""2024-11-12T18:31:17.302Z""","null","+","null","","","","","","",""
"","","","","","image-keyboard-response","138","192687","0.0-15.0-0.0-1.2","n2poat8str","","n2poat8str","""2024-11-12T18:31:17.302Z""","2565","materials/imgs/D75.png","arrowleft","","[""materials/imgs/D79.png"",""materials/imgs/D68.png""]","false","random","","",""
"","","","","","html-keyboard-response","139","193188","0.0-15.0-0.0-0.3","n2poat8str","","n2poat8str","""2024-11-12T18:31:17.302Z""","null","+","null","","","","","","",""
"","","","","","image-keyboard-response","140","194547","0.0-15.0-0.0-1.3","n2poat8str","","n2poat8str","""2024-11-12T18:31:17.302Z""","1356","materials/imgs/D84.png","arrowleft","","[""materials/imgs/D102.png"",""materials/imgs/D32.png""]","false","random","","",""
"","","","","","html-keyboard-response","141","195048","0.0-15.0-0.0-0.4","n2poat8str","","n2poat8str","""2024-11-12T18:31:17.302Z""","null","+","null","","","","","","",""
"","","","","","image-keyboard-response","142","196154","0.0-15.0-0.0-1.4","n2poat8str","","n2poat8str","""2024-11-12T18:31:17.302Z""","1103","materials/imgs/D19.png","arrowleft","","[""materials/imgs/D52.png"",""materials/imgs/D35.png""]","false","random","","",""
"","","","","","html-keyboard-response","143","196656","0.0-15.0-0.0-0.5","n2poat8str","","n2poat8str","""2024-11-12T18:31:17.302Z""","null","+","null","","","","","","",""
"","","","","","image-keyboard-response","144","198005","0.0-15.0-0.0-1.5","n2poat8str","","n2poat8str","""2024-11-12T18:31:17.302Z""","1347","materials/imgs/D56.png","arrowright","","[""materials/imgs/D111.png"",""materials/imgs/D47.png""]","false","random","","",""
"","","","","","html-keyboard-response","145","198507","0.0-15.0-0.0-0.6","n2poat8str","","n2poat8str","""2024-11-12T18:31:17.302Z""","null","+","null","","","","","","",""
"","","","","","image-keyboard-response","146","199387","0.0-15.0-0.0-1.6","n2poat8str","","n2poat8str","""2024-11-12T18:31:17.302Z""","878","materials/imgs/D47.png","arrowright","","[""materials/imgs/D68.png"",""materials/imgs/D83.png""]","false","random","","",""
"","","","","","html-keyboard-response","147","199889","0.0-15.0-1.0-0.0","n2poat8str","","n2poat8str","""2024-11-12T18:31:17.302Z""","null","+","null","","","","","","",""
"","","","","","image-keyboard-response","148","200484","0.0-15.0-1.0-1.0","n2poat8str","","n2poat8str","""2024-11-12T18:31:17.302Z""","593","materials/imgs/D53.png","arrowright","","[""materials/imgs/D64.png"",""materials/imgs/D53.png""]","","check","materials/imgs/D53.png","1","true"
"","","","","","html-keyboard-response","149","200986","0.0-15.0-2.0-0.0","n2poat8str","","n2poat8str","""2024-11-12T18:31:17.302Z""","null","+","null","","","","","","",""
"","","","","","image-keyboard-response","150","202576","0.0-15.0-2.0-1.0","n2poat8str","","n2poat8str","""2024-11-12T18:31:17.302Z""","1588","materials/imgs/D82.png","arrowleft","","[""materials/imgs/D83.png"",""materials/imgs/D22.png""]","false","validation","","",""
"","","","","","html-keyboard-response","151","203077","0.0-15.0-2.0-0.1","n2poat8str","","n2poat8str","""2024-11-12T18:31:17.302Z""","null","+","null","","","","","","",""
"","","","","","image-keyboard-response","152","204030","0.0-15.0-2.0-1.1","n2poat8str","","n2poat8str","""2024-11-12T18:31:17.302Z""","951","materials/imgs/D22.png","arrowleft","","[""materials/imgs/D4.png"",""materials/imgs/D25.png""]","false","validation","","",""
"","","","","","html-keyboard-response","153","204531","0.0-15.0-0.1-0.7","n2poat8str","","n2poat8str","""2024-11-12T18:31:17.302Z""","null","+","null","","","","","","",""
"","","","","","image-keyboard-response","154","206132","0.0-15.0-0.1-1.7","n2poat8str","","n2poat8str","""2024-11-12T18:31:17.302Z""","1598","materials/imgs/D24.png","arrowleft","","[""materials/imgs/D106.png"",""materials/imgs/D64.png""]","false","random","","",""
"","","","","","html-keyboard-response","155","206633","0.0-15.0-0.1-0.8","n2poat8str","","n2poat8str","""2024-11-12T18:31:17.302Z""","null","+","null","","","","","","",""
"","","","","","image-keyboard-response","156","207289","0.0-15.0-0.1-1.8","n2poat8str","","n2poat8str","""2024-11-12T18:31:17.302Z""","654","materials/imgs/D96.png","arrowright","","[""materials/imgs/D8.png"",""materials/imgs/D25.png""]","false","random","","",""
"","","","","","html-keyboard-response","157","207791","0.0-15.0-0.1-0.9","n2poat8str","","n2poat8str","""2024-11-12T18:31:17.302Z""","null","+","null","","","","","","",""
"","","","","","image-keyboard-response","158","208996","0.0-15.0-0.1-1.9","n2poat8str","","n2poat8str","""2024-11-12T18:31:17.302Z""","1203","materials/imgs/D84.png","arrowleft","","[""materials/imgs/D77.png"",""materials/imgs/D16.png""]","false","random","","",""
"","","","","","html-keyboard-response","159","209497","0.0-15.0-0.1-0.10","n2poat8str","","n2poat8str","""2024-11-12T18:31:17.302Z""","null","+","null","","","","","","",""
"","","","","","image-keyboard-response","160","211455","0.0-15.0-0.1-1.10","n2poat8str","","n2poat8str","""2024-11-12T18:31:17.302Z""","1955","materials/imgs/D102.png","arrowleft","","[""materials/imgs/D94.png"",""materials/imgs/D17.png""]","false","random","","",""
"","","","","","html-keyboard-response","161","211957","0.0-15.0-0.1-0.11","n2poat8str","","n2poat8str","""2024-11-12T18:31:17.302Z""","null","+","null","","","","","","",""
"","","","","","image-keyboard-response","162","213264","0.0-15.0-0.1-1.11","n2poat8str","","n2poat8str","""2024-11-12T18:31:17.302Z""","1305","materials/imgs/D76.png","arrowright","","[""materials/imgs/D18.png"",""materials/imgs/D20.png""]","false","random","","",""
"","","","","","html-keyboard-response","163","213766","0.0-15.0-0.1-0.12","n2poat8str","","n2poat8str","""2024-11-12T18:31:17.302Z""","null","+","null","","","","","","",""
"","","","","","image-keyboard-response","164","215250","0.0-15.0-0.1-1.12","n2poat8str","","n2poat8str","""2024-11-12T18:31:17.302Z""","1481","materials/imgs/D84.png","arrowleft","","[""materials/imgs/D81.png"",""materials/imgs/D52.png""]","false","random","","",""
"","","","","","html-keyboard-response","165","215751","0.0-15.0-0.1-0.13","n2poat8str","","n2poat8str","""2024-11-12T18:31:17.302Z""","null","+","null","","","","","","",""
"","","","","","image-keyboard-response","166","217151","0.0-15.0-0.1-1.13","n2poat8str","","n2poat8str","""2024-11-12T18:31:17.302Z""","1397","materials/imgs/D20.png","arrowright","","[""materials/imgs/D66.png"",""materials/imgs/D77.png""]","false","random","","",""
"","","","","","html-keyboard-response","167","217652","0.0-15.0-1.1-0.1","n2poat8str","","n2poat8str","""2024-11-12T18:31:17.302Z""","null","+","null","","","","","","",""
"","","","","","image-keyboard-response","168","218236","0.0-15.0-1.1-1.1","n2poat8str","","n2poat8str","""2024-11-12T18:31:17.302Z""","582","materials/imgs/D8.png","arrowright","","[""materials/imgs/D18.png"",""materials/imgs/D8.png""]","","check","materials/imgs/D8.png","1","true"
"","","","","","html-keyboard-response","169","218737","0.0-15.0-2.1-0.2","n2poat8str","","n2poat8str","""2024-11-12T18:31:17.302Z""","null","+","null","","","","","","",""
"","","","","","image-keyboard-response","170","220622","0.0-15.0-2.1-1.2","n2poat8str","","n2poat8str","""2024-11-12T18:31:17.302Z""","1883","materials/imgs/D95.png","arrowright","","[""materials/imgs/D36.png"",""materials/imgs/D4.png""]","false","validation","","",""
"","","","","","html-keyboard-response","171","221123","0.0-15.0-2.1-0.3","n2poat8str","","n2poat8str","""2024-11-12T18:31:17.302Z""","null","+","null","","","","","","",""
"","","","","","image-keyboard-response","172","221849","0.0-15.0-2.1-1.3","n2poat8str","","n2poat8str","""2024-11-12T18:31:17.302Z""","724","materials/imgs/D79.png","arrowleft","","[""materials/imgs/D51.png"",""materials/imgs/D64.png""]","false","validation","","",""
"","","","","","html-keyboard-response","173","222350","0.0-15.0-0.2-0.14","n2poat8str","","n2poat8str","""2024-11-12T18:31:17.302Z""","null","+","null","","","","","","",""
"","","","","","image-keyboard-response","174","223427","0.0-15.0-0.2-1.14","n2poat8str","","n2poat8str","""2024-11-12T18:31:17.302Z""","1075","materials/imgs/D111.png","arrowright","","[""materials/imgs/D94.png"",""materials/imgs/D103.png""]","false","random","","",""
"","","","","","html-keyboard-response","175","223929","0.0-15.0-0.2-0.15","n2poat8str","","n2poat8str","""2024-11-12T18:31:17.302Z""","null","+","null","","","","","","",""
"","","","","","image-keyboard-response","176","225040","0.0-15.0-0.2-1.15","n2poat8str","","n2poat8str","""2024-11-12T18:31:17.302Z""","1108","materials/imgs/D65.png","arrowleft","","[""materials/imgs/D55.png"",""materials/imgs/D46.png""]","false","random","","",""
"","","","","","html-keyboard-response","177","225541","0.0-15.0-0.2-0.16","n2poat8str","","n2poat8str","""2024-11-12T18:31:17.302Z""","null","+","null","","","","","","",""
"","","","","","image-keyboard-response","178","228786","0.0-15.0-0.2-1.16","n2poat8str","","n2poat8str","""2024-11-12T18:31:17.302Z""","3242","materials/imgs/D52.png","arrowright","","[""materials/imgs/D48.png"",""materials/imgs/D32.png""]","false","random","","",""
"","","","","","html-keyboard-response","179","229287","0.0-15.0-0.2-0.17","n2poat8str","","n2poat8str","""2024-11-12T18:31:17.302Z""","null","+","null","","","","","","",""
"","","","","","image-keyboard-response","180","231243","0.0-15.0-0.2-1.17","n2poat8str","","n2poat8str","""2024-11-12T18:31:17.302Z""","1954","materials/imgs/D76.png","arrowleft","","[""materials/imgs/D74.png"",""materials/imgs/D25.png""]","false","random","","",""
"","","","","","html-keyboard-response","181","231745","0.0-15.0-0.2-0.18","n2poat8str","","n2poat8str","""2024-11-12T18:31:17.302Z""","null","+","null","","","","","","",""
"","","","","","image-keyboard-response","182","232989","0.0-15.0-0.2-1.18","n2poat8str","","n2poat8str","""2024-11-12T18:31:17.302Z""","1242","materials/imgs/D37.png","arrowleft","","[""materials/imgs/D57.png"",""materials/imgs/D20.png""]","false","random","","",""
"","","","","","html-keyboard-response","183","233490","0.0-15.0-0.2-0.19","n2poat8str","","n2poat8str","""2024-11-12T18:31:17.302Z""","null","+","null","","","","","","",""
"","","","","","image-keyboard-response","184","234597","0.0-15.0-0.2-1.19","n2poat8str","","n2poat8str","""2024-11-12T18:31:17.302Z""","1105","materials/imgs/D68.png","arrowright","","[""materials/imgs/D21.png"",""materials/imgs/D76.png""]","false","random","","",""
"","","","","","html-keyboard-response","185","235098","0.0-15.0-0.2-0.20","n2poat8str","","n2poat8str","""2024-11-12T18:31:17.302Z""","null","+","null","","","","","","",""
"","","","","","image-keyboard-response","186","236455","0.0-15.0-0.2-1.20","n2poat8str","","n2poat8str","""2024-11-12T18:31:17.302Z""","1354","materials/imgs/D14.png","arrowright","","[""materials/imgs/D74.png"",""materials/imgs/D29.png""]","false","random","","",""
"","","","","","html-keyboard-response","187","236956","0.0-15.0-1.2-0.2","n2poat8str","","n2poat8str","""2024-11-12T18:31:17.302Z""","null","+","null","","","","","","",""
"","","","","","image-keyboard-response","188","237452","0.0-15.0-1.2-1.2","n2poat8str","","n2poat8str","""2024-11-12T18:31:17.302Z""","493","materials/imgs/D53.png","arrowright","","[""materials/imgs/D64.png"",""materials/imgs/D53.png""]","","check","materials/imgs/D53.png","1","true"
"","","","","","html-keyboard-response","189","237953","0.0-15.0-2.2-0.4","n2poat8str","","n2poat8str","""2024-11-12T18:31:17.302Z""","null","+","null","","","","","","",""
"","","","","","image-keyboard-response","190","239302","0.0-15.0-2.2-1.4","n2poat8str","","n2poat8str","""2024-11-12T18:31:17.302Z""","1346","materials/imgs/D106.png","arrowleft","","[""materials/imgs/D57.png"",""materials/imgs/D18.png""]","false","validation","","",""
"","","","","","html-keyboard-response","191","239803","0.0-15.0-2.2-0.5","n2poat8str","","n2poat8str","""2024-11-12T18:31:17.302Z""","null","+","null","","","","","","",""
"","","","","","image-keyboard-response","192","240424","0.0-15.0-2.2-1.5","n2poat8str","","n2poat8str","""2024-11-12T18:31:17.302Z""","619","materials/imgs/D11.png","arrowleft","","[""materials/imgs/D83.png"",""materials/imgs/D48.png""]","false","validation","","",""
"","","","","","html-keyboard-response","193","240926","0.0-15.0-0.3-0.21","n2poat8str","","n2poat8str","""2024-11-12T18:31:17.302Z""","null","+","null","","","","","","",""
"","","","","","image-keyboard-response","194","242330","0.0-15.0-0.3-1.21","n2poat8str","","n2poat8str","""2024-11-12T18:31:17.302Z""","1402","materials/imgs/D17.png","arrowright","","[""materials/imgs/D95.png"",""materials/imgs/D4.png""]","false","random","","",""
"","","","","","html-keyboard-response","195","242831","0.0-15.0-0.3-0.22","n2poat8str","","n2poat8str","""2024-11-12T18:31:17.302Z""","null","+","null","","","","","","",""
"","","","","","image-keyboard-response","196","243409","0.0-15.0-0.3-1.22","n2poat8str","","n2poat8str","""2024-11-12T18:31:17.302Z""","574","materials/imgs/D79.png","arrowleft","","[""materials/imgs/D85.png"",""materials/imgs/D22.png""]","false","random","","",""
"","","","","","html-keyboard-response","197","243910","0.0-15.0-0.3-0.23","n2poat8str","","n2poat8str","""2024-11-12T18:31:17.302Z""","null","+","null","","","","","","",""
"","","","","","image-keyboard-response","198","245563","0.0-15.0-0.3-1.23","n2poat8str","","n2poat8str","""2024-11-12T18:31:17.302Z""","1651","materials/imgs/D35.png","arrowleft","","[""materials/imgs/D95.png"",""materials/imgs/D68.png""]","false","random","","",""
"","","","","","html-keyboard-response","199","246065","0.0-15.0-0.3-0.24","n2poat8str","","n2poat8str","""2024-11-12T18:31:17.302Z""","null","+","null","","","","","","",""
"","","","","","image-keyboard-response","200","247733","0.0-15.0-0.3-1.24","n2poat8str","","n2poat8str","""2024-11-12T18:31:17.302Z""","1666","materials/imgs/D14.png","arrowleft","","[""materials/imgs/D96.png"",""materials/imgs/D24.png""]","false","random","","",""
"","","","","","html-keyboard-response","201","248235","0.0-15.0-0.3-0.25","n2poat8str","","n2poat8str","""2024-11-12T18:31:17.302Z""","null","+","null","","","","","","",""
"","","","","","image-keyboard-response","202","249237","0.0-15.0-0.3-1.25","n2poat8str","","n2poat8str","""2024-11-12T18:31:17.302Z""","1000","materials/imgs/D104.png","arrowright","","[""materials/imgs/D51.png"",""materials/imgs/D36.png""]","false","random","","",""
"","","","","","html-keyboard-response","203","249739","0.0-15.0-0.3-0.26","n2poat8str","","n2poat8str","""2024-11-12T18:31:17.302Z""","null","+","null","","","","","","",""
"","","","","","image-keyboard-response","204","250797","0.0-15.0-0.3-1.26","n2poat8str","","n2poat8str","""2024-11-12T18:31:17.302Z""","1056","materials/imgs/D3.png","arrowleft","","[""materials/imgs/D35.png"",""materials/imgs/D8.png""]","false","random","","",""
"","","","","","html-keyboard-response","205","251298","0.0-15.0-0.3-0.27","n2poat8str","","n2poat8str","""2024-11-12T18:31:17.302Z""","null","+","null","","","","","","",""
"","","","","","image-keyboard-response","206","253039","0.0-15.0-0.3-1.27","n2poat8str","","n2poat8str","""2024-11-12T18:31:17.302Z""","1738","materials/imgs/D94.png","arrowright","","[""materials/imgs/D81.png"",""materials/imgs/D18.png""]","false","random","","",""
"","","","","","html-keyboard-response","207","253540","0.0-15.0-1.3-0.3","n2poat8str","","n2poat8str","""2024-11-12T18:31:17.302Z""","null","+","null","","","","","","",""
"","","","","","image-keyboard-response","208","254142","0.0-15.0-1.3-1.3","n2poat8str","","n2poat8str","""2024-11-12T18:31:17.302Z""","599","materials/imgs/D76.png","arrowleft","","[""materials/imgs/D76.png"",""materials/imgs/D78.png""]","","check","materials/imgs/D76.png","0","true"
"","","","","","html-keyboard-response","209","254643","0.0-15.0-2.3-0.6","n2poat8str","","n2poat8str","""2024-11-12T18:31:17.302Z""","null","+","null","","","","","","",""
"","","","","","image-keyboard-response","210","255283","0.0-15.0-2.3-1.6","n2poat8str","","n2poat8str","""2024-11-12T18:31:17.302Z""","630","materials/imgs/D57.png","arrowright","","[""materials/imgs/D111.png"",""materials/imgs/D4.png""]","false","validation","","",""
"","","","","","html-keyboard-response","211","255785","0.0-15.0-2.3-0.7","n2poat8str","","n2poat8str","""2024-11-12T18:31:17.302Z""","null","+","null","","","","","","",""
"","","","","","image-keyboard-response","212","256862","0.0-15.0-2.3-1.7","n2poat8str","","n2poat8str","""2024-11-12T18:31:17.302Z""","1075","materials/imgs/D65.png","arrowright","","[""materials/imgs/D4.png"",""materials/imgs/D16.png""]","false","validation","","",""
"","","","","","html-keyboard-response","213","257363","0.0-15.0-0.4-0.28","n2poat8str","","n2poat8str","""2024-11-12T18:31:17.302Z""","null","+","null","","","","","","",""
"","","","","","image-keyboard-response","214","258824","0.0-15.0-0.4-1.28","n2poat8str","","n2poat8str","""2024-11-12T18:31:17.302Z""","1458","materials/imgs/D24.png","arrowleft","","[""materials/imgs/D52.png"",""materials/imgs/D64.png""]","false","random","","",""
"","","","","","html-keyboard-response","215","259325","0.0-15.0-0.4-0.29","n2poat8str","","n2poat8str","""2024-11-12T18:31:17.302Z""","null","+","null","","","","","","",""
"","","","","","image-keyboard-response","216","260405","0.0-15.0-0.4-1.29","n2poat8str","","n2poat8str","""2024-11-12T18:31:17.302Z""","1077","materials/imgs/D65.png","arrowleft","","[""materials/imgs/D87.png"",""materials/imgs/D17.png""]","false","random","","",""
"","","","","","html-keyboard-response","217","260906","0.0-15.0-0.4-0.30","n2poat8str","","n2poat8str","""2024-11-12T18:31:17.302Z""","null","+","null","","","","","","",""
"","","","","","image-keyboard-response","218","262140","0.0-15.0-0.4-1.30","n2poat8str","","n2poat8str","""2024-11-12T18:31:17.302Z""","1231","materials/imgs/D26.png","arrowleft","","[""materials/imgs/D8.png"",""materials/imgs/D102.png""]","false","random","","",""
"","","","","","html-keyboard-response","219","262641","0.0-15.0-0.4-0.31","n2poat8str","","n2poat8str","""2024-11-12T18:31:17.302Z""","null","+","null","","","","","","",""
"","","","","","image-keyboard-response","220","264147","0.0-15.0-0.4-1.31","n2poat8str","","n2poat8str","""2024-11-12T18:31:17.302Z""","1504","materials/imgs/D56.png","arrowright","","[""materials/imgs/D77.png"",""materials/imgs/D80.png""]","false","random","","",""
"","","","","","html-keyboard-response","221","264648","0.0-15.0-0.4-0.32","n2poat8str","","n2poat8str","""2024-11-12T18:31:17.302Z""","null","+","null","","","","","","",""
"","","","","","image-keyboard-response","222","265764","0.0-15.0-0.4-1.32","n2poat8str","","n2poat8str","""2024-11-12T18:31:17.302Z""","1114","materials/imgs/D79.png","arrowright","","[""materials/imgs/D55.png"",""materials/imgs/D82.png""]","false","random","","",""
"","","","","","html-keyboard-response","223","266265","0.0-15.0-0.4-0.33","n2poat8str","","n2poat8str","""2024-11-12T18:31:17.302Z""","null","+","null","","","","","","",""
"","","","","","image-keyboard-response","224","267779","0.0-15.0-0.4-1.33","n2poat8str","","n2poat8str","""2024-11-12T18:31:17.302Z""","1511","materials/imgs/D1.png","arrowright","","[""materials/imgs/D51.png"",""materials/imgs/D106.png""]","false","random","","",""
"","","","","","html-keyboard-response","225","268280","0.0-15.0-0.4-0.34","n2poat8str","","n2poat8str","""2024-11-12T18:31:17.302Z""","null","+","null","","","","","","",""
"","","","","","image-keyboard-response","226","269235","0.0-15.0-0.4-1.34","n2poat8str","","n2poat8str","""2024-11-12T18:31:17.302Z""","952","materials/imgs/D14.png","arrowleft","","[""materials/imgs/D68.png"",""materials/imgs/D46.png""]","false","random","","",""
"","","","","","html-keyboard-response","227","269736","0.0-15.0-1.4-0.4","n2poat8str","","n2poat8str","""2024-11-12T18:31:17.302Z""","null","+","null","","","","","","",""
"","","","","","image-keyboard-response","228","270285","0.0-15.0-1.4-1.4","n2poat8str","","n2poat8str","""2024-11-12T18:31:17.302Z""","547","materials/imgs/D8.png","arrowright","","[""materials/imgs/D18.png"",""materials/imgs/D8.png""]","","check","materials/imgs/D8.png","1","true"
"","","","","","html-keyboard-response","229","270787","0.0-15.0-2.4-0.8","n2poat8str","","n2poat8str","""2024-11-12T18:31:17.302Z""","null","+","null","","","","","","",""
"","","","","","image-keyboard-response","230","273450","0.0-15.0-2.4-1.8","n2poat8str","","n2poat8str","""2024-11-12T18:31:17.302Z""","2661","materials/imgs/D111.png","arrowright","","[""materials/imgs/D82.png"",""materials/imgs/D95.png""]","false","validation","","",""
"","","","","","html-keyboard-response","231","273951","0.0-15.0-2.4-0.9","n2poat8str","","n2poat8str","""2024-11-12T18:31:17.302Z""","null","+","null","","","","","","",""
"","","","","","image-keyboard-response","232","275807","0.0-15.0-2.4-1.9","n2poat8str","","n2poat8str","""2024-11-12T18:31:17.302Z""","1854","materials/imgs/D18.png","arrowleft","","[""materials/imgs/D32.png"",""materials/imgs/D57.png""]","false","validation","","",""
"","","","","","html-button-response","233","276845","0.0-16.0","n2poat8str","","n2poat8str","""2024-11-12T18:31:17.302Z""","1037","You have completed 50% of the trials. Please click 'Continue' when you are ready proceed.","0","","","","","","",""
"","","","","","html-keyboard-response","234","277346","0.0-17.0-0.0-0.0","n2poat8str","","n2poat8str","""2024-11-12T18:31:17.302Z""","null","+","null","","","","","","",""
"","","","","","image-keyboard-response","235","278483","0.0-17.0-0.0-1.0","n2poat8str","","n2poat8str","""2024-11-12T18:31:17.302Z""","1135","materials/imgs/D74.png","arrowleft","","[""materials/imgs/D46.png"",""materials/imgs/D76.png""]","false","random","","",""
"","","","","","html-keyboard-response","236","278984","0.0-17.0-0.0-0.1","n2poat8str","","n2poat8str","""2024-11-12T18:31:17.302Z""","null","+","null","","","","","","",""
"","","","","","image-keyboard-response","237","280299","0.0-17.0-0.0-1.1","n2poat8str","","n2poat8str","""2024-11-12T18:31:17.302Z""","1312","materials/imgs/D74.png","arrowleft","","[""materials/imgs/D21.png"",""materials/imgs/D25.png""]","false","random","","",""
"","","","","","html-keyboard-response","238","280800","0.0-17.0-0.0-0.2","n2poat8str","","n2poat8str","""2024-11-12T18:31:17.302Z""","null","+","null","","","","","","",""
"","","","","","image-keyboard-response","239","282188","0.0-17.0-0.0-1.2","n2poat8str","","n2poat8str","""2024-11-12T18:31:17.302Z""","1385","materials/imgs/D8.png","arrowleft","","[""materials/imgs/D52.png"",""materials/imgs/D106.png""]","false","random","","",""
"","","","","","html-keyboard-response","240","282689","0.0-17.0-0.0-0.3","n2poat8str","","n2poat8str","""2024-11-12T18:31:17.302Z""","null","+","null","","","","","","",""
"","","","","","image-keyboard-response","241","283291","0.0-17.0-0.0-1.3","n2poat8str","","n2poat8str","""2024-11-12T18:31:17.302Z""","599","materials/imgs/D66.png","arrowright","","[""materials/imgs/D34.png"",""materials/imgs/D111.png""]","false","random","","",""
"","","","","","html-keyboard-response","242","283792","0.0-17.0-0.0-0.4","n2poat8str","","n2poat8str","""2024-11-12T18:31:17.302Z""","null","+","null","","","","","","",""
"","","","","","image-keyboard-response","243","284845","0.0-17.0-0.0-1.4","n2poat8str","","n2poat8str","""2024-11-12T18:31:17.302Z""","1050","materials/imgs/D52.png","arrowleft","","[""materials/imgs/D92.png"",""materials/imgs/D17.png""]","false","random","","",""
"","","","","","html-keyboard-response","244","285345","0.0-17.0-0.0-0.5","n2poat8str","","n2poat8str","""2024-11-12T18:31:17.302Z""","null","+","null","","","","","","",""
"","","","","","image-keyboard-response","245","285969","0.0-17.0-0.0-1.5","n2poat8str","","n2poat8str","""2024-11-12T18:31:17.302Z""","621","materials/imgs/D53.png","arrowright","","[""materials/imgs/D111.png"",""materials/imgs/D3.png""]","false","random","","",""
"","","","","","html-keyboard-response","246","286470","0.0-17.0-0.0-0.6","n2poat8str","","n2poat8str","""2024-11-12T18:31:17.302Z""","null","+","null","","","","","","",""
"","","","","","image-keyboard-response","247","287047","0.0-17.0-0.0-1.6","n2poat8str","","n2poat8str","""2024-11-12T18:31:17.302Z""","574","materials/imgs/D16.png","arrowleft","","[""materials/imgs/D14.png"",""materials/imgs/D78.png""]","false","random","","",""
"","","","","","html-keyboard-response","248","287549","0.0-17.0-1.0-0.0","n2poat8str","","n2poat8str","""2024-11-12T18:31:17.302Z""","null","+","null","","","","","","",""
"","","","","","image-keyboard-response","249","288087","0.0-17.0-1.0-1.0","n2poat8str","","n2poat8str","""2024-11-12T18:31:17.302Z""","536","materials/imgs/D78.png","arrowright","","[""materials/imgs/D76.png"",""materials/imgs/D78.png""]","","check","materials/imgs/D78.png","1","true"
"","","","","","html-keyboard-response","250","288589","0.0-17.0-2.0-0.0","n2poat8str","","n2poat8str","""2024-11-12T18:31:17.302Z""","null","+","null","","","","","","",""
"","","","","","image-keyboard-response","251","289139","0.0-17.0-2.0-1.0","n2poat8str","","n2poat8str","""2024-11-12T18:31:17.302Z""","547","materials/imgs/D53.png","arrowleft","","[""materials/imgs/D77.png"",""materials/imgs/D75.png""]","false","validation","","",""
"","","","","","html-keyboard-response","252","289640","0.0-17.0-2.0-0.1","n2poat8str","","n2poat8str","""2024-11-12T18:31:17.302Z""","null","+","null","","","","","","",""
"","","","","","image-keyboard-response","253","290493","0.0-17.0-2.0-1.1","n2poat8str","","n2poat8str","""2024-11-12T18:31:17.302Z""","851","materials/imgs/D3.png","arrowleft","","[""materials/imgs/D79.png"",""materials/imgs/D48.png""]","false","validation","","",""
"","","","","","html-keyboard-response","254","290994","0.0-17.0-0.1-0.7","n2poat8str","","n2poat8str","""2024-11-12T18:31:17.302Z""","null","+","null","","","","","","",""
"","","","","","image-keyboard-response","255","292108","0.0-17.0-0.1-1.7","n2poat8str","","n2poat8str","""2024-11-12T18:31:17.302Z""","1111","materials/imgs/D51.png","arrowright","","[""materials/imgs/D16.png"",""materials/imgs/D85.png""]","false","random","","",""
"","","","","","html-keyboard-response","256","292609","0.0-17.0-0.1-0.8","n2poat8str","","n2poat8str","""2024-11-12T18:31:17.302Z""","null","+","null","","","","","","",""
"","","","","","image-keyboard-response","257","294178","0.0-17.0-0.1-1.8","n2poat8str","","n2poat8str","""2024-11-12T18:31:17.302Z""","1566","materials/imgs/D14.png","arrowright","","[""materials/imgs/D22.png"",""materials/imgs/D36.png""]","false","random","","",""
"","","","","","html-keyboard-response","258","294680","0.0-17.0-0.1-0.9","n2poat8str","","n2poat8str","""2024-11-12T18:31:17.302Z""","null","+","null","","","","","","",""
"","","","","","image-keyboard-response","259","295498","0.0-17.0-0.1-1.9","n2poat8str","","n2poat8str","""2024-11-12T18:31:17.302Z""","816","materials/imgs/D4.png","arrowleft","","[""materials/imgs/D52.png"",""materials/imgs/D34.png""]","false","random","","",""
"","","","","","html-keyboard-response","260","296000","0.0-17.0-0.1-0.10","n2poat8str","","n2poat8str","""2024-11-12T18:31:17.302Z""","null","+","null","","","","","","",""
"","","","","","image-keyboard-response","261","296742","0.0-17.0-0.1-1.10","n2poat8str","","n2poat8str","""2024-11-12T18:31:17.302Z""","739","materials/imgs/D111.png","arrowleft","","[""materials/imgs/D47.png"",""materials/imgs/D35.png""]","false","random","","",""
"","","","","","html-keyboard-response","262","297244","0.0-17.0-0.1-0.11","n2poat8str","","n2poat8str","""2024-11-12T18:31:17.302Z""","null","+","null","","","","","","",""
"","","","","","image-keyboard-response","263","299330","0.0-17.0-0.1-1.11","n2poat8str","","n2poat8str","""2024-11-12T18:31:17.302Z""","2084","materials/imgs/D14.png","arrowright","","[""materials/imgs/D75.png"",""materials/imgs/D48.png""]","false","random","","",""
"","","","","","html-keyboard-response","264","299831","0.0-17.0-0.1-0.12","n2poat8str","","n2poat8str","""2024-11-12T18:31:17.302Z""","null","+","null","","","","","","",""
"","","","","","image-keyboard-response","265","301771","0.0-17.0-0.1-1.12","n2poat8str","","n2poat8str","""2024-11-12T18:31:17.302Z""","1937","materials/imgs/D49.png","arrowleft","","[""materials/imgs/D6.png"",""materials/imgs/D79.png""]","false","random","","",""
"","","","","","html-keyboard-response","266","302272","0.0-17.0-0.1-0.13","n2poat8str","","n2poat8str","""2024-11-12T18:31:17.302Z""","null","+","null","","","","","","",""
"","","","","","image-keyboard-response","267","303231","0.0-17.0-0.1-1.13","n2poat8str","","n2poat8str","""2024-11-12T18:31:17.302Z""","956","materials/imgs/D24.png","arrowleft","","[""materials/imgs/D53.png"",""materials/imgs/D85.png""]","false","random","","",""
"","","","","","html-keyboard-response","268","303732","0.0-17.0-1.1-0.1","n2poat8str","","n2poat8str","""2024-11-12T18:31:17.302Z""","null","+","null","","","","","","",""
"","","","","","image-keyboard-response","269","304252","0.0-17.0-1.1-1.1","n2poat8str","","n2poat8str","""2024-11-12T18:31:17.302Z""","518","materials/imgs/D53.png","arrowright","","[""materials/imgs/D64.png"",""materials/imgs/D53.png""]","","check","materials/imgs/D53.png","1","true"
"","","","","","html-keyboard-response","270","304753","0.0-17.0-2.1-0.2","n2poat8str","","n2poat8str","""2024-11-12T18:31:17.302Z""","null","+","null","","","","","","",""
"","","","","","image-keyboard-response","271","305949","0.0-17.0-2.1-1.2","n2poat8str","","n2poat8str","""2024-11-12T18:31:17.302Z""","1193","materials/imgs/D77.png","arrowleft","","[""materials/imgs/D102.png"",""materials/imgs/D65.png""]","false","validation","","",""
"","","","","","html-keyboard-response","272","306450","0.0-17.0-2.1-0.3","n2poat8str","","n2poat8str","""2024-11-12T18:31:17.302Z""","null","+","null","","","","","","",""
"","","","","","image-keyboard-response","273","307280","0.0-17.0-2.1-1.3","n2poat8str","","n2poat8str","""2024-11-12T18:31:17.302Z""","828","materials/imgs/D8.png","arrowleft","","[""materials/imgs/D101.png"",""materials/imgs/D52.png""]","false","validation","","",""
"","","","","","html-keyboard-response","274","307781","0.0-17.0-0.2-0.14","n2poat8str","","n2poat8str","""2024-11-12T18:31:17.302Z""","null","+","null","","","","","","",""
"","","","","","image-keyboard-response","275","308566","0.0-17.0-0.2-1.14","n2poat8str","","n2poat8str","""2024-11-12T18:31:17.302Z""","782","materials/imgs/D56.png","arrowright","","[""materials/imgs/D81.png"",""materials/imgs/D51.png""]","false","random","","",""
"","","","","","html-keyboard-response","276","309067","0.0-17.0-0.2-0.15","n2poat8str","","n2poat8str","""2024-11-12T18:31:17.302Z""","null","+","null","","","","","","",""
"","","","","","image-keyboard-response","277","310070","0.0-17.0-0.2-1.15","n2poat8str","","n2poat8str","""2024-11-12T18:31:17.302Z""","1001","materials/imgs/D8.png","arrowleft","","[""materials/imgs/D111.png"",""materials/imgs/D37.png""]","false","random","","",""
"","","","","","html-keyboard-response","278","310571","0.0-17.0-0.2-0.16","n2poat8str","","n2poat8str","""2024-11-12T18:31:17.302Z""","null","+","null","","","","","","",""
"","","","","","image-keyboard-response","279","311751","0.0-17.0-0.2-1.16","n2poat8str","","n2poat8str","""2024-11-12T18:31:17.302Z""","1177","materials/imgs/D53.png","arrowright","","[""materials/imgs/D92.png"",""materials/imgs/D22.png""]","false","random","","",""
"","","","","","html-keyboard-response","280","312252","0.0-17.0-0.2-0.17","n2poat8str","","n2poat8str","""2024-11-12T18:31:17.302Z""","null","+","null","","","","","","",""
"","","","","","image-keyboard-response","281","313316","0.0-17.0-0.2-1.17","n2poat8str","","n2poat8str","""2024-11-12T18:31:17.302Z""","1061","materials/imgs/D57.png","arrowright","","[""materials/imgs/D96.png"",""materials/imgs/D51.png""]","false","random","","",""
"","","","","","html-keyboard-response","282","313816","0.0-17.0-0.2-0.18","n2poat8str","","n2poat8str","""2024-11-12T18:31:17.302Z""","null","+","null","","","","","","",""
"","","","","","image-keyboard-response","283","314943","0.0-17.0-0.2-1.18","n2poat8str","","n2poat8str","""2024-11-12T18:31:17.302Z""","1124","materials/imgs/D19.png","arrowleft","","[""materials/imgs/D87.png"",""materials/imgs/D96.png""]","false","random","","",""
"","","","","","html-keyboard-response","284","315444","0.0-17.0-0.2-0.19","n2poat8str","","n2poat8str","""2024-11-12T18:31:17.302Z""","null","+","null","","","","","","",""
"","","","","","image-keyboard-response","285","316578","0.0-17.0-0.2-1.19","n2poat8str","","n2poat8str","""2024-11-12T18:31:17.302Z""","1131","materials/imgs/D4.png","arrowleft","","[""materials/imgs/D49.png"",""materials/imgs/D18.png""]","false","random","","",""
"","","","","","html-keyboard-response","286","317080","0.0-17.0-0.2-0.20","n2poat8str","","n2poat8str","""2024-11-12T18:31:17.302Z""","null","+","null","","","","","","",""
"","","","","","image-keyboard-response","287","317867","0.0-17.0-0.2-1.20","n2poat8str","","n2poat8str","""2024-11-12T18:31:17.302Z""","785","materials/imgs/D20.png","arrowleft","","[""materials/imgs/D78.png"",""materials/imgs/D75.png""]","false","random","","",""
"","","","","","html-keyboard-response","288","318369","0.0-17.0-1.2-0.2","n2poat8str","","n2poat8str","""2024-11-12T18:31:17.302Z""","null","+","null","","","","","","",""
"","","","","","image-keyboard-response","289","318908","0.0-17.0-1.2-1.2","n2poat8str","","n2poat8str","""2024-11-12T18:31:17.302Z""","537","materials/imgs/D64.png","arrowleft","","[""materials/imgs/D64.png"",""materials/imgs/D53.png""]","","check","materials/imgs/D64.png","0","true"
"","","","","","html-keyboard-response","290","319409","0.0-17.0-2.2-0.4","n2poat8str","","n2poat8str","""2024-11-12T18:31:17.302Z""","null","+","null","","","","","","",""
"","","","","","image-keyboard-response","291","320958","0.0-17.0-2.2-1.4","n2poat8str","","n2poat8str","""2024-11-12T18:31:17.302Z""","1547","materials/imgs/D48.png","arrowright","","[""materials/imgs/D4.png"",""materials/imgs/D37.png""]","false","validation","","",""
"","","","","","html-keyboard-response","292","321459","0.0-17.0-2.2-0.5","n2poat8str","","n2poat8str","""2024-11-12T18:31:17.302Z""","null","+","null","","","","","","",""
"","","","","","image-keyboard-response","293","322403","0.0-17.0-2.2-1.5","n2poat8str","","n2poat8str","""2024-11-12T18:31:17.302Z""","941","materials/imgs/D24.png","arrowleft","","[""materials/imgs/D36.png"",""materials/imgs/D8.png""]","false","validation","","",""
"","","","","","html-keyboard-response","294","322904","0.0-17.0-0.3-0.21","n2poat8str","","n2poat8str","""2024-11-12T18:31:17.302Z""","null","+","null","","","","","","",""
"","","","","","image-keyboard-response","295","323677","0.0-17.0-0.3-1.21","n2poat8str","","n2poat8str","""2024-11-12T18:31:17.302Z""","771","materials/imgs/D18.png","arrowright","","[""materials/imgs/D77.png"",""materials/imgs/D47.png""]","false","random","","",""
"","","","","","html-keyboard-response","296","324178","0.0-17.0-0.3-0.22","n2poat8str","","n2poat8str","""2024-11-12T18:31:17.302Z""","null","+","null","","","","","","",""
"","","","","","image-keyboard-response","297","325240","0.0-17.0-0.3-1.22","n2poat8str","","n2poat8str","""2024-11-12T18:31:17.302Z""","1059","materials/imgs/D51.png","arrowright","","[""materials/imgs/D29.png"",""materials/imgs/D81.png""]","false","random","","",""
"","","","","","html-keyboard-response","298","325741","0.0-17.0-0.3-0.23","n2poat8str","","n2poat8str","""2024-11-12T18:31:17.302Z""","null","+","null","","","","","","",""
"","","","","","image-keyboard-response","299","326985","0.0-17.0-0.3-1.23","n2poat8str","","n2poat8str","""2024-11-12T18:31:17.302Z""","1242","materials/imgs/D84.png","arrowleft","","[""materials/imgs/D77.png"",""materials/imgs/D111.png""]","false","random","","",""
"","","","","","html-keyboard-response","300","327487","0.0-17.0-0.3-0.24","n2poat8str","","n2poat8str","""2024-11-12T18:31:17.302Z""","null","+","null","","","","","","",""
"","","","","","image-keyboard-response","301","328936","0.0-17.0-0.3-1.24","n2poat8str","","n2poat8str","""2024-11-12T18:31:17.302Z""","1447","materials/imgs/D105.png","arrowright","","[""materials/imgs/D6.png"",""materials/imgs/D35.png""]","false","random","","",""
"","","","","","html-keyboard-response","302","329437","0.0-17.0-0.3-0.25","n2poat8str","","n2poat8str","""2024-11-12T18:31:17.302Z""","null","+","null","","","","","","",""
"","","","","","image-keyboard-response","303","330419","0.0-17.0-0.3-1.25","n2poat8str","","n2poat8str","""2024-11-12T18:31:17.302Z""","979","materials/imgs/D75.png","arrowleft","","[""materials/imgs/D81.png"",""materials/imgs/D68.png""]","false","random","","",""
"","","","","","html-keyboard-response","304","330920","0.0-17.0-0.3-0.26","n2poat8str","","n2poat8str","""2024-11-12T18:31:17.302Z""","null","+","null","","","","","","",""
"","","","","","image-keyboard-response","305","332403","0.0-17.0-0.3-1.26","n2poat8str","","n2poat8str","""2024-11-12T18:31:17.302Z""","1480","materials/imgs/D52.png","arrowleft","","[""materials/imgs/D66.png"",""materials/imgs/D76.png""]","false","random","","",""
"","","","","","html-keyboard-response","306","332904","0.0-17.0-0.3-0.27","n2poat8str","","n2poat8str","""2024-11-12T18:31:17.302Z""","null","+","null","","","","","","",""
"","","","","","image-keyboard-response","307","334510","0.0-17.0-0.3-1.27","n2poat8str","","n2poat8str","""2024-11-12T18:31:17.302Z""","1603","materials/imgs/D96.png","arrowleft","","[""materials/imgs/D53.png"",""materials/imgs/D104.png""]","false","random","","",""
"","","","","","html-keyboard-response","308","335012","0.0-17.0-1.3-0.3","n2poat8str","","n2poat8str","""2024-11-12T18:31:17.302Z""","null","+","null","","","","","","",""
"","","","","","image-keyboard-response","309","335612","0.0-17.0-1.3-1.3","n2poat8str","","n2poat8str","""2024-11-12T18:31:17.302Z""","598","materials/imgs/D101.png","arrowright","","[""materials/imgs/D106.png"",""materials/imgs/D101.png""]","","check","materials/imgs/D101.png","1","true"
"","","","","","html-keyboard-response","310","336113","0.0-17.0-2.3-0.6","n2poat8str","","n2poat8str","""2024-11-12T18:31:17.302Z""","null","+","null","","","","","","",""
"","","","","","image-keyboard-response","311","337040","0.0-17.0-2.3-1.6","n2poat8str","","n2poat8str","""2024-11-12T18:31:17.302Z""","925","materials/imgs/D46.png","arrowleft","","[""materials/imgs/D92.png"",""materials/imgs/D77.png""]","false","validation","","",""
"","","","","","html-keyboard-response","312","337542","0.0-17.0-2.3-0.7","n2poat8str","","n2poat8str","""2024-11-12T18:31:17.302Z""","null","+","null","","","","","","",""
"","","","","","image-keyboard-response","313","338044","0.0-17.0-2.3-1.7","n2poat8str","","n2poat8str","""2024-11-12T18:31:17.302Z""","500","materials/imgs/D105.png","arrowleft","","[""materials/imgs/D106.png"",""materials/imgs/D52.png""]","false","validation","","",""
"","","","","","html-keyboard-response","314","338545","0.0-17.0-0.4-0.28","n2poat8str","","n2poat8str","""2024-11-12T18:31:17.302Z""","null","+","null","","","","","","",""
"","","","","","image-keyboard-response","315","340365","0.0-17.0-0.4-1.28","n2poat8str","","n2poat8str","""2024-11-12T18:31:17.302Z""","1818","materials/imgs/D4.png","arrowright","","[""materials/imgs/D8.png"",""materials/imgs/D51.png""]","false","random","","",""
"","","","","","html-keyboard-response","316","340866","0.0-17.0-0.4-0.29","n2poat8str","","n2poat8str","""2024-11-12T18:31:17.302Z""","null","+","null","","","","","","",""
"","","","","","image-keyboard-response","317","341650","0.0-17.0-0.4-1.29","n2poat8str","","n2poat8str","""2024-11-12T18:31:17.302Z""","781","materials/imgs/D104.png","arrowleft","","[""materials/imgs/D87.png"",""materials/imgs/D32.png""]","false","random","","",""
"","","","","","html-keyboard-response","318","342151","0.0-17.0-0.4-0.30","n2poat8str","","n2poat8str","""2024-11-12T18:31:17.302Z""","null","+","null","","","","","","",""
"","","","","","image-keyboard-response","319","345047","0.0-17.0-0.4-1.30","n2poat8str","","n2poat8str","""2024-11-12T18:31:17.302Z""","2893","materials/imgs/D25.png","arrowright","","[""materials/imgs/D77.png"",""materials/imgs/D76.png""]","false","random","","",""
"","","","","","html-keyboard-response","320","345548","0.0-17.0-0.4-0.31","n2poat8str","","n2poat8str","""2024-11-12T18:31:17.302Z""","null","+","null","","","","","","",""
"","","","","","image-keyboard-response","321","347584","0.0-17.0-0.4-1.31","n2poat8str","","n2poat8str","""2024-11-12T18:31:17.302Z""","2034","materials/imgs/D48.png","arrowright","","[""materials/imgs/D29.png"",""materials/imgs/D11.png""]","false","random","","",""
"","","","","","html-keyboard-response","322","348085","0.0-17.0-0.4-0.32","n2poat8str","","n2poat8str","""2024-11-12T18:31:17.302Z""","null","+","null","","","","","","",""
"","","","","","image-keyboard-response","323","349118","0.0-17.0-0.4-1.32","n2poat8str","","n2poat8str","""2024-11-12T18:31:17.302Z""","1031","materials/imgs/D92.png","arrowright","","[""materials/imgs/D111.png"",""materials/imgs/D29.png""]","false","random","","",""
"","","","","","html-keyboard-response","324","349619","0.0-17.0-0.4-0.33","n2poat8str","","n2poat8str","""2024-11-12T18:31:17.302Z""","null","+","null","","","","","","",""
"","","","","","image-keyboard-response","325","350548","0.0-17.0-0.4-1.33","n2poat8str","","n2poat8str","""2024-11-12T18:31:17.302Z""","927","materials/imgs/D84.png","arrowright","","[""materials/imgs/D94.png"",""materials/imgs/D77.png""]","false","random","","",""
"","","","","","html-keyboard-response","326","351049","0.0-17.0-0.4-0.34","n2poat8str","","n2poat8str","""2024-11-12T18:31:17.302Z""","null","+","null","","","","","","",""
"","","","","","image-keyboard-response","327","351691","0.0-17.0-0.4-1.34","n2poat8str","","n2poat8str","""2024-11-12T18:31:17.302Z""","640","materials/imgs/D57.png","arrowleft","","[""materials/imgs/D36.png"",""materials/imgs/D95.png""]","false","random","","",""
"","","","","","html-keyboard-response","328","352192","0.0-17.0-1.4-0.4","n2poat8str","","n2poat8str","""2024-11-12T18:31:17.302Z""","null","+","null","","","","","","",""
"","","","","","image-keyboard-response","329","352738","0.0-17.0-1.4-1.4","n2poat8str","","n2poat8str","""2024-11-12T18:31:17.302Z""","545","materials/imgs/D64.png","arrowleft","","[""materials/imgs/D64.png"",""materials/imgs/D53.png""]","","check","materials/imgs/D64.png","0","true"
"","","","","","html-keyboard-response","330","353239","0.0-17.0-2.4-0.8","n2poat8str","","n2poat8str","""2024-11-12T18:31:17.302Z""","null","+","null","","","","","","",""
"","","","","","image-keyboard-response","331","354665","0.0-17.0-2.4-1.8","n2poat8str","","n2poat8str","""2024-11-12T18:31:17.302Z""","1424","materials/imgs/D18.png","arrowleft","","[""materials/imgs/D32.png"",""materials/imgs/D57.png""]","false","validation","","",""
"","","","","","html-keyboard-response","332","355166","0.0-17.0-2.4-0.9","n2poat8str","","n2poat8str","""2024-11-12T18:31:17.302Z""","null","+","null","","","","","","",""
"","","","","","image-keyboard-response","333","356229","0.0-17.0-2.4-1.9","n2poat8str","","n2poat8str","""2024-11-12T18:31:17.302Z""","1061","materials/imgs/D49.png","arrowright","","[""materials/imgs/D8.png"",""materials/imgs/D101.png""]","false","validation","","",""
"","","","","","html-button-response","334","357378","0.0-18.0","n2poat8str","","n2poat8str","""2024-11-12T18:31:17.302Z""","1148","You have completed 75% of the trials. Please click 'Continue' when you are ready proceed.","0","","","","","","",""
"","","","","","html-keyboard-response","335","357879","0.0-19.0-0.0-0.0","n2poat8str","","n2poat8str","""2024-11-12T18:31:17.302Z""","null","+","null","","","","","","",""
"","","","","","image-keyboard-response","336","359950","0.0-19.0-0.0-1.0","n2poat8str","","n2poat8str","""2024-11-12T18:31:17.302Z""","2069","materials/imgs/D74.png","arrowright","","[""materials/imgs/D78.png"",""materials/imgs/D76.png""]","false","random","","",""
"","","","","","html-keyboard-response","337","360451","0.0-19.0-0.0-0.1","n2poat8str","","n2poat8str","""2024-11-12T18:31:17.302Z""","null","+","null","","","","","","",""
"","","","","","image-keyboard-response","338","361858","0.0-19.0-0.0-1.1","n2poat8str","","n2poat8str","""2024-11-12T18:31:17.302Z""","1405","materials/imgs/D106.png","arrowleft","","[""materials/imgs/D102.png"",""materials/imgs/D29.png""]","false","random","","",""
"","","","","","html-keyboard-response","339","362359","0.0-19.0-0.0-0.2","n2poat8str","","n2poat8str","""2024-11-12T18:31:17.302Z""","null","+","null","","","","","","",""
"","","","","","image-keyboard-response","340","363674","0.0-19.0-0.0-1.2","n2poat8str","","n2poat8str","""2024-11-12T18:31:17.302Z""","1313","materials/imgs/D82.png","arrowleft","","[""materials/imgs/D85.png"",""materials/imgs/D48.png""]","false","random","","",""
"","","","","","html-keyboard-response","341","364175","0.0-19.0-0.0-0.3","n2poat8str","","n2poat8str","""2024-11-12T18:31:17.302Z""","null","+","null","","","","","","",""
"","","","","","image-keyboard-response","342","364952","0.0-19.0-0.0-1.3","n2poat8str","","n2poat8str","""2024-11-12T18:31:17.302Z""","775","materials/imgs/D106.png","arrowleft","","[""materials/imgs/D83.png"",""materials/imgs/D52.png""]","false","random","","",""
"","","","","","html-keyboard-response","343","365453","0.0-19.0-0.0-0.4","n2poat8str","","n2poat8str","""2024-11-12T18:31:17.302Z""","null","+","null","","","","","","",""
"","","","","","image-keyboard-response","344","366638","0.0-19.0-0.0-1.4","n2poat8str","","n2poat8str","""2024-11-12T18:31:17.302Z""","1184","materials/imgs/D35.png","arrowleft","","[""materials/imgs/D104.png"",""materials/imgs/D81.png""]","false","random","","",""
"","","","","","html-keyboard-response","345","367140","0.0-19.0-0.0-0.5","n2poat8str","","n2poat8str","""2024-11-12T18:31:17.302Z""","null","+","null","","","","","","",""
"","","","","","image-keyboard-response","346","369310","0.0-19.0-0.0-1.5","n2poat8str","","n2poat8str","""2024-11-12T18:31:17.302Z""","2169","materials/imgs/D46.png","arrowleft","","[""materials/imgs/D95.png"",""materials/imgs/D79.png""]","false","random","","",""
"","","","","","html-keyboard-response","347","369811","0.0-19.0-0.0-0.6","n2poat8str","","n2poat8str","""2024-11-12T18:31:17.302Z""","null","+","null","","","","","","",""
"","","","","","image-keyboard-response","348","370665","0.0-19.0-0.0-1.6","n2poat8str","","n2poat8str","""2024-11-12T18:31:17.302Z""","852","materials/imgs/D21.png","arrowright","","[""materials/imgs/D68.png"",""materials/imgs/D85.png""]","false","random","","",""
"","","","","","html-keyboard-response","349","371166","0.0-19.0-1.0-0.0","n2poat8str","","n2poat8str","""2024-11-12T18:31:17.302Z""","null","+","null","","","","","","",""
"","","","","","image-keyboard-response","350","371744","0.0-19.0-1.0-1.0","n2poat8str","","n2poat8str","""2024-11-12T18:31:17.302Z""","575","materials/imgs/D76.png","arrowleft","","[""materials/imgs/D76.png"",""materials/imgs/D78.png""]","","check","materials/imgs/D76.png","0","true"
"","","","","","html-keyboard-response","351","372245","0.0-19.0-2.0-0.0","n2poat8str","","n2poat8str","""2024-11-12T18:31:17.302Z""","null","+","null","","","","","","",""
"","","","","","image-keyboard-response","352","374295","0.0-19.0-2.0-1.0","n2poat8str","","n2poat8str","""2024-11-12T18:31:17.302Z""","2048","materials/imgs/D106.png","arrowright","","[""materials/imgs/D57.png"",""materials/imgs/D18.png""]","false","validation","","",""
"","","","","","html-keyboard-response","353","374795","0.0-19.0-2.0-0.1","n2poat8str","","n2poat8str","""2024-11-12T18:31:17.302Z""","null","+","null","","","","","","",""
"","","","","","image-keyboard-response","354","376679","0.0-19.0-2.0-1.1","n2poat8str","","n2poat8str","""2024-11-12T18:31:17.302Z""","1882","materials/imgs/D84.png","arrowright","","[""materials/imgs/D106.png"",""materials/imgs/D37.png""]","false","validation","","",""
"","","","","","html-keyboard-response","355","377180","0.0-19.0-0.1-0.7","n2poat8str","","n2poat8str","""2024-11-12T18:31:17.302Z""","null","+","null","","","","","","",""
"","","","","","image-keyboard-response","356","377698","0.0-19.0-0.1-1.7","n2poat8str","","n2poat8str","""2024-11-12T18:31:17.302Z""","516","materials/imgs/D103.png","arrowright","","[""materials/imgs/D78.png"",""materials/imgs/D104.png""]","false","random","","",""
"","","","","","html-keyboard-response","357","378199","0.0-19.0-0.1-0.8","n2poat8str","","n2poat8str","""2024-11-12T18:31:17.302Z""","null","+","null","","","","","","",""
"","","","","","image-keyboard-response","358","379263","0.0-19.0-0.1-1.8","n2poat8str","","n2poat8str","""2024-11-12T18:31:17.302Z""","1062","materials/imgs/D94.png","arrowleft","","[""materials/imgs/D104.png"",""materials/imgs/D105.png""]","false","random","","",""
"","","","","","html-keyboard-response","359","379764","0.0-19.0-0.1-0.9","n2poat8str","","n2poat8str","""2024-11-12T18:31:17.302Z""","null","+","null","","","","","","",""
"","","","","","image-keyboard-response","360","381237","0.0-19.0-0.1-1.9","n2poat8str","","n2poat8str","""2024-11-12T18:31:17.302Z""","1471","materials/imgs/D25.png","arrowleft","","[""materials/imgs/D85.png"",""materials/imgs/D34.png""]","false","random","","",""
"","","","","","html-keyboard-response","361","381738","0.0-19.0-0.1-0.10","n2poat8str","","n2poat8str","""2024-11-12T18:31:17.302Z""","null","+","null","","","","","","",""
"","","","","","image-keyboard-response","362","382922","0.0-19.0-0.1-1.10","n2poat8str","","n2poat8str","""2024-11-12T18:31:17.302Z""","1182","materials/imgs/D104.png","arrowleft","","[""materials/imgs/D1.png"",""materials/imgs/D77.png""]","false","random","","",""
"","","","","","html-keyboard-response","363","383424","0.0-19.0-0.1-0.11","n2poat8str","","n2poat8str","""2024-11-12T18:31:17.302Z""","null","+","null","","","","","","",""
"","","","","","image-keyboard-response","364","385830","0.0-19.0-0.1-1.11","n2poat8str","","n2poat8str","""2024-11-12T18:31:17.302Z""","2403","materials/imgs/D81.png","arrowleft","","[""materials/imgs/D46.png"",""materials/imgs/D34.png""]","false","random","","",""
"","","","","","html-keyboard-response","365","386331","0.0-19.0-0.1-0.12","n2poat8str","","n2poat8str","""2024-11-12T18:31:17.302Z""","null","+","null","","","","","","",""
"","","","","","image-keyboard-response","366","387732","0.0-19.0-0.1-1.12","n2poat8str","","n2poat8str","""2024-11-12T18:31:17.302Z""","1399","materials/imgs/D1.png","arrowright","","[""materials/imgs/D37.png"",""materials/imgs/D48.png""]","false","random","","",""
"","","","","","html-keyboard-response","367","388233","0.0-19.0-0.1-0.13","n2poat8str","","n2poat8str","""2024-11-12T18:31:17.302Z""","null","+","null","","","","","","",""
"","","","","","image-keyboard-response","368","389038","0.0-19.0-0.1-1.13","n2poat8str","","n2poat8str","""2024-11-12T18:31:17.302Z""","803","materials/imgs/D64.png","arrowright","","[""materials/imgs/D105.png"",""materials/imgs/D95.png""]","false","random","","",""
"","","","","","html-keyboard-response","369","389539","0.0-19.0-1.1-0.1","n2poat8str","","n2poat8str","""2024-11-12T18:31:17.302Z""","null","+","null","","","","","","",""
"","","","","","image-keyboard-response","370","390048","0.0-19.0-1.1-1.1","n2poat8str","","n2poat8str","""2024-11-12T18:31:17.302Z""","507","materials/imgs/D26.png","arrowleft","","[""materials/imgs/D26.png"",""materials/imgs/D46.png""]","","check","materials/imgs/D26.png","0","true"
"","","","","","html-keyboard-response","371","390549","0.0-19.0-2.1-0.2","n2poat8str","","n2poat8str","""2024-11-12T18:31:17.302Z""","null","+","null","","","","","","",""
"","","","","","image-keyboard-response","372","391225","0.0-19.0-2.1-1.2","n2poat8str","","n2poat8str","""2024-11-12T18:31:17.302Z""","674","materials/imgs/D9.png","arrowright","","[""materials/imgs/D103.png"",""materials/imgs/D4.png""]","false","validation","","",""
"","","","","","html-keyboard-response","373","391726","0.0-19.0-2.1-0.3","n2poat8str","","n2poat8str","""2024-11-12T18:31:17.302Z""","null","+","null","","","","","","",""
"","","","","","image-keyboard-response","374","393253","0.0-19.0-2.1-1.3","n2poat8str","","n2poat8str","""2024-11-12T18:31:17.302Z""","1524","materials/imgs/D64.png","arrowleft","","[""materials/imgs/D6.png"",""materials/imgs/D81.png""]","false","validation","","",""
"","","","","","html-keyboard-response","375","393754","0.0-19.0-0.2-0.14","n2poat8str","","n2poat8str","""2024-11-12T18:31:17.302Z""","null","+","null","","","","","","",""
"","","","","","image-keyboard-response","376","394794","0.0-19.0-0.2-1.14","n2poat8str","","n2poat8str","""2024-11-12T18:31:17.302Z""","1038","materials/imgs/D102.png","arrowright","","[""materials/imgs/D111.png"",""materials/imgs/D16.png""]","false","random","","",""
"","","","","","html-keyboard-response","377","395296","0.0-19.0-0.2-0.15","n2poat8str","","n2poat8str","""2024-11-12T18:31:17.302Z""","null","+","null","","","","","","",""
"","","","","","image-keyboard-response","378","396820","0.0-19.0-0.2-1.15","n2poat8str","","n2poat8str","""2024-11-12T18:31:17.302Z""","1523","materials/imgs/D17.png","arrowright","","[""materials/imgs/D49.png"",""materials/imgs/D20.png""]","false","random","","",""
"","","","","","html-keyboard-response","379","397322","0.0-19.0-0.2-0.16","n2poat8str","","n2poat8str","""2024-11-12T18:31:17.302Z""","null","+","null","","","","","","",""
"","","","","","image-keyboard-response","380","398085","0.0-19.0-0.2-1.16","n2poat8str","","n2poat8str","""2024-11-12T18:31:17.302Z""","761","materials/imgs/D81.png","arrowright","","[""materials/imgs/D1.png"",""materials/imgs/D82.png""]","false","random","","",""
"","","","","","html-keyboard-response","381","398586","0.0-19.0-0.2-0.17","n2poat8str","","n2poat8str","""2024-11-12T18:31:17.302Z""","null","+","null","","","","","","",""
"","","","","","image-keyboard-response","382","399679","0.0-19.0-0.2-1.17","n2poat8str","","n2poat8str","""2024-11-12T18:31:17.302Z""","1091","materials/imgs/D96.png","arrowleft","","[""materials/imgs/D20.png"",""materials/imgs/D68.png""]","false","random","","",""
"","","","","","html-keyboard-response","383","400180","0.0-19.0-0.2-0.18","n2poat8str","","n2poat8str","""2024-11-12T18:31:17.302Z""","null","+","null","","","","","","",""
"","","","","","image-keyboard-response","384","401040","0.0-19.0-0.2-1.18","n2poat8str","","n2poat8str","""2024-11-12T18:31:17.302Z""","857","materials/imgs/D102.png","arrowright","","[""materials/imgs/D29.png"",""materials/imgs/D96.png""]","false","random","","",""
"","","","","","html-keyboard-response","385","401541","0.0-19.0-0.2-0.19","n2poat8str","","n2poat8str","""2024-11-12T18:31:17.302Z""","null","+","null","","","","","","",""
"","","","","","image-keyboard-response","386","402605","0.0-19.0-0.2-1.19","n2poat8str","","n2poat8str","""2024-11-12T18:31:17.302Z""","1061","materials/imgs/D4.png","arrowleft","","[""materials/imgs/D79.png"",""materials/imgs/D111.png""]","false","random","","",""
"","","","","","html-keyboard-response","387","403106","0.0-19.0-0.2-0.20","n2poat8str","","n2poat8str","""2024-11-12T18:31:17.302Z""","null","+","null","","","","","","",""
"","","","","","image-keyboard-response","388","404459","0.0-19.0-0.2-1.20","n2poat8str","","n2poat8str","""2024-11-12T18:31:17.302Z""","1350","materials/imgs/D57.png","arrowright","","[""materials/imgs/D82.png"",""materials/imgs/D106.png""]","false","random","","",""
"","","","","","html-keyboard-response","389","404959","0.0-19.0-1.2-0.2","n2poat8str","","n2poat8str","""2024-11-12T18:31:17.302Z""","null","+","null","","","","","","",""
"","","","","","image-keyboard-response","390","405483","0.0-19.0-1.2-1.2","n2poat8str","","n2poat8str","""2024-11-12T18:31:17.302Z""","521","materials/imgs/D106.png","arrowleft","","[""materials/imgs/D106.png"",""materials/imgs/D101.png""]","","check","materials/imgs/D106.png","0","true"
"","","","","","html-keyboard-response","391","405985","0.0-19.0-2.2-0.4","n2poat8str","","n2poat8str","""2024-11-12T18:31:17.302Z""","null","+","null","","","","","","",""
"","","","","","image-keyboard-response","392","408147","0.0-19.0-2.2-1.4","n2poat8str","","n2poat8str","""2024-11-12T18:31:17.302Z""","2160","materials/imgs/D6.png","arrowright","","[""materials/imgs/D26.png"",""materials/imgs/D76.png""]","false","validation","","",""
"","","","","","html-keyboard-response","393","408648","0.0-19.0-2.2-0.5","n2poat8str","","n2poat8str","""2024-11-12T18:31:17.302Z""","null","+","null","","","","","","",""
"","","","","","image-keyboard-response","394","411014","0.0-19.0-2.2-1.5","n2poat8str","","n2poat8str","""2024-11-12T18:31:17.302Z""","2364","materials/imgs/D16.png","arrowleft","","[""materials/imgs/D52.png"",""materials/imgs/D25.png""]","false","validation","","",""
"","","","","","html-keyboard-response","395","411516","0.0-19.0-0.3-0.21","n2poat8str","","n2poat8str","""2024-11-12T18:31:17.302Z""","null","+","null","","","","","","",""
"","","","","","image-keyboard-response","396","413328","0.0-19.0-0.3-1.21","n2poat8str","","n2poat8str","""2024-11-12T18:31:17.302Z""","1811","materials/imgs/D3.png","arrowright","","[""materials/imgs/D82.png"",""materials/imgs/D85.png""]","false","random","","",""
"","","","","","html-keyboard-response","397","413829","0.0-19.0-0.3-0.22","n2poat8str","","n2poat8str","""2024-11-12T18:31:17.302Z""","null","+","null","","","","","","",""
"","","","","","image-keyboard-response","398","414814","0.0-19.0-0.3-1.22","n2poat8str","","n2poat8str","""2024-11-12T18:31:17.302Z""","982","materials/imgs/D77.png","arrowleft","","[""materials/imgs/D9.png"",""materials/imgs/D74.png""]","false","random","","",""
"","","","","","html-keyboard-response","399","415315","0.0-19.0-0.3-0.23","n2poat8str","","n2poat8str","""2024-11-12T18:31:17.302Z""","null","+","null","","","","","","",""
"","","","","","image-keyboard-response","400","417113","0.0-19.0-0.3-1.23","n2poat8str","","n2poat8str","""2024-11-12T18:31:17.302Z""","1796","materials/imgs/D76.png","arrowright","","[""materials/imgs/D101.png"",""materials/imgs/D35.png""]","false","random","","",""
"","","","","","html-keyboard-response","401","417615","0.0-19.0-0.3-0.24","n2poat8str","","n2poat8str","""2024-11-12T18:31:17.302Z""","null","+","null","","","","","","",""
"","","","","","image-keyboard-response","402","418610","0.0-19.0-0.3-1.24","n2poat8str","","n2poat8str","""2024-11-12T18:31:17.302Z""","993","materials/imgs/D20.png","arrowleft","","[""materials/imgs/D8.png"",""materials/imgs/D111.png""]","false","random","","",""
"","","","","","html-keyboard-response","403","419111","0.0-19.0-0.3-0.25","n2poat8str","","n2poat8str","""2024-11-12T18:31:17.302Z""","null","+","null","","","","","","",""
"","","","","","image-keyboard-response","404","420011","0.0-19.0-0.3-1.25","n2poat8str","","n2poat8str","""2024-11-12T18:31:17.302Z""","898","materials/imgs/D11.png","arrowright","","[""materials/imgs/D103.png"",""materials/imgs/D64.png""]","false","random","","",""
"","","","","","html-keyboard-response","405","420512","0.0-19.0-0.3-0.26","n2poat8str","","n2poat8str","""2024-11-12T18:31:17.302Z""","null","+","null","","","","","","",""
"","","","","","image-keyboard-response","406","422626","0.0-19.0-0.3-1.26","n2poat8str","","n2poat8str","""2024-11-12T18:31:17.302Z""","2112","materials/imgs/D80.png","arrowright","","[""materials/imgs/D85.png"",""materials/imgs/D79.png""]","false","random","","",""
"","","","","","html-keyboard-response","407","423128","0.0-19.0-0.3-0.27","n2poat8str","","n2poat8str","""2024-11-12T18:31:17.302Z""","null","+","null","","","","","","",""
"","","","","","image-keyboard-response","408","425483","0.0-19.0-0.3-1.27","n2poat8str","","n2poat8str","""2024-11-12T18:31:17.302Z""","2353","materials/imgs/D22.png","arrowright","","[""materials/imgs/D46.png"",""materials/imgs/D68.png""]","false","random","","",""
"","","","","","html-keyboard-response","409","425984","0.0-19.0-1.3-0.3","n2poat8str","","n2poat8str","""2024-11-12T18:31:17.302Z""","null","+","null","","","","","","",""
"","","","","","image-keyboard-response","410","426583","0.0-19.0-1.3-1.3","n2poat8str","","n2poat8str","""2024-11-12T18:31:17.302Z""","597","materials/imgs/D26.png","arrowleft","","[""materials/imgs/D26.png"",""materials/imgs/D46.png""]","","check","materials/imgs/D26.png","0","true"
"","","","","","html-keyboard-response","411","427085","0.0-19.0-2.3-0.6","n2poat8str","","n2poat8str","""2024-11-12T18:31:17.302Z""","null","+","null","","","","","","",""
"","","","","","image-keyboard-response","412","427911","0.0-19.0-2.3-1.6","n2poat8str","","n2poat8str","""2024-11-12T18:31:17.302Z""","824","materials/imgs/D20.png","arrowright","","[""materials/imgs/D84.png"",""materials/imgs/D85.png""]","false","validation","","",""
"","","","","","html-keyboard-response","413","428412","0.0-19.0-2.3-0.7","n2poat8str","","n2poat8str","""2024-11-12T18:31:17.302Z""","null","+","null","","","","","","",""
"","","","","","image-keyboard-response","414","429803","0.0-19.0-2.3-1.7","n2poat8str","","n2poat8str","""2024-11-12T18:31:17.302Z""","1388","materials/imgs/D52.png","arrowright","","[""materials/imgs/D9.png"",""materials/imgs/D19.png""]","false","validation","","",""
"","","","","","html-keyboard-response","415","430304","0.0-19.0-0.4-0.28","n2poat8str","","n2poat8str","""2024-11-12T18:31:17.302Z""","null","+","null","","","","","","",""
"","","","","","image-keyboard-response","416","431069","0.0-19.0-0.4-1.28","n2poat8str","","n2poat8str","""2024-11-12T18:31:17.302Z""","763","materials/imgs/D8.png","arrowleft","","[""materials/imgs/D46.png"",""materials/imgs/D35.png""]","false","random","","",""
"","","","","","html-keyboard-response","417","431570","0.0-19.0-0.4-0.29","n2poat8str","","n2poat8str","""2024-11-12T18:31:17.302Z""","null","+","null","","","","","","",""
"","","","","","image-keyboard-response","418","432632","0.0-19.0-0.4-1.29","n2poat8str","","n2poat8str","""2024-11-12T18:31:17.302Z""","1060","materials/imgs/D76.png","arrowleft","","[""materials/imgs/D102.png"",""materials/imgs/D6.png""]","false","random","","",""
"","","","","","html-keyboard-response","419","433133","0.0-19.0-0.4-0.30","n2poat8str","","n2poat8str","""2024-11-12T18:31:17.302Z""","null","+","null","","","","","","",""
"","","","","","image-keyboard-response","420","434516","0.0-19.0-0.4-1.30","n2poat8str","","n2poat8str","""2024-11-12T18:31:17.302Z""","1381","materials/imgs/D84.png","arrowright","","[""materials/imgs/D48.png"",""materials/imgs/D25.png""]","false","random","","",""
"","","","","","html-keyboard-response","421","435018","0.0-19.0-0.4-0.31","n2poat8str","","n2poat8str","""2024-11-12T18:31:17.302Z""","null","+","null","","","","","","",""
"","","","","","image-keyboard-response","422","435647","0.0-19.0-0.4-1.31","n2poat8str","","n2poat8str","""2024-11-12T18:31:17.302Z""","626","materials/imgs/D95.png","arrowleft","","[""materials/imgs/D104.png"",""materials/imgs/D80.png""]","false","random","","",""
"","","","","","html-keyboard-response","423","436148","0.0-19.0-0.4-0.32","n2poat8str","","n2poat8str","""2024-11-12T18:31:17.302Z""","null","+","null","","","","","","",""
"","","","","","image-keyboard-response","424","437409","0.0-19.0-0.4-1.32","n2poat8str","","n2poat8str","""2024-11-12T18:31:17.302Z""","1260","materials/imgs/D66.png","arrowleft","","[""materials/imgs/D47.png"",""materials/imgs/D76.png""]","false","random","","",""
"","","","","","html-keyboard-response","425","437910","0.0-19.0-0.4-0.33","n2poat8str","","n2poat8str","""2024-11-12T18:31:17.302Z""","null","+","null","","","","","","",""
"","","","","","image-keyboard-response","426","438520","0.0-19.0-0.4-1.33","n2poat8str","","n2poat8str","""2024-11-12T18:31:17.302Z""","608","materials/imgs/D79.png","arrowright","","[""materials/imgs/D101.png"",""materials/imgs/D14.png""]","false","random","","",""
"","","","","","html-keyboard-response","427","439022","0.0-19.0-0.4-0.34","n2poat8str","","n2poat8str","""2024-11-12T18:31:17.302Z""","null","+","null","","","","","","",""
"","","","","","image-keyboard-response","428","440727","0.0-19.0-0.4-1.34","n2poat8str","","n2poat8str","""2024-11-12T18:31:17.302Z""","1703","materials/imgs/D51.png","arrowleft","","[""materials/imgs/D53.png"",""materials/imgs/D25.png""]","false","random","","",""
"","","","","","html-keyboard-response","429","441229","0.0-19.0-1.4-0.4","n2poat8str","","n2poat8str","""2024-11-12T18:31:17.302Z""","null","+","null","","","","","","",""
"","","","","","image-keyboard-response","430","441881","0.0-19.0-1.4-1.4","n2poat8str","","n2poat8str","""2024-11-12T18:31:17.302Z""","650","materials/imgs/D64.png","arrowleft","","[""materials/imgs/D64.png"",""materials/imgs/D53.png""]","","check","materials/imgs/D64.png","0","true"
"","","","","","html-keyboard-response","431","442382","0.0-19.0-2.4-0.8","n2poat8str","","n2poat8str","""2024-11-12T18:31:17.302Z""","null","+","null","","","","","","",""
"","","","","","image-keyboard-response","432","443809","0.0-19.0-2.4-1.8","n2poat8str","","n2poat8str","""2024-11-12T18:31:17.302Z""","1424","materials/imgs/D35.png","arrowright","","[""materials/imgs/D83.png"",""materials/imgs/D24.png""]","false","validation","","",""
"","","","","","html-keyboard-response","433","444310","0.0-19.0-2.4-0.9","n2poat8str","","n2poat8str","""2024-11-12T18:31:17.302Z""","null","+","null","","","","","","",""
"","","","","","image-keyboard-response","434","446195","0.0-19.0-2.4-1.9","n2poat8str","","n2poat8str","""2024-11-12T18:31:17.302Z""","1883","materials/imgs/D66.png","arrowright","","[""materials/imgs/D85.png"",""materials/imgs/D25.png""]","false","validation","","",""
