"success","timeout","failed_images","failed_audio","failed_video","trial_type","trial_index","time_elapsed","internal_node_id","subject_id","sona_id","subjectID","dateInfo","rt","stimulus","response","question_order","choices","speedy","sampleAlg","selected_image","selected_index","correct"
"true","false","[]","[]","[]","preload","0","342","0.0-0.0","n6m9dx069t","","n6m9dx069t","""2024-11-13T04:21:43.602Z""","","","","","","","","","",""
"true","","","","","fullscreen","1","2162","0.0-1.0","n6m9dx069t","","n6m9dx069t","""2024-11-13T04:21:43.602Z""","","","","","","","","","",""
"","","","","","html-keyboard-response","2","2174","0.0-2.0","n6m9dx069t","","n6m9dx069t","""2024-11-13T04:21:43.602Z""","null","","null","","","","","","",""
"","","","","","html-button-response","3","3984","0.0-3.0","n6m9dx069t","","n6m9dx069t","""2024-11-13T04:21:43.602Z""","1809","<div style='text-align:center; font-size:20px; line-height:25px; width: 1200px;'>
                Welcome to our experiment! <br>
                <br>At the bottom of this screen, you will see a button that says 'Begin Experiment.
                <br>Please only click that button when you are ready to complete the 25 minute experiment in one sitting. <br>
                <br> Once you click that button, it will not be possible to restart the experiment. <br><br>","0","","","","","","",""
"true","","","","","fullscreen","4","5899","0.0-4.0","n6m9dx069t","","n6m9dx069t","""2024-11-13T04:21:43.602Z""","","","","","","","","","",""
"","","","","","survey-multi-select","5","9745","0.0-5.0","n6m9dx069t","","n6m9dx069t","""2024-11-13T04:21:43.602Z""","3841","","{""Consent"":[""<strong>I consent</strong>""]}","[0]","","","","","",""
"","","","","","html-button-response","6","10872","0.0-6.0","n6m9dx069t","","n6m9dx069t","""2024-11-13T04:21:43.602Z""","1126","Welcome! <p> This experiment involves two parts: demographic information, followed by the experimental task.<p> It will take about 25 minutes to complete both parts.","0","","","","","","",""
"","","","","","survey-text","7","17151","0.0-7.0","n6m9dx069t","","n6m9dx069t","""2024-11-13T04:21:43.602Z""","6267","","{""Age"":""18"",""Gender"":""female"",""Race/ethnicity"":""white""}","","","","","","",""
"","","","","","html-button-response","8","30875","0.0-8.0","n6m9dx069t","","n6m9dx069t","""2024-11-13T04:21:43.602Z""","13722","<div style='text-align: center;'>
      <p>In each trial of this task, you will see three texture images: one target item on top, and two choices beneath the target item.</p>
      <p><strong>Please select the item that is most like the target item.</strong></p>
      <p>To select the option on the <strong>LEFT</strong>, press the <strong>LEFT ARROW</strong> key. 
      To select the option on the <strong>RIGHT</strong>, press the <strong>RIGHT ARROW</strong> key.</p>
                  <!-- Target Image at the Top -->
      <div style='margin: 20px;'>
        <img src='materials/imgs/instruction_images/InstructionImg1D78.png' alt='Target Image' style='width:200px; height:auto;' />
        <p><em>Target Image</em></p>
      </div>

      <!-- Two Choice Images Below -->
      <div style='display: flex; justify-content: center;'>
        <div style='margin-right: 50px;'>
          <img src='materials/imgs/instruction_images/InstructionImg2D34.png' alt='Choice Image 1' style='width:150px; height:auto;' />
          <p><em><strong>LEFT ARROW</strong></em></p>
        </div>
        <div style='margin-left: 50px;'>
          <img src='materials/imgs/instruction_images/InstructionImg3D80.png' alt='Choice Image 2' style='width:150px; height:auto;' />
          <p><em><strong>RIGHT ARROW</strong></em></p>
        </div>
      </div>
    </div>

      <p>When you are ready to proceed, please click 'Continue' to begin practice.</p>","0","","","","","","",""
"","","","","","html-keyboard-response","9","33378","0.0-9.0","n6m9dx069t","","n6m9dx069t","""2024-11-13T04:21:43.602Z""","null","+","null","","","","","","",""
"","","","","","html-keyboard-response","10","33880","0.0-10.0-0.0-0.0","n6m9dx069t","","n6m9dx069t","""2024-11-13T04:21:43.602Z""","null","+","null","","","","","","",""
"","","","","","image-keyboard-response","11","36668","0.0-10.0-0.0-1.0","n6m9dx069t","","n6m9dx069t","""2024-11-13T04:21:43.602Z""","2776","materials/imgs/D56.png","arrowleft","","[""materials/imgs/D95.png"",""materials/imgs/D8.png""]","false","random","","",""
"","","","","","html-keyboard-response","12","37170","0.0-10.0-0.0-0.1","n6m9dx069t","","n6m9dx069t","""2024-11-13T04:21:43.602Z""","null","+","null","","","","","","",""
"","","","","","image-keyboard-response","13","38308","0.0-10.0-0.0-1.1","n6m9dx069t","","n6m9dx069t","""2024-11-13T04:21:43.602Z""","1128","materials/imgs/D92.png","arrowleft","","[""materials/imgs/D80.png"",""materials/imgs/D75.png""]","false","random","","",""
"","","","","","html-keyboard-response","14","38811","0.0-10.0-0.0-0.2","n6m9dx069t","","n6m9dx069t","""2024-11-13T04:21:43.602Z""","null","+","null","","","","","","",""
"","","","","","image-keyboard-response","15","39596","0.0-10.0-0.0-1.2","n6m9dx069t","","n6m9dx069t","""2024-11-13T04:21:43.602Z""","778","materials/imgs/D19.png","arrowright","","[""materials/imgs/D16.png"",""materials/imgs/D92.png""]","false","random","","",""
"","","","","","html-keyboard-response","16","40099","0.0-10.0-0.0-0.3","n6m9dx069t","","n6m9dx069t","""2024-11-13T04:21:43.602Z""","null","+","null","","","","","","",""
"","","","","","image-keyboard-response","17","42856","0.0-10.0-0.0-1.3","n6m9dx069t","","n6m9dx069t","""2024-11-13T04:21:43.602Z""","2747","materials/imgs/D101.png","arrowleft","","[""materials/imgs/D25.png"",""materials/imgs/D105.png""]","false","random","","",""
"","","","","","html-keyboard-response","18","43358","0.0-10.0-0.0-0.4","n6m9dx069t","","n6m9dx069t","""2024-11-13T04:21:43.602Z""","null","+","null","","","","","","",""
"","","","","","image-keyboard-response","19","44038","0.0-10.0-0.0-1.4","n6m9dx069t","","n6m9dx069t","""2024-11-13T04:21:43.602Z""","678","materials/imgs/D95.png","arrowleft","","[""materials/imgs/D81.png"",""materials/imgs/D76.png""]","false","random","","",""
"","","","","","html-keyboard-response","20","44540","0.0-10.0-0.0-0.5","n6m9dx069t","","n6m9dx069t","""2024-11-13T04:21:43.602Z""","null","+","null","","","","","","",""
"","","","","","image-keyboard-response","21","47592","0.0-10.0-0.0-1.5","n6m9dx069t","","n6m9dx069t","""2024-11-13T04:21:43.602Z""","3046","materials/imgs/D68.png","arrowright","","[""materials/imgs/D102.png"",""materials/imgs/D48.png""]","false","random","","",""
"","","","","","html-keyboard-response","22","48094","0.0-10.0-0.0-0.6","n6m9dx069t","","n6m9dx069t","""2024-11-13T04:21:43.602Z""","null","+","null","","","","","","",""
"","","","","","image-keyboard-response","23","49301","0.0-10.0-0.0-1.6","n6m9dx069t","","n6m9dx069t","""2024-11-13T04:21:43.602Z""","1199","materials/imgs/D55.png","arrowright","","[""materials/imgs/D47.png"",""materials/imgs/D32.png""]","false","random","","",""
"","","","","","html-keyboard-response","24","49803","0.0-10.0-0.0-0.7","n6m9dx069t","","n6m9dx069t","""2024-11-13T04:21:43.602Z""","null","+","null","","","","","","",""
"","","","","","image-keyboard-response","25","50512","0.0-10.0-0.0-1.7","n6m9dx069t","","n6m9dx069t","""2024-11-13T04:21:43.602Z""","699","materials/imgs/D21.png","arrowright","","[""materials/imgs/D102.png"",""materials/imgs/D14.png""]","false","random","","",""
"","","","","","html-keyboard-response","26","51014","0.0-10.0-0.0-0.8","n6m9dx069t","","n6m9dx069t","""2024-11-13T04:21:43.602Z""","null","+","null","","","","","","",""
"","","","","","image-keyboard-response","27","52909","0.0-10.0-0.0-1.8","n6m9dx069t","","n6m9dx069t","""2024-11-13T04:21:43.602Z""","1893","materials/imgs/D95.png","arrowright","","[""materials/imgs/D103.png"",""materials/imgs/D6.png""]","false","random","","",""
"","","","","","html-keyboard-response","28","53411","0.0-10.0-0.0-0.9","n6m9dx069t","","n6m9dx069t","""2024-11-13T04:21:43.602Z""","null","+","null","","","","","","",""
"","","","","","image-keyboard-response","29","54286","0.0-10.0-0.0-1.9","n6m9dx069t","","n6m9dx069t","""2024-11-13T04:21:43.602Z""","867","materials/imgs/D52.png","arrowright","","[""materials/imgs/D77.png"",""materials/imgs/D53.png""]","false","random","","",""
"","","","","","html-button-response","30","56397","0.0-11.0","n6m9dx069t","","n6m9dx069t","""2024-11-13T04:21:43.602Z""","2109","<p>Great job!</p>
      <p>You are now ready to begin the experiment.</p>
      <p>There will be around 200 trials. You will have opportunities to take breaks at three stages of the trials.</p>
      <p>When you are ready to begin please click 'Continue'.</p>","0","","","","","","",""
"","","","","","html-keyboard-response","31","58901","0.0-12.0","n6m9dx069t","","n6m9dx069t","""2024-11-13T04:21:43.602Z""","null","+","null","","","","","","",""
"","","","","","html-keyboard-response","32","59403","0.0-13.0-0.0-0.0","n6m9dx069t","","n6m9dx069t","""2024-11-13T04:21:43.602Z""","null","+","null","","","","","","",""
"","","","","","image-keyboard-response","33","60179","0.0-13.0-0.0-1.0","n6m9dx069t","","n6m9dx069t","""2024-11-13T04:21:43.602Z""","772","materials/imgs/D77.png","arrowleft","","[""materials/imgs/D82.png"",""materials/imgs/D37.png""]","false","random","","",""
"","","","","","html-keyboard-response","34","60681","0.0-13.0-0.0-0.1","n6m9dx069t","","n6m9dx069t","""2024-11-13T04:21:43.602Z""","null","+","null","","","","","","",""
"","","","","","image-keyboard-response","35","61561","0.0-13.0-0.0-1.1","n6m9dx069t","","n6m9dx069t","""2024-11-13T04:21:43.602Z""","876","materials/imgs/D102.png","arrowleft","","[""materials/imgs/D103.png"",""materials/imgs/D78.png""]","false","random","","",""
"","","","","","html-keyboard-response","36","62063","0.0-13.0-0.0-0.2","n6m9dx069t","","n6m9dx069t","""2024-11-13T04:21:43.602Z""","null","+","null","","","","","","",""
"","","","","","image-keyboard-response","37","62829","0.0-13.0-0.0-1.2","n6m9dx069t","","n6m9dx069t","""2024-11-13T04:21:43.602Z""","764","materials/imgs/D47.png","arrowleft","","[""materials/imgs/D56.png"",""materials/imgs/D9.png""]","false","random","","",""
"","","","","","html-keyboard-response","38","63332","0.0-13.0-0.0-0.3","n6m9dx069t","","n6m9dx069t","""2024-11-13T04:21:43.602Z""","null","+","null","","","","","","",""
"","","","","","image-keyboard-response","39","64931","0.0-13.0-0.0-1.3","n6m9dx069t","","n6m9dx069t","""2024-11-13T04:21:43.602Z""","1593","materials/imgs/D36.png","arrowright","","[""materials/imgs/D11.png"",""materials/imgs/D76.png""]","false","random","","",""
"","","","","","html-keyboard-response","40","65434","0.0-13.0-0.0-0.4","n6m9dx069t","","n6m9dx069t","""2024-11-13T04:21:43.602Z""","null","+","null","","","","","","",""
"","","","","","image-keyboard-response","41","66234","0.0-13.0-0.0-1.4","n6m9dx069t","","n6m9dx069t","""2024-11-13T04:21:43.602Z""","793","materials/imgs/D111.png","arrowright","","[""materials/imgs/D51.png"",""materials/imgs/D75.png""]","false","random","","",""
"","","","","","html-keyboard-response","42","66737","0.0-13.0-0.0-0.5","n6m9dx069t","","n6m9dx069t","""2024-11-13T04:21:43.602Z""","null","+","null","","","","","","",""
"","","","","","image-keyboard-response","43","67827","0.0-13.0-0.0-1.5","n6m9dx069t","","n6m9dx069t","""2024-11-13T04:21:43.602Z""","1088","materials/imgs/D48.png","arrowright","","[""materials/imgs/D104.png"",""materials/imgs/D14.png""]","false","random","","",""
"","","","","","html-keyboard-response","44","68329","0.0-13.0-0.0-0.6","n6m9dx069t","","n6m9dx069t","""2024-11-13T04:21:43.602Z""","null","+","null","","","","","","",""
"","","","","","image-keyboard-response","45","70580","0.0-13.0-0.0-1.6","n6m9dx069t","","n6m9dx069t","""2024-11-13T04:21:43.602Z""","2244","materials/imgs/D57.png","arrowleft","","[""materials/imgs/D18.png"",""materials/imgs/D1.png""]","false","random","","",""
"","","","","","html-keyboard-response","46","71082","0.0-13.0-1.0-0.0","n6m9dx069t","","n6m9dx069t","""2024-11-13T04:21:43.602Z""","null","+","null","","","","","","",""
"","","","","","image-keyboard-response","47","71653","0.0-13.0-1.0-1.0","n6m9dx069t","","n6m9dx069t","""2024-11-13T04:21:43.602Z""","569","materials/imgs/D76.png","arrowleft","","[""materials/imgs/D76.png"",""materials/imgs/D78.png""]","","check","materials/imgs/D76.png","0","true"
"","","","","","html-keyboard-response","48","72156","0.0-13.0-2.0-0.0","n6m9dx069t","","n6m9dx069t","""2024-11-13T04:21:43.602Z""","null","+","null","","","","","","",""
"","","","","","image-keyboard-response","49","73093","0.0-13.0-2.0-1.0","n6m9dx069t","","n6m9dx069t","""2024-11-13T04:21:43.602Z""","934","materials/imgs/D11.png","arrowleft","","[""materials/imgs/D83.png"",""materials/imgs/D48.png""]","false","validation","","",""
"","","","","","html-keyboard-response","50","73595","0.0-13.0-2.0-0.1","n6m9dx069t","","n6m9dx069t","""2024-11-13T04:21:43.602Z""","null","+","null","","","","","","",""
"","","","","","image-keyboard-response","51","74531","0.0-13.0-2.0-1.1","n6m9dx069t","","n6m9dx069t","""2024-11-13T04:21:43.602Z""","935","materials/imgs/D32.png","arrowleft","","[""materials/imgs/D68.png"",""materials/imgs/D96.png""]","false","validation","","",""
"","","","","","html-keyboard-response","52","75034","0.0-13.0-0.1-0.7","n6m9dx069t","","n6m9dx069t","""2024-11-13T04:21:43.602Z""","null","+","null","","","","","","",""
"","","","","","image-keyboard-response","53","76108","0.0-13.0-0.1-1.7","n6m9dx069t","","n6m9dx069t","""2024-11-13T04:21:43.602Z""","1072","materials/imgs/D52.png","arrowright","","[""materials/imgs/D57.png"",""materials/imgs/D56.png""]","false","random","","",""
"","","","","","html-keyboard-response","54","76610","0.0-13.0-0.1-0.8","n6m9dx069t","","n6m9dx069t","""2024-11-13T04:21:43.602Z""","null","+","null","","","","","","",""
"","","","","","image-keyboard-response","55","77767","0.0-13.0-0.1-1.8","n6m9dx069t","","n6m9dx069t","""2024-11-13T04:21:43.602Z""","1151","materials/imgs/D17.png","arrowright","","[""materials/imgs/D25.png"",""materials/imgs/D106.png""]","false","random","","",""
"","","","","","html-keyboard-response","56","78269","0.0-13.0-0.1-0.9","n6m9dx069t","","n6m9dx069t","""2024-11-13T04:21:43.602Z""","null","+","null","","","","","","",""
"","","","","","image-keyboard-response","57","79584","0.0-13.0-0.1-1.9","n6m9dx069t","","n6m9dx069t","""2024-11-13T04:21:43.602Z""","1313","materials/imgs/D80.png","arrowleft","","[""materials/imgs/D46.png"",""materials/imgs/D102.png""]","false","random","","",""
"","","","","","html-keyboard-response","58","80087","0.0-13.0-0.1-0.10","n6m9dx069t","","n6m9dx069t","""2024-11-13T04:21:43.602Z""","null","+","null","","","","","","",""
"","","","","","image-keyboard-response","59","80770","0.0-13.0-0.1-1.10","n6m9dx069t","","n6m9dx069t","""2024-11-13T04:21:43.602Z""","682","materials/imgs/D82.png","arrowright","","[""materials/imgs/D20.png"",""materials/imgs/D78.png""]","false","random","","",""
"","","","","","html-keyboard-response","60","81273","0.0-13.0-0.1-0.11","n6m9dx069t","","n6m9dx069t","""2024-11-13T04:21:43.602Z""","null","+","null","","","","","","",""
"","","","","","image-keyboard-response","61","82037","0.0-13.0-0.1-1.11","n6m9dx069t","","n6m9dx069t","""2024-11-13T04:21:43.602Z""","763","materials/imgs/D92.png","arrowright","","[""materials/imgs/D103.png"",""materials/imgs/D84.png""]","false","random","","",""
"","","","","","html-keyboard-response","62","82539","0.0-13.0-0.1-0.12","n6m9dx069t","","n6m9dx069t","""2024-11-13T04:21:43.602Z""","null","+","null","","","","","","",""
"","","","","","image-keyboard-response","63","84669","0.0-13.0-0.1-1.12","n6m9dx069t","","n6m9dx069t","""2024-11-13T04:21:43.602Z""","2128","materials/imgs/D46.png","arrowleft","","[""materials/imgs/D22.png"",""materials/imgs/D17.png""]","false","random","","",""
"","","","","","html-keyboard-response","64","85172","0.0-13.0-0.1-0.13","n6m9dx069t","","n6m9dx069t","""2024-11-13T04:21:43.602Z""","null","+","null","","","","","","",""
"","","","","","image-keyboard-response","65","86473","0.0-13.0-0.1-1.13","n6m9dx069t","","n6m9dx069t","""2024-11-13T04:21:43.602Z""","1299","materials/imgs/D95.png","arrowright","","[""materials/imgs/D9.png"",""materials/imgs/D18.png""]","false","random","","",""
"","","","","","html-keyboard-response","66","86975","0.0-13.0-1.1-0.1","n6m9dx069t","","n6m9dx069t","""2024-11-13T04:21:43.602Z""","null","+","null","","","","","","",""
"","","","","","image-keyboard-response","67","87596","0.0-13.0-1.1-1.1","n6m9dx069t","","n6m9dx069t","""2024-11-13T04:21:43.602Z""","619","materials/imgs/D76.png","arrowleft","","[""materials/imgs/D76.png"",""materials/imgs/D78.png""]","","check","materials/imgs/D76.png","0","true"
"","","","","","html-keyboard-response","68","88099","0.0-13.0-2.1-0.2","n6m9dx069t","","n6m9dx069t","""2024-11-13T04:21:43.602Z""","null","+","null","","","","","","",""
"","","","","","image-keyboard-response","69","89577","0.0-13.0-2.1-1.2","n6m9dx069t","","n6m9dx069t","""2024-11-13T04:21:43.602Z""","1477","materials/imgs/D1.png","arrowright","","[""materials/imgs/D57.png"",""materials/imgs/D76.png""]","false","validation","","",""
"","","","","","html-keyboard-response","70","90080","0.0-13.0-2.1-0.3","n6m9dx069t","","n6m9dx069t","""2024-11-13T04:21:43.602Z""","null","+","null","","","","","","",""
"","","","","","image-keyboard-response","71","91353","0.0-13.0-2.1-1.3","n6m9dx069t","","n6m9dx069t","""2024-11-13T04:21:43.602Z""","1272","materials/imgs/D102.png","arrowright","","[""materials/imgs/D32.png"",""materials/imgs/D111.png""]","false","validation","","",""
"","","","","","html-keyboard-response","72","91856","0.0-13.0-0.2-0.14","n6m9dx069t","","n6m9dx069t","""2024-11-13T04:21:43.602Z""","null","+","null","","","","","","",""
"","","","","","image-keyboard-response","73","93332","0.0-13.0-0.2-1.14","n6m9dx069t","","n6m9dx069t","""2024-11-13T04:21:43.602Z""","1475","materials/imgs/D78.png","arrowright","","[""materials/imgs/D36.png"",""materials/imgs/D35.png""]","false","random","","",""
"","","","","","html-keyboard-response","74","93834","0.0-13.0-0.2-0.15","n6m9dx069t","","n6m9dx069t","""2024-11-13T04:21:43.602Z""","null","+","null","","","","","","",""
"","","","","","image-keyboard-response","75","94632","0.0-13.0-0.2-1.15","n6m9dx069t","","n6m9dx069t","""2024-11-13T04:21:43.602Z""","787","materials/imgs/D65.png","arrowright","","[""materials/imgs/D57.png"",""materials/imgs/D95.png""]","false","random","","",""
"","","","","","html-keyboard-response","76","95135","0.0-13.0-0.2-0.16","n6m9dx069t","","n6m9dx069t","""2024-11-13T04:21:43.602Z""","null","+","null","","","","","","",""
"","","","","","image-keyboard-response","77","96262","0.0-13.0-0.2-1.16","n6m9dx069t","","n6m9dx069t","""2024-11-13T04:21:43.602Z""","1125","materials/imgs/D8.png","arrowright","","[""materials/imgs/D85.png"",""materials/imgs/D48.png""]","false","random","","",""
"","","","","","html-keyboard-response","78","96764","0.0-13.0-0.2-0.17","n6m9dx069t","","n6m9dx069t","""2024-11-13T04:21:43.602Z""","null","+","null","","","","","","",""
"","","","","","image-keyboard-response","79","98091","0.0-13.0-0.2-1.17","n6m9dx069t","","n6m9dx069t","""2024-11-13T04:21:43.602Z""","1324","materials/imgs/D32.png","arrowright","","[""materials/imgs/D66.png"",""materials/imgs/D111.png""]","false","random","","",""
"","","","","","html-keyboard-response","80","98593","0.0-13.0-0.2-0.18","n6m9dx069t","","n6m9dx069t","""2024-11-13T04:21:43.602Z""","null","+","null","","","","","","",""
"","","","","","image-keyboard-response","81","100362","0.0-13.0-0.2-1.18","n6m9dx069t","","n6m9dx069t","""2024-11-13T04:21:43.602Z""","1768","materials/imgs/D65.png","arrowleft","","[""materials/imgs/D96.png"",""materials/imgs/D14.png""]","false","random","","",""
"","","","","","html-keyboard-response","82","100864","0.0-13.0-0.2-0.19","n6m9dx069t","","n6m9dx069t","""2024-11-13T04:21:43.602Z""","null","+","null","","","","","","",""
"","","","","","image-keyboard-response","83","102844","0.0-13.0-0.2-1.19","n6m9dx069t","","n6m9dx069t","""2024-11-13T04:21:43.602Z""","1977","materials/imgs/D104.png","arrowleft","","[""materials/imgs/D55.png"",""materials/imgs/D78.png""]","false","random","","",""
"","","","","","html-keyboard-response","84","103346","0.0-13.0-0.2-0.20","n6m9dx069t","","n6m9dx069t","""2024-11-13T04:21:43.602Z""","null","+","null","","","","","","",""
"","","","","","image-keyboard-response","85","104243","0.0-13.0-0.2-1.20","n6m9dx069t","","n6m9dx069t","""2024-11-13T04:21:43.602Z""","896","materials/imgs/D6.png","arrowleft","","[""materials/imgs/D52.png"",""materials/imgs/D24.png""]","false","random","","",""
"","","","","","html-keyboard-response","86","104745","0.0-13.0-1.2-0.2","n6m9dx069t","","n6m9dx069t","""2024-11-13T04:21:43.602Z""","null","+","null","","","","","","",""
"","","","","","image-keyboard-response","87","105860","0.0-13.0-1.2-1.2","n6m9dx069t","","n6m9dx069t","""2024-11-13T04:21:43.602Z""","1113","materials/imgs/D78.png","arrowright","","[""materials/imgs/D76.png"",""materials/imgs/D78.png""]","","check","materials/imgs/D78.png","1","true"
"","","","","","html-keyboard-response","88","106362","0.0-13.0-2.2-0.4","n6m9dx069t","","n6m9dx069t","""2024-11-13T04:21:43.602Z""","null","+","null","","","","","","",""
"","","","","","image-keyboard-response","89","107495","0.0-13.0-2.2-1.4","n6m9dx069t","","n6m9dx069t","""2024-11-13T04:21:43.602Z""","1131","materials/imgs/D82.png","arrowleft","","[""materials/imgs/D83.png"",""materials/imgs/D22.png""]","false","validation","","",""
"","","","","","html-keyboard-response","90","107997","0.0-13.0-2.2-0.5","n6m9dx069t","","n6m9dx069t","""2024-11-13T04:21:43.602Z""","null","+","null","","","","","","",""
"","","","","","image-keyboard-response","91","108775","0.0-13.0-2.2-1.5","n6m9dx069t","","n6m9dx069t","""2024-11-13T04:21:43.602Z""","776","materials/imgs/D8.png","arrowleft","","[""materials/imgs/D101.png"",""materials/imgs/D52.png""]","false","validation","","",""
"","","","","","html-keyboard-response","92","109277","0.0-13.0-0.3-0.21","n6m9dx069t","","n6m9dx069t","""2024-11-13T04:21:43.602Z""","null","+","null","","","","","","",""
"","","","","","image-keyboard-response","93","111325","0.0-13.0-0.3-1.21","n6m9dx069t","","n6m9dx069t","""2024-11-13T04:21:43.602Z""","2047","materials/imgs/D47.png","arrowleft","","[""materials/imgs/D51.png"",""materials/imgs/D92.png""]","false","random","","",""
"","","","","","html-keyboard-response","94","111827","0.0-13.0-0.3-0.22","n6m9dx069t","","n6m9dx069t","""2024-11-13T04:21:43.602Z""","null","+","null","","","","","","",""
"","","","","","image-keyboard-response","95","112738","0.0-13.0-0.3-1.22","n6m9dx069t","","n6m9dx069t","""2024-11-13T04:21:43.602Z""","909","materials/imgs/D92.png","arrowleft","","[""materials/imgs/D1.png"",""materials/imgs/D49.png""]","false","random","","",""
"","","","","","html-keyboard-response","96","113240","0.0-13.0-0.3-0.23","n6m9dx069t","","n6m9dx069t","""2024-11-13T04:21:43.602Z""","null","+","null","","","","","","",""
"","","","","","image-keyboard-response","97","114259","0.0-13.0-0.3-1.23","n6m9dx069t","","n6m9dx069t","""2024-11-13T04:21:43.602Z""","1017","materials/imgs/D83.png","arrowright","","[""materials/imgs/D24.png"",""materials/imgs/D17.png""]","false","random","","",""
"","","","","","html-keyboard-response","98","114761","0.0-13.0-0.3-0.24","n6m9dx069t","","n6m9dx069t","""2024-11-13T04:21:43.602Z""","null","+","null","","","","","","",""
"","","","","","image-keyboard-response","99","115772","0.0-13.0-0.3-1.24","n6m9dx069t","","n6m9dx069t","""2024-11-13T04:21:43.602Z""","1010","materials/imgs/D57.png","arrowleft","","[""materials/imgs/D83.png"",""materials/imgs/D74.png""]","false","random","","",""
"","","","","","html-keyboard-response","100","116275","0.0-13.0-0.3-0.25","n6m9dx069t","","n6m9dx069t","""2024-11-13T04:21:43.602Z""","null","+","null","","","","","","",""
"","","","","","image-keyboard-response","101","117793","0.0-13.0-0.3-1.25","n6m9dx069t","","n6m9dx069t","""2024-11-13T04:21:43.602Z""","1517","materials/imgs/D49.png","arrowright","","[""materials/imgs/D87.png"",""materials/imgs/D105.png""]","false","random","","",""
"","","","","","html-keyboard-response","102","118295","0.0-13.0-0.3-0.26","n6m9dx069t","","n6m9dx069t","""2024-11-13T04:21:43.602Z""","null","+","null","","","","","","",""
"","","","","","image-keyboard-response","103","119282","0.0-13.0-0.3-1.26","n6m9dx069t","","n6m9dx069t","""2024-11-13T04:21:43.602Z""","986","materials/imgs/D11.png","arrowright","","[""materials/imgs/D85.png"",""materials/imgs/D81.png""]","false","random","","",""
"","","","","","html-keyboard-response","104","119785","0.0-13.0-0.3-0.27","n6m9dx069t","","n6m9dx069t","""2024-11-13T04:21:43.602Z""","null","+","null","","","","","","",""
"","","","","","image-keyboard-response","105","120423","0.0-13.0-0.3-1.27","n6m9dx069t","","n6m9dx069t","""2024-11-13T04:21:43.602Z""","637","materials/imgs/D52.png","arrowright","","[""materials/imgs/D18.png"",""materials/imgs/D57.png""]","false","random","","",""
"","","","","","html-keyboard-response","106","120925","0.0-13.0-1.3-0.3","n6m9dx069t","","n6m9dx069t","""2024-11-13T04:21:43.602Z""","null","+","null","","","","","","",""
"","","","","","image-keyboard-response","107","121499","0.0-13.0-1.3-1.3","n6m9dx069t","","n6m9dx069t","""2024-11-13T04:21:43.602Z""","573","materials/imgs/D78.png","arrowright","","[""materials/imgs/D76.png"",""materials/imgs/D78.png""]","","check","materials/imgs/D78.png","1","true"
"","","","","","html-keyboard-response","108","122001","0.0-13.0-2.3-0.6","n6m9dx069t","","n6m9dx069t","""2024-11-13T04:21:43.602Z""","null","+","null","","","","","","",""
"","","","","","image-keyboard-response","109","122709","0.0-13.0-2.3-1.6","n6m9dx069t","","n6m9dx069t","""2024-11-13T04:21:43.602Z""","707","materials/imgs/D9.png","arrowright","","[""materials/imgs/D103.png"",""materials/imgs/D4.png""]","false","validation","","",""
"","","","","","html-keyboard-response","110","123211","0.0-13.0-2.3-0.7","n6m9dx069t","","n6m9dx069t","""2024-11-13T04:21:43.602Z""","null","+","null","","","","","","",""
"","","","","","image-keyboard-response","111","124178","0.0-13.0-2.3-1.7","n6m9dx069t","","n6m9dx069t","""2024-11-13T04:21:43.602Z""","965","materials/imgs/D96.png","arrowleft","","[""materials/imgs/D46.png"",""materials/imgs/D18.png""]","false","validation","","",""
"","","","","","html-keyboard-response","112","124680","0.0-13.0-0.4-0.28","n6m9dx069t","","n6m9dx069t","""2024-11-13T04:21:43.602Z""","null","+","null","","","","","","",""
"","","","","","image-keyboard-response","113","125653","0.0-13.0-0.4-1.28","n6m9dx069t","","n6m9dx069t","""2024-11-13T04:21:43.602Z""","972","materials/imgs/D77.png","arrowleft","","[""materials/imgs/D106.png"",""materials/imgs/D52.png""]","false","random","","",""
"","","","","","html-keyboard-response","114","126155","0.0-13.0-0.4-0.29","n6m9dx069t","","n6m9dx069t","""2024-11-13T04:21:43.602Z""","null","+","null","","","","","","",""
"","","","","","image-keyboard-response","115","127678","0.0-13.0-0.4-1.29","n6m9dx069t","","n6m9dx069t","""2024-11-13T04:21:43.602Z""","1521","materials/imgs/D46.png","arrowleft","","[""materials/imgs/D104.png"",""materials/imgs/D83.png""]","false","random","","",""
"","","","","","html-keyboard-response","116","128180","0.0-13.0-0.4-0.30","n6m9dx069t","","n6m9dx069t","""2024-11-13T04:21:43.602Z""","null","+","null","","","","","","",""
"","","","","","image-keyboard-response","117","129327","0.0-13.0-0.4-1.30","n6m9dx069t","","n6m9dx069t","""2024-11-13T04:21:43.602Z""","1144","materials/imgs/D16.png","arrowright","","[""materials/imgs/D74.png"",""materials/imgs/D87.png""]","false","random","","",""
"","","","","","html-keyboard-response","118","129829","0.0-13.0-0.4-0.31","n6m9dx069t","","n6m9dx069t","""2024-11-13T04:21:43.602Z""","null","+","null","","","","","","",""
"","","","","","image-keyboard-response","119","130878","0.0-13.0-0.4-1.31","n6m9dx069t","","n6m9dx069t","""2024-11-13T04:21:43.602Z""","1048","materials/imgs/D4.png","arrowleft","","[""materials/imgs/D68.png"",""materials/imgs/D47.png""]","false","random","","",""
"","","","","","html-keyboard-response","120","131380","0.0-13.0-0.4-0.32","n6m9dx069t","","n6m9dx069t","""2024-11-13T04:21:43.602Z""","null","+","null","","","","","","",""
"","","","","","image-keyboard-response","121","132921","0.0-13.0-0.4-1.32","n6m9dx069t","","n6m9dx069t","""2024-11-13T04:21:43.602Z""","1540","materials/imgs/D81.png","arrowright","","[""materials/imgs/D55.png"",""materials/imgs/D105.png""]","false","random","","",""
"","","","","","html-keyboard-response","122","133422","0.0-13.0-0.4-0.33","n6m9dx069t","","n6m9dx069t","""2024-11-13T04:21:43.602Z""","null","+","null","","","","","","",""
"","","","","","image-keyboard-response","123","136590","0.0-13.0-0.4-1.33","n6m9dx069t","","n6m9dx069t","""2024-11-13T04:21:43.602Z""","3165","materials/imgs/D46.png","arrowright","","[""materials/imgs/D8.png"",""materials/imgs/D74.png""]","false","random","","",""
"","","","","","html-keyboard-response","124","137092","0.0-13.0-0.4-0.34","n6m9dx069t","","n6m9dx069t","""2024-11-13T04:21:43.602Z""","null","+","null","","","","","","",""
"","","","","","image-keyboard-response","125","137990","0.0-13.0-0.4-1.34","n6m9dx069t","","n6m9dx069t","""2024-11-13T04:21:43.602Z""","896","materials/imgs/D102.png","arrowright","","[""materials/imgs/D49.png"",""materials/imgs/D101.png""]","false","random","","",""
"","","","","","html-keyboard-response","126","138493","0.0-13.0-1.4-0.4","n6m9dx069t","","n6m9dx069t","""2024-11-13T04:21:43.602Z""","null","+","null","","","","","","",""
"","","","","","image-keyboard-response","127","139099","0.0-13.0-1.4-1.4","n6m9dx069t","","n6m9dx069t","""2024-11-13T04:21:43.602Z""","604","materials/imgs/D18.png","arrowright","","[""materials/imgs/D8.png"",""materials/imgs/D18.png""]","","check","materials/imgs/D18.png","1","true"
"","","","","","html-keyboard-response","128","139602","0.0-13.0-2.4-0.8","n6m9dx069t","","n6m9dx069t","""2024-11-13T04:21:43.602Z""","null","+","null","","","","","","",""
"","","","","","image-keyboard-response","129","140440","0.0-13.0-2.4-1.8","n6m9dx069t","","n6m9dx069t","""2024-11-13T04:21:43.602Z""","836","materials/imgs/D35.png","arrowleft","","[""materials/imgs/D83.png"",""materials/imgs/D24.png""]","false","validation","","",""
"","","","","","html-keyboard-response","130","140941","0.0-13.0-2.4-0.9","n6m9dx069t","","n6m9dx069t","""2024-11-13T04:21:43.602Z""","null","+","null","","","","","","",""
"","","","","","image-keyboard-response","131","141798","0.0-13.0-2.4-1.9","n6m9dx069t","","n6m9dx069t","""2024-11-13T04:21:43.602Z""","855","materials/imgs/D49.png","arrowright","","[""materials/imgs/D8.png"",""materials/imgs/D101.png""]","false","validation","","",""
"","","","","","html-button-response","132","143388","0.0-14.0","n6m9dx069t","","n6m9dx069t","""2024-11-13T04:21:43.602Z""","1588","You have completed 25% of the trials. Please click 'Continue' when you are ready proceed.","0","","","","","","",""
"","","","","","html-keyboard-response","133","143889","0.0-15.0-0.0-0.0","n6m9dx069t","","n6m9dx069t","""2024-11-13T04:21:43.602Z""","null","+","null","","","","","","",""
"","","","","","image-keyboard-response","134","145121","0.0-15.0-0.0-1.0","n6m9dx069t","","n6m9dx069t","""2024-11-13T04:21:43.602Z""","1229","materials/imgs/D20.png","arrowright","","[""materials/imgs/D105.png"",""materials/imgs/D87.png""]","false","random","","",""
"","","","","","html-keyboard-response","135","145623","0.0-15.0-0.0-0.1","n6m9dx069t","","n6m9dx069t","""2024-11-13T04:21:43.602Z""","null","+","null","","","","","","",""
"","","","","","image-keyboard-response","136","146734","0.0-15.0-0.0-1.1","n6m9dx069t","","n6m9dx069t","""2024-11-13T04:21:43.602Z""","1109","materials/imgs/D75.png","arrowleft","","[""materials/imgs/D6.png"",""materials/imgs/D24.png""]","false","random","","",""
"","","","","","html-keyboard-response","137","147236","0.0-15.0-0.0-0.2","n6m9dx069t","","n6m9dx069t","""2024-11-13T04:21:43.602Z""","null","+","null","","","","","","",""
"","","","","","image-keyboard-response","138","148039","0.0-15.0-0.0-1.2","n6m9dx069t","","n6m9dx069t","""2024-11-13T04:21:43.602Z""","801","materials/imgs/D25.png","arrowright","","[""materials/imgs/D9.png"",""materials/imgs/D1.png""]","false","random","","",""
"","","","","","html-keyboard-response","139","148541","0.0-15.0-0.0-0.3","n6m9dx069t","","n6m9dx069t","""2024-11-13T04:21:43.602Z""","null","+","null","","","","","","",""
"","","","","","image-keyboard-response","140","149167","0.0-15.0-0.0-1.3","n6m9dx069t","","n6m9dx069t","""2024-11-13T04:21:43.602Z""","625","materials/imgs/D24.png","arrowleft","","[""materials/imgs/D84.png"",""materials/imgs/D53.png""]","false","random","","",""
"","","","","","html-keyboard-response","141","149669","0.0-15.0-0.0-0.4","n6m9dx069t","","n6m9dx069t","""2024-11-13T04:21:43.602Z""","null","+","null","","","","","","",""
"","","","","","image-keyboard-response","142","150480","0.0-15.0-0.0-1.4","n6m9dx069t","","n6m9dx069t","""2024-11-13T04:21:43.602Z""","809","materials/imgs/D82.png","arrowleft","","[""materials/imgs/D32.png"",""materials/imgs/D47.png""]","false","random","","",""
"","","","","","html-keyboard-response","143","150982","0.0-15.0-0.0-0.5","n6m9dx069t","","n6m9dx069t","""2024-11-13T04:21:43.602Z""","null","+","null","","","","","","",""
"","","","","","image-keyboard-response","144","152119","0.0-15.0-0.0-1.5","n6m9dx069t","","n6m9dx069t","""2024-11-13T04:21:43.602Z""","1134","materials/imgs/D87.png","arrowright","","[""materials/imgs/D1.png"",""materials/imgs/D47.png""]","false","random","","",""
"","","","","","html-keyboard-response","145","152620","0.0-15.0-0.0-0.6","n6m9dx069t","","n6m9dx069t","""2024-11-13T04:21:43.602Z""","null","+","null","","","","","","",""
"","","","","","image-keyboard-response","146","153626","0.0-15.0-0.0-1.6","n6m9dx069t","","n6m9dx069t","""2024-11-13T04:21:43.602Z""","1003","materials/imgs/D55.png","arrowright","","[""materials/imgs/D81.png"",""materials/imgs/D36.png""]","false","random","","",""
"","","","","","html-keyboard-response","147","154128","0.0-15.0-1.0-0.0","n6m9dx069t","","n6m9dx069t","""2024-11-13T04:21:43.602Z""","null","+","null","","","","","","",""
"","","","","","image-keyboard-response","148","154633","0.0-15.0-1.0-1.0","n6m9dx069t","","n6m9dx069t","""2024-11-13T04:21:43.602Z""","503","materials/imgs/D106.png","arrowleft","","[""materials/imgs/D106.png"",""materials/imgs/D101.png""]","","check","materials/imgs/D106.png","0","true"
"","","","","","html-keyboard-response","149","155135","0.0-15.0-2.0-0.0","n6m9dx069t","","n6m9dx069t","""2024-11-13T04:21:43.602Z""","null","+","null","","","","","","",""
"","","","","","image-keyboard-response","150","156895","0.0-15.0-2.0-1.0","n6m9dx069t","","n6m9dx069t","""2024-11-13T04:21:43.602Z""","1758","materials/imgs/D18.png","arrowleft","","[""materials/imgs/D32.png"",""materials/imgs/D57.png""]","false","validation","","",""
"","","","","","html-keyboard-response","151","157397","0.0-15.0-2.0-0.1","n6m9dx069t","","n6m9dx069t","""2024-11-13T04:21:43.602Z""","null","+","null","","","","","","",""
"","","","","","image-keyboard-response","152","158598","0.0-15.0-2.0-1.1","n6m9dx069t","","n6m9dx069t","""2024-11-13T04:21:43.602Z""","1199","materials/imgs/D103.png","arrowright","","[""materials/imgs/D76.png"",""materials/imgs/D106.png""]","false","validation","","",""
"","","","","","html-keyboard-response","153","159100","0.0-15.0-0.1-0.7","n6m9dx069t","","n6m9dx069t","""2024-11-13T04:21:43.602Z""","null","+","null","","","","","","",""
"","","","","","image-keyboard-response","154","160481","0.0-15.0-0.1-1.7","n6m9dx069t","","n6m9dx069t","""2024-11-13T04:21:43.602Z""","1379","materials/imgs/D66.png","arrowleft","","[""materials/imgs/D81.png"",""materials/imgs/D76.png""]","false","random","","",""
"","","","","","html-keyboard-response","155","160984","0.0-15.0-0.1-0.8","n6m9dx069t","","n6m9dx069t","""2024-11-13T04:21:43.602Z""","null","+","null","","","","","","",""
"","","","","","image-keyboard-response","156","161555","0.0-15.0-0.1-1.8","n6m9dx069t","","n6m9dx069t","""2024-11-13T04:21:43.602Z""","570","materials/imgs/D82.png","arrowright","","[""materials/imgs/D77.png"",""materials/imgs/D80.png""]","false","random","","",""
"","","","","","html-keyboard-response","157","162057","0.0-15.0-0.1-0.9","n6m9dx069t","","n6m9dx069t","""2024-11-13T04:21:43.602Z""","null","+","null","","","","","","",""
"","","","","","image-keyboard-response","158","163804","0.0-15.0-0.1-1.9","n6m9dx069t","","n6m9dx069t","""2024-11-13T04:21:43.602Z""","1745","materials/imgs/D87.png","arrowleft","","[""materials/imgs/D14.png"",""materials/imgs/D6.png""]","false","random","","",""
"","","","","","html-keyboard-response","159","164306","0.0-15.0-0.1-0.10","n6m9dx069t","","n6m9dx069t","""2024-11-13T04:21:43.602Z""","null","+","null","","","","","","",""
"","","","","","image-keyboard-response","160","165527","0.0-15.0-0.1-1.10","n6m9dx069t","","n6m9dx069t","""2024-11-13T04:21:43.602Z""","1219","materials/imgs/D65.png","arrowright","","[""materials/imgs/D106.png"",""materials/imgs/D83.png""]","false","random","","",""
"","","","","","html-keyboard-response","161","166029","0.0-15.0-0.1-0.11","n6m9dx069t","","n6m9dx069t","""2024-11-13T04:21:43.602Z""","null","+","null","","","","","","",""
"","","","","","image-keyboard-response","162","166849","0.0-15.0-0.1-1.11","n6m9dx069t","","n6m9dx069t","""2024-11-13T04:21:43.602Z""","817","materials/imgs/D17.png","arrowleft","","[""materials/imgs/D21.png"",""materials/imgs/D105.png""]","false","random","","",""
"","","","","","html-keyboard-response","163","167351","0.0-15.0-0.1-0.12","n6m9dx069t","","n6m9dx069t","""2024-11-13T04:21:43.602Z""","null","+","null","","","","","","",""
"","","","","","image-keyboard-response","164","167855","0.0-15.0-0.1-1.12","n6m9dx069t","","n6m9dx069t","""2024-11-13T04:21:43.602Z""","503","materials/imgs/D14.png","arrowleft","","[""materials/imgs/D77.png"",""materials/imgs/D55.png""]","false","random","","",""
"","","","","","html-keyboard-response","165","168357","0.0-15.0-0.1-0.13","n6m9dx069t","","n6m9dx069t","""2024-11-13T04:21:43.602Z""","null","+","null","","","","","","",""
"","","","","","image-keyboard-response","166","169927","0.0-15.0-0.1-1.13","n6m9dx069t","","n6m9dx069t","""2024-11-13T04:21:43.602Z""","1568","materials/imgs/D4.png","arrowright","","[""materials/imgs/D94.png"",""materials/imgs/D16.png""]","false","random","","",""
"","","","","","html-keyboard-response","167","170429","0.0-15.0-1.1-0.1","n6m9dx069t","","n6m9dx069t","""2024-11-13T04:21:43.602Z""","null","+","null","","","","","","",""
"","","","","","image-keyboard-response","168","170969","0.0-15.0-1.1-1.1","n6m9dx069t","","n6m9dx069t","""2024-11-13T04:21:43.602Z""","538","materials/imgs/D53.png","arrowright","","[""materials/imgs/D64.png"",""materials/imgs/D53.png""]","","check","materials/imgs/D53.png","1","true"
"","","","","","html-keyboard-response","169","171471","0.0-15.0-2.1-0.2","n6m9dx069t","","n6m9dx069t","""2024-11-13T04:21:43.602Z""","null","+","null","","","","","","",""
"","","","","","image-keyboard-response","170","172542","0.0-15.0-2.1-1.2","n6m9dx069t","","n6m9dx069t","""2024-11-13T04:21:43.602Z""","1070","materials/imgs/D22.png","arrowleft","","[""materials/imgs/D4.png"",""materials/imgs/D25.png""]","false","validation","","",""
"","","","","","html-keyboard-response","171","173044","0.0-15.0-2.1-0.3","n6m9dx069t","","n6m9dx069t","""2024-11-13T04:21:43.602Z""","null","+","null","","","","","","",""
"","","","","","image-keyboard-response","172","174034","0.0-15.0-2.1-1.3","n6m9dx069t","","n6m9dx069t","""2024-11-13T04:21:43.602Z""","981","materials/imgs/D3.png","arrowleft","","[""materials/imgs/D79.png"",""materials/imgs/D48.png""]","false","validation","","",""
"","","","","","html-keyboard-response","173","174536","0.0-15.0-0.2-0.14","n6m9dx069t","","n6m9dx069t","""2024-11-13T04:21:43.602Z""","null","+","null","","","","","","",""
"","","","","","image-keyboard-response","174","176787","0.0-15.0-0.2-1.14","n6m9dx069t","","n6m9dx069t","""2024-11-13T04:21:43.602Z""","2244","materials/imgs/D26.png","arrowright","","[""materials/imgs/D80.png"",""materials/imgs/D18.png""]","false","random","","",""
"","","","","","html-keyboard-response","175","177289","0.0-15.0-0.2-0.15","n6m9dx069t","","n6m9dx069t","""2024-11-13T04:21:43.602Z""","null","+","null","","","","","","",""
"","","","","","image-keyboard-response","176","178751","0.0-15.0-0.2-1.15","n6m9dx069t","","n6m9dx069t","""2024-11-13T04:21:43.602Z""","1459","materials/imgs/D57.png","arrowleft","","[""materials/imgs/D53.png"",""materials/imgs/D76.png""]","false","random","","",""
"","","","","","html-keyboard-response","177","179253","0.0-15.0-0.2-0.16","n6m9dx069t","","n6m9dx069t","""2024-11-13T04:21:43.602Z""","null","+","null","","","","","","",""
"","","","","","image-keyboard-response","178","180388","0.0-15.0-0.2-1.16","n6m9dx069t","","n6m9dx069t","""2024-11-13T04:21:43.602Z""","1133","materials/imgs/D20.png","arrowright","","[""materials/imgs/D74.png"",""materials/imgs/D32.png""]","false","random","","",""
"","","","","","html-keyboard-response","179","180888","0.0-15.0-0.2-0.17","n6m9dx069t","","n6m9dx069t","""2024-11-13T04:21:43.602Z""","null","+","null","","","","","","",""
"","","","","","image-keyboard-response","180","181768","0.0-15.0-0.2-1.17","n6m9dx069t","","n6m9dx069t","""2024-11-13T04:21:43.602Z""","877","materials/imgs/D52.png","arrowright","","[""materials/imgs/D64.png"",""materials/imgs/D104.png""]","false","random","","",""
"","","","","","html-keyboard-response","181","182269","0.0-15.0-0.2-0.18","n6m9dx069t","","n6m9dx069t","""2024-11-13T04:21:43.602Z""","null","+","null","","","","","","",""
"","","","","","image-keyboard-response","182","183896","0.0-15.0-0.2-1.18","n6m9dx069t","","n6m9dx069t","""2024-11-13T04:21:43.602Z""","1625","materials/imgs/D66.png","arrowleft","","[""materials/imgs/D96.png"",""materials/imgs/D57.png""]","false","random","","",""
"","","","","","html-keyboard-response","183","184398","0.0-15.0-0.2-0.19","n6m9dx069t","","n6m9dx069t","""2024-11-13T04:21:43.602Z""","null","+","null","","","","","","",""
"","","","","","image-keyboard-response","184","185498","0.0-15.0-0.2-1.19","n6m9dx069t","","n6m9dx069t","""2024-11-13T04:21:43.602Z""","1099","materials/imgs/D8.png","arrowright","","[""materials/imgs/D4.png"",""materials/imgs/D37.png""]","false","random","","",""
"","","","","","html-keyboard-response","185","186000","0.0-15.0-0.2-0.20","n6m9dx069t","","n6m9dx069t","""2024-11-13T04:21:43.602Z""","null","+","null","","","","","","",""
"","","","","","image-keyboard-response","186","186907","0.0-15.0-0.2-1.20","n6m9dx069t","","n6m9dx069t","""2024-11-13T04:21:43.602Z""","905","materials/imgs/D76.png","arrowleft","","[""materials/imgs/D65.png"",""materials/imgs/D75.png""]","false","random","","",""
"","","","","","html-keyboard-response","187","187409","0.0-15.0-1.2-0.2","n6m9dx069t","","n6m9dx069t","""2024-11-13T04:21:43.602Z""","null","+","null","","","","","","",""
"","","","","","image-keyboard-response","188","187992","0.0-15.0-1.2-1.2","n6m9dx069t","","n6m9dx069t","""2024-11-13T04:21:43.602Z""","582","materials/imgs/D26.png","arrowleft","","[""materials/imgs/D26.png"",""materials/imgs/D46.png""]","","check","materials/imgs/D26.png","0","true"
"","","","","","html-keyboard-response","189","188494","0.0-15.0-2.2-0.4","n6m9dx069t","","n6m9dx069t","""2024-11-13T04:21:43.602Z""","null","+","null","","","","","","",""
"","","","","","image-keyboard-response","190","190724","0.0-15.0-2.2-1.4","n6m9dx069t","","n6m9dx069t","""2024-11-13T04:21:43.602Z""","2228","materials/imgs/D20.png","arrowright","","[""materials/imgs/D84.png"",""materials/imgs/D85.png""]","false","validation","","",""
"","","","","","html-keyboard-response","191","191226","0.0-15.0-2.2-0.5","n6m9dx069t","","n6m9dx069t","""2024-11-13T04:21:43.602Z""","null","+","null","","","","","","",""
"","","","","","image-keyboard-response","192","192371","0.0-15.0-2.2-1.5","n6m9dx069t","","n6m9dx069t","""2024-11-13T04:21:43.602Z""","1143","materials/imgs/D103.png","arrowright","","[""materials/imgs/D76.png"",""materials/imgs/D106.png""]","false","validation","","",""
"","","","","","html-keyboard-response","193","192874","0.0-15.0-0.3-0.21","n6m9dx069t","","n6m9dx069t","""2024-11-13T04:21:43.602Z""","null","+","null","","","","","","",""
"","","","","","image-keyboard-response","194","193933","0.0-15.0-0.3-1.21","n6m9dx069t","","n6m9dx069t","""2024-11-13T04:21:43.602Z""","1049","materials/imgs/D34.png","arrowleft","","[""materials/imgs/D47.png"",""materials/imgs/D17.png""]","false","random","","",""
"","","","","","html-keyboard-response","195","194433","0.0-15.0-0.3-0.22","n6m9dx069t","","n6m9dx069t","""2024-11-13T04:21:43.602Z""","null","+","null","","","","","","",""
"","","","","","image-keyboard-response","196","196282","0.0-15.0-0.3-1.22","n6m9dx069t","","n6m9dx069t","""2024-11-13T04:21:43.602Z""","1847","materials/imgs/D83.png","arrowleft","","[""materials/imgs/D103.png"",""materials/imgs/D102.png""]","false","random","","",""
"","","","","","html-keyboard-response","197","196784","0.0-15.0-0.3-0.23","n6m9dx069t","","n6m9dx069t","""2024-11-13T04:21:43.602Z""","null","+","null","","","","","","",""
"","","","","","image-keyboard-response","198","198687","0.0-15.0-0.3-1.23","n6m9dx069t","","n6m9dx069t","""2024-11-13T04:21:43.602Z""","1902","materials/imgs/D76.png","arrowright","","[""materials/imgs/D56.png"",""materials/imgs/D83.png""]","false","random","","",""
"","","","","","html-keyboard-response","199","199189","0.0-15.0-0.3-0.24","n6m9dx069t","","n6m9dx069t","""2024-11-13T04:21:43.602Z""","null","+","null","","","","","","",""
"","","","","","image-keyboard-response","200","199988","0.0-15.0-0.3-1.24","n6m9dx069t","","n6m9dx069t","""2024-11-13T04:21:43.602Z""","796","materials/imgs/D68.png","arrowright","","[""materials/imgs/D65.png"",""materials/imgs/D105.png""]","false","random","","",""
"","","","","","html-keyboard-response","201","200490","0.0-15.0-0.3-0.25","n6m9dx069t","","n6m9dx069t","""2024-11-13T04:21:43.602Z""","null","+","null","","","","","","",""
"","","","","","image-keyboard-response","202","201945","0.0-15.0-0.3-1.25","n6m9dx069t","","n6m9dx069t","""2024-11-13T04:21:43.602Z""","1453","materials/imgs/D65.png","arrowright","","[""materials/imgs/D53.png"",""materials/imgs/D79.png""]","false","random","","",""
"","","","","","html-keyboard-response","203","202447","0.0-15.0-0.3-0.26","n6m9dx069t","","n6m9dx069t","""2024-11-13T04:21:43.602Z""","null","+","null","","","","","","",""
"","","","","","image-keyboard-response","204","203272","0.0-15.0-0.3-1.26","n6m9dx069t","","n6m9dx069t","""2024-11-13T04:21:43.602Z""","823","materials/imgs/D14.png","arrowright","","[""materials/imgs/D18.png"",""materials/imgs/D85.png""]","false","random","","",""
"","","","","","html-keyboard-response","205","203775","0.0-15.0-0.3-0.27","n6m9dx069t","","n6m9dx069t","""2024-11-13T04:21:43.602Z""","null","+","null","","","","","","",""
"","","","","","image-keyboard-response","206","204844","0.0-15.0-0.3-1.27","n6m9dx069t","","n6m9dx069t","""2024-11-13T04:21:43.602Z""","1066","materials/imgs/D95.png","arrowright","","[""materials/imgs/D34.png"",""materials/imgs/D9.png""]","false","random","","",""
"","","","","","html-keyboard-response","207","205346","0.0-15.0-1.3-0.3","n6m9dx069t","","n6m9dx069t","""2024-11-13T04:21:43.602Z""","null","+","null","","","","","","",""
"","","","","","image-keyboard-response","208","205994","0.0-15.0-1.3-1.3","n6m9dx069t","","n6m9dx069t","""2024-11-13T04:21:43.602Z""","647","materials/imgs/D78.png","arrowright","","[""materials/imgs/D76.png"",""materials/imgs/D78.png""]","","check","materials/imgs/D78.png","1","true"
"","","","","","html-keyboard-response","209","206497","0.0-15.0-2.3-0.6","n6m9dx069t","","n6m9dx069t","""2024-11-13T04:21:43.602Z""","null","+","null","","","","","","",""
"","","","","","image-keyboard-response","210","207365","0.0-15.0-2.3-1.6","n6m9dx069t","","n6m9dx069t","""2024-11-13T04:21:43.602Z""","867","materials/imgs/D6.png","arrowright","","[""materials/imgs/D26.png"",""materials/imgs/D76.png""]","false","validation","","",""
"","","","","","html-keyboard-response","211","207866","0.0-15.0-2.3-0.7","n6m9dx069t","","n6m9dx069t","""2024-11-13T04:21:43.602Z""","null","+","null","","","","","","",""
"","","","","","image-keyboard-response","212","208710","0.0-15.0-2.3-1.7","n6m9dx069t","","n6m9dx069t","""2024-11-13T04:21:43.602Z""","843","materials/imgs/D16.png","arrowleft","","[""materials/imgs/D52.png"",""materials/imgs/D25.png""]","false","validation","","",""
"","","","","","html-keyboard-response","213","209212","0.0-15.0-0.4-0.28","n6m9dx069t","","n6m9dx069t","""2024-11-13T04:21:43.602Z""","null","+","null","","","","","","",""
"","","","","","image-keyboard-response","214","210139","0.0-15.0-0.4-1.28","n6m9dx069t","","n6m9dx069t","""2024-11-13T04:21:43.602Z""","925","materials/imgs/D37.png","arrowleft","","[""materials/imgs/D76.png"",""materials/imgs/D79.png""]","false","random","","",""
"","","","","","html-keyboard-response","215","210641","0.0-15.0-0.4-0.29","n6m9dx069t","","n6m9dx069t","""2024-11-13T04:21:43.602Z""","null","+","null","","","","","","",""
"","","","","","image-keyboard-response","216","212026","0.0-15.0-0.4-1.29","n6m9dx069t","","n6m9dx069t","""2024-11-13T04:21:43.602Z""","1383","materials/imgs/D95.png","arrowleft","","[""materials/imgs/D55.png"",""materials/imgs/D18.png""]","false","random","","",""
"","","","","","html-keyboard-response","217","212528","0.0-15.0-0.4-0.30","n6m9dx069t","","n6m9dx069t","""2024-11-13T04:21:43.602Z""","null","+","null","","","","","","",""
"","","","","","image-keyboard-response","218","213612","0.0-15.0-0.4-1.30","n6m9dx069t","","n6m9dx069t","""2024-11-13T04:21:43.602Z""","1082","materials/imgs/D83.png","arrowright","","[""materials/imgs/D51.png"",""materials/imgs/D68.png""]","false","random","","",""
"","","","","","html-keyboard-response","219","214114","0.0-15.0-0.4-0.31","n6m9dx069t","","n6m9dx069t","""2024-11-13T04:21:43.602Z""","null","+","null","","","","","","",""
"","","","","","image-keyboard-response","220","215638","0.0-15.0-0.4-1.31","n6m9dx069t","","n6m9dx069t","""2024-11-13T04:21:43.602Z""","1522","materials/imgs/D78.png","arrowright","","[""materials/imgs/D18.png"",""materials/imgs/D14.png""]","false","random","","",""
"","","","","","html-keyboard-response","221","216140","0.0-15.0-0.4-0.32","n6m9dx069t","","n6m9dx069t","""2024-11-13T04:21:43.602Z""","null","+","null","","","","","","",""
"","","","","","image-keyboard-response","222","216797","0.0-15.0-0.4-1.32","n6m9dx069t","","n6m9dx069t","""2024-11-13T04:21:43.602Z""","656","materials/imgs/D78.png","arrowleft","","[""materials/imgs/D105.png"",""materials/imgs/D102.png""]","false","random","","",""
"","","","","","html-keyboard-response","223","217300","0.0-15.0-0.4-0.33","n6m9dx069t","","n6m9dx069t","""2024-11-13T04:21:43.602Z""","null","+","null","","","","","","",""
"","","","","","image-keyboard-response","224","218436","0.0-15.0-0.4-1.33","n6m9dx069t","","n6m9dx069t","""2024-11-13T04:21:43.602Z""","1134","materials/imgs/D102.png","arrowleft","","[""materials/imgs/D36.png"",""materials/imgs/D103.png""]","false","random","","",""
"","","","","","html-keyboard-response","225","218939","0.0-15.0-0.4-0.34","n6m9dx069t","","n6m9dx069t","""2024-11-13T04:21:43.602Z""","null","+","null","","","","","","",""
"","","","","","image-keyboard-response","226","219850","0.0-15.0-0.4-1.34","n6m9dx069t","","n6m9dx069t","""2024-11-13T04:21:43.602Z""","910","materials/imgs/D77.png","arrowright","","[""materials/imgs/D64.png"",""materials/imgs/D106.png""]","false","random","","",""
"","","","","","html-keyboard-response","227","220353","0.0-15.0-1.4-0.4","n6m9dx069t","","n6m9dx069t","""2024-11-13T04:21:43.602Z""","null","+","null","","","","","","",""
"","","","","","image-keyboard-response","228","220921","0.0-15.0-1.4-1.4","n6m9dx069t","","n6m9dx069t","""2024-11-13T04:21:43.602Z""","567","materials/imgs/D53.png","arrowright","","[""materials/imgs/D64.png"",""materials/imgs/D53.png""]","","check","materials/imgs/D53.png","1","true"
"","","","","","html-keyboard-response","229","221423","0.0-15.0-2.4-0.8","n6m9dx069t","","n6m9dx069t","""2024-11-13T04:21:43.602Z""","null","+","null","","","","","","",""
"","","","","","image-keyboard-response","230","222616","0.0-15.0-2.4-1.8","n6m9dx069t","","n6m9dx069t","""2024-11-13T04:21:43.602Z""","1190","materials/imgs/D51.png","arrowright","","[""materials/imgs/D92.png"",""materials/imgs/D20.png""]","false","validation","","",""
"","","","","","html-keyboard-response","231","223118","0.0-15.0-2.4-0.9","n6m9dx069t","","n6m9dx069t","""2024-11-13T04:21:43.602Z""","null","+","null","","","","","","",""
"","","","","","image-keyboard-response","232","224048","0.0-15.0-2.4-1.9","n6m9dx069t","","n6m9dx069t","""2024-11-13T04:21:43.602Z""","929","materials/imgs/D56.png","arrowleft","","[""materials/imgs/D25.png"",""materials/imgs/D105.png""]","false","validation","","",""
"","","","","","html-button-response","233","225613","0.0-16.0","n6m9dx069t","","n6m9dx069t","""2024-11-13T04:21:43.602Z""","1562","You have completed 50% of the trials. Please click 'Continue' when you are ready proceed.","0","","","","","","",""
"","","","","","html-keyboard-response","234","226114","0.0-17.0-0.0-0.0","n6m9dx069t","","n6m9dx069t","""2024-11-13T04:21:43.602Z""","null","+","null","","","","","","",""
"","","","","","image-keyboard-response","235","226933","0.0-17.0-0.0-1.0","n6m9dx069t","","n6m9dx069t","""2024-11-13T04:21:43.602Z""","817","materials/imgs/D105.png","arrowleft","","[""materials/imgs/D32.png"",""materials/imgs/D96.png""]","false","random","","",""
"","","","","","html-keyboard-response","236","227435","0.0-17.0-0.0-0.1","n6m9dx069t","","n6m9dx069t","""2024-11-13T04:21:43.602Z""","null","+","null","","","","","","",""
"","","","","","image-keyboard-response","237","228547","0.0-17.0-0.0-1.1","n6m9dx069t","","n6m9dx069t","""2024-11-13T04:21:43.602Z""","1110","materials/imgs/D101.png","arrowleft","","[""materials/imgs/D52.png"",""materials/imgs/D36.png""]","false","random","","",""
"","","","","","html-keyboard-response","238","229049","0.0-17.0-0.0-0.2","n6m9dx069t","","n6m9dx069t","""2024-11-13T04:21:43.602Z""","null","+","null","","","","","","",""
"","","","","","image-keyboard-response","239","229943","0.0-17.0-0.0-1.2","n6m9dx069t","","n6m9dx069t","""2024-11-13T04:21:43.602Z""","893","materials/imgs/D8.png","arrowleft","","[""materials/imgs/D85.png"",""materials/imgs/D81.png""]","false","random","","",""
"","","","","","html-keyboard-response","240","230446","0.0-17.0-0.0-0.3","n6m9dx069t","","n6m9dx069t","""2024-11-13T04:21:43.602Z""","null","+","null","","","","","","",""
"","","","","","image-keyboard-response","241","231232","0.0-17.0-0.0-1.3","n6m9dx069t","","n6m9dx069t","""2024-11-13T04:21:43.602Z""","785","materials/imgs/D82.png","arrowright","","[""materials/imgs/D68.png"",""materials/imgs/D104.png""]","false","random","","",""
"","","","","","html-keyboard-response","242","231734","0.0-17.0-0.0-0.4","n6m9dx069t","","n6m9dx069t","""2024-11-13T04:21:43.602Z""","null","+","null","","","","","","",""
"","","","","","image-keyboard-response","243","232525","0.0-17.0-0.0-1.4","n6m9dx069t","","n6m9dx069t","""2024-11-13T04:21:43.602Z""","790","materials/imgs/D53.png","arrowright","","[""materials/imgs/D34.png"",""materials/imgs/D14.png""]","false","random","","",""
"","","","","","html-keyboard-response","244","233027","0.0-17.0-0.0-0.5","n6m9dx069t","","n6m9dx069t","""2024-11-13T04:21:43.602Z""","null","+","null","","","","","","",""
"","","","","","image-keyboard-response","245","233760","0.0-17.0-0.0-1.5","n6m9dx069t","","n6m9dx069t","""2024-11-13T04:21:43.602Z""","731","materials/imgs/D48.png","arrowleft","","[""materials/imgs/D29.png"",""materials/imgs/D22.png""]","false","random","","",""
"","","","","","html-keyboard-response","246","234262","0.0-17.0-0.0-0.6","n6m9dx069t","","n6m9dx069t","""2024-11-13T04:21:43.602Z""","null","+","null","","","","","","",""
"","","","","","image-keyboard-response","247","235084","0.0-17.0-0.0-1.6","n6m9dx069t","","n6m9dx069t","""2024-11-13T04:21:43.602Z""","819","materials/imgs/D74.png","arrowleft","","[""materials/imgs/D1.png"",""materials/imgs/D36.png""]","false","random","","",""
"","","","","","html-keyboard-response","248","235585","0.0-17.0-1.0-0.0","n6m9dx069t","","n6m9dx069t","""2024-11-13T04:21:43.602Z""","null","+","null","","","","","","",""
"","","","","","image-keyboard-response","249","236062","0.0-17.0-1.0-1.0","n6m9dx069t","","n6m9dx069t","""2024-11-13T04:21:43.602Z""","475","materials/imgs/D64.png","arrowleft","","[""materials/imgs/D64.png"",""materials/imgs/D53.png""]","","check","materials/imgs/D64.png","0","true"
"","","","","","html-keyboard-response","250","236564","0.0-17.0-2.0-0.0","n6m9dx069t","","n6m9dx069t","""2024-11-13T04:21:43.602Z""","null","+","null","","","","","","",""
"","","","","","image-keyboard-response","251","237886","0.0-17.0-2.0-1.0","n6m9dx069t","","n6m9dx069t","""2024-11-13T04:21:43.602Z""","1321","materials/imgs/D65.png","arrowright","","[""materials/imgs/D4.png"",""materials/imgs/D16.png""]","false","validation","","",""
"","","","","","html-keyboard-response","252","238387","0.0-17.0-2.0-0.1","n6m9dx069t","","n6m9dx069t","""2024-11-13T04:21:43.602Z""","null","+","null","","","","","","",""
"","","","","","image-keyboard-response","253","239429","0.0-17.0-2.0-1.1","n6m9dx069t","","n6m9dx069t","""2024-11-13T04:21:43.602Z""","1041","materials/imgs/D95.png","arrowright","","[""materials/imgs/D36.png"",""materials/imgs/D4.png""]","false","validation","","",""
"","","","","","html-keyboard-response","254","239931","0.0-17.0-0.1-0.7","n6m9dx069t","","n6m9dx069t","""2024-11-13T04:21:43.602Z""","null","+","null","","","","","","",""
"","","","","","image-keyboard-response","255","240471","0.0-17.0-0.1-1.7","n6m9dx069t","","n6m9dx069t","""2024-11-13T04:21:43.602Z""","537","materials/imgs/D84.png","arrowleft","","[""materials/imgs/D4.png"",""materials/imgs/D104.png""]","false","random","","",""
"","","","","","html-keyboard-response","256","240973","0.0-17.0-0.1-0.8","n6m9dx069t","","n6m9dx069t","""2024-11-13T04:21:43.602Z""","null","+","null","","","","","","",""
"","","","","","image-keyboard-response","257","241834","0.0-17.0-0.1-1.8","n6m9dx069t","","n6m9dx069t","""2024-11-13T04:21:43.602Z""","860","materials/imgs/D17.png","arrowright","","[""materials/imgs/D101.png"",""materials/imgs/D81.png""]","false","random","","",""
"","","","","","html-keyboard-response","258","242336","0.0-17.0-0.1-0.9","n6m9dx069t","","n6m9dx069t","""2024-11-13T04:21:43.602Z""","null","+","null","","","","","","",""
"","","","","","image-keyboard-response","259","242988","0.0-17.0-0.1-1.9","n6m9dx069t","","n6m9dx069t","""2024-11-13T04:21:43.602Z""","651","materials/imgs/D57.png","arrowleft","","[""materials/imgs/D92.png"",""materials/imgs/D83.png""]","false","random","","",""
"","","","","","html-keyboard-response","260","243490","0.0-17.0-0.1-0.10","n6m9dx069t","","n6m9dx069t","""2024-11-13T04:21:43.602Z""","null","+","null","","","","","","",""
"","","","","","image-keyboard-response","261","244184","0.0-17.0-0.1-1.10","n6m9dx069t","","n6m9dx069t","""2024-11-13T04:21:43.602Z""","693","materials/imgs/D64.png","arrowleft","","[""materials/imgs/D32.png"",""materials/imgs/D25.png""]","false","random","","",""
"","","","","","html-keyboard-response","262","244685","0.0-17.0-0.1-0.11","n6m9dx069t","","n6m9dx069t","""2024-11-13T04:21:43.602Z""","null","+","null","","","","","","",""
"","","","","","image-keyboard-response","263","246306","0.0-17.0-0.1-1.11","n6m9dx069t","","n6m9dx069t","""2024-11-13T04:21:43.602Z""","1620","materials/imgs/D47.png","arrowleft","","[""materials/imgs/D20.png"",""materials/imgs/D3.png""]","false","random","","",""
"","","","","","html-keyboard-response","264","246809","0.0-17.0-0.1-0.12","n6m9dx069t","","n6m9dx069t","""2024-11-13T04:21:43.602Z""","null","+","null","","","","","","",""
"","","","","","image-keyboard-response","265","247596","0.0-17.0-0.1-1.12","n6m9dx069t","","n6m9dx069t","""2024-11-13T04:21:43.602Z""","785","materials/imgs/D77.png","arrowleft","","[""materials/imgs/D49.png"",""materials/imgs/D9.png""]","false","random","","",""
"","","","","","html-keyboard-response","266","248099","0.0-17.0-0.1-0.13","n6m9dx069t","","n6m9dx069t","""2024-11-13T04:21:43.602Z""","null","+","null","","","","","","",""
"","","","","","image-keyboard-response","267","249946","0.0-17.0-0.1-1.13","n6m9dx069t","","n6m9dx069t","""2024-11-13T04:21:43.602Z""","1845","materials/imgs/D65.png","arrowright","","[""materials/imgs/D26.png"",""materials/imgs/D22.png""]","false","random","","",""
"","","","","","html-keyboard-response","268","250448","0.0-17.0-1.1-0.1","n6m9dx069t","","n6m9dx069t","""2024-11-13T04:21:43.602Z""","null","+","null","","","","","","",""
"","","","","","image-keyboard-response","269","251030","0.0-17.0-1.1-1.1","n6m9dx069t","","n6m9dx069t","""2024-11-13T04:21:43.602Z""","581","materials/imgs/D18.png","arrowright","","[""materials/imgs/D8.png"",""materials/imgs/D18.png""]","","check","materials/imgs/D18.png","1","true"
"","","","","","html-keyboard-response","270","251533","0.0-17.0-2.1-0.2","n6m9dx069t","","n6m9dx069t","""2024-11-13T04:21:43.602Z""","null","+","null","","","","","","",""
"","","","","","image-keyboard-response","271","252225","0.0-17.0-2.1-1.2","n6m9dx069t","","n6m9dx069t","""2024-11-13T04:21:43.602Z""","690","materials/imgs/D24.png","arrowleft","","[""materials/imgs/D36.png"",""materials/imgs/D8.png""]","false","validation","","",""
"","","","","","html-keyboard-response","272","252727","0.0-17.0-2.1-0.3","n6m9dx069t","","n6m9dx069t","""2024-11-13T04:21:43.602Z""","null","+","null","","","","","","",""
"","","","","","image-keyboard-response","273","253660","0.0-17.0-2.1-1.3","n6m9dx069t","","n6m9dx069t","""2024-11-13T04:21:43.602Z""","931","materials/imgs/D68.png","arrowright","","[""materials/imgs/D96.png"",""materials/imgs/D48.png""]","false","validation","","",""
"","","","","","html-keyboard-response","274","254163","0.0-17.0-0.2-0.14","n6m9dx069t","","n6m9dx069t","""2024-11-13T04:21:43.602Z""","null","+","null","","","","","","",""
"","","","","","image-keyboard-response","275","254868","0.0-17.0-0.2-1.14","n6m9dx069t","","n6m9dx069t","""2024-11-13T04:21:43.602Z""","704","materials/imgs/D16.png","arrowright","","[""materials/imgs/D111.png"",""materials/imgs/D85.png""]","false","random","","",""
"","","","","","html-keyboard-response","276","255370","0.0-17.0-0.2-0.15","n6m9dx069t","","n6m9dx069t","""2024-11-13T04:21:43.602Z""","null","+","null","","","","","","",""
"","","","","","image-keyboard-response","277","256817","0.0-17.0-0.2-1.15","n6m9dx069t","","n6m9dx069t","""2024-11-13T04:21:43.602Z""","1445","materials/imgs/D82.png","arrowleft","","[""materials/imgs/D52.png"",""materials/imgs/D14.png""]","false","random","","",""
"","","","","","html-keyboard-response","278","257320","0.0-17.0-0.2-0.16","n6m9dx069t","","n6m9dx069t","""2024-11-13T04:21:43.602Z""","null","+","null","","","","","","",""
"","","","","","image-keyboard-response","279","258594","0.0-17.0-0.2-1.16","n6m9dx069t","","n6m9dx069t","""2024-11-13T04:21:43.602Z""","1273","materials/imgs/D37.png","arrowright","","[""materials/imgs/D82.png"",""materials/imgs/D83.png""]","false","random","","",""
"","","","","","html-keyboard-response","280","259096","0.0-17.0-0.2-0.17","n6m9dx069t","","n6m9dx069t","""2024-11-13T04:21:43.602Z""","null","+","null","","","","","","",""
"","","","","","image-keyboard-response","281","260187","0.0-17.0-0.2-1.17","n6m9dx069t","","n6m9dx069t","""2024-11-13T04:21:43.602Z""","1089","materials/imgs/D68.png","arrowleft","","[""materials/imgs/D65.png"",""materials/imgs/D26.png""]","false","random","","",""
"","","","","","html-keyboard-response","282","260689","0.0-17.0-0.2-0.18","n6m9dx069t","","n6m9dx069t","""2024-11-13T04:21:43.602Z""","null","+","null","","","","","","",""
"","","","","","image-keyboard-response","283","261573","0.0-17.0-0.2-1.18","n6m9dx069t","","n6m9dx069t","""2024-11-13T04:21:43.602Z""","883","materials/imgs/D49.png","arrowleft","","[""materials/imgs/D104.png"",""materials/imgs/D84.png""]","false","random","","",""
"","","","","","html-keyboard-response","284","262075","0.0-17.0-0.2-0.19","n6m9dx069t","","n6m9dx069t","""2024-11-13T04:21:43.602Z""","null","+","null","","","","","","",""
"","","","","","image-keyboard-response","285","263222","0.0-17.0-0.2-1.19","n6m9dx069t","","n6m9dx069t","""2024-11-13T04:21:43.602Z""","1144","materials/imgs/D85.png","arrowright","","[""materials/imgs/D25.png"",""materials/imgs/D77.png""]","false","random","","",""
"","","","","","html-keyboard-response","286","263724","0.0-17.0-0.2-0.20","n6m9dx069t","","n6m9dx069t","""2024-11-13T04:21:43.602Z""","null","+","null","","","","","","",""
"","","","","","image-keyboard-response","287","265127","0.0-17.0-0.2-1.20","n6m9dx069t","","n6m9dx069t","""2024-11-13T04:21:43.602Z""","1402","materials/imgs/D19.png","arrowleft","","[""materials/imgs/D106.png"",""materials/imgs/D36.png""]","false","random","","",""
"","","","","","html-keyboard-response","288","265629","0.0-17.0-1.2-0.2","n6m9dx069t","","n6m9dx069t","""2024-11-13T04:21:43.602Z""","null","+","null","","","","","","",""
"","","","","","image-keyboard-response","289","266165","0.0-17.0-1.2-1.2","n6m9dx069t","","n6m9dx069t","""2024-11-13T04:21:43.602Z""","534","materials/imgs/D18.png","arrowright","","[""materials/imgs/D8.png"",""materials/imgs/D18.png""]","","check","materials/imgs/D18.png","1","true"
"","","","","","html-keyboard-response","290","266667","0.0-17.0-2.2-0.4","n6m9dx069t","","n6m9dx069t","""2024-11-13T04:21:43.602Z""","null","+","null","","","","","","",""
"","","","","","image-keyboard-response","291","267386","0.0-17.0-2.2-1.4","n6m9dx069t","","n6m9dx069t","""2024-11-13T04:21:43.602Z""","718","materials/imgs/D52.png","arrowleft","","[""materials/imgs/D9.png"",""materials/imgs/D19.png""]","false","validation","","",""
"","","","","","html-keyboard-response","292","267888","0.0-17.0-2.2-0.5","n6m9dx069t","","n6m9dx069t","""2024-11-13T04:21:43.602Z""","null","+","null","","","","","","",""
"","","","","","image-keyboard-response","293","268626","0.0-17.0-2.2-1.5","n6m9dx069t","","n6m9dx069t","""2024-11-13T04:21:43.602Z""","737","materials/imgs/D36.png","arrowright","","[""materials/imgs/D47.png"",""materials/imgs/D49.png""]","false","validation","","",""
"","","","","","html-keyboard-response","294","269129","0.0-17.0-0.3-0.21","n6m9dx069t","","n6m9dx069t","""2024-11-13T04:21:43.602Z""","null","+","null","","","","","","",""
"","","","","","image-keyboard-response","295","270718","0.0-17.0-0.3-1.21","n6m9dx069t","","n6m9dx069t","""2024-11-13T04:21:43.602Z""","1587","materials/imgs/D25.png","arrowright","","[""materials/imgs/D19.png"",""materials/imgs/D101.png""]","false","random","","",""
"","","","","","html-keyboard-response","296","271221","0.0-17.0-0.3-0.22","n6m9dx069t","","n6m9dx069t","""2024-11-13T04:21:43.602Z""","null","+","null","","","","","","",""
"","","","","","image-keyboard-response","297","272499","0.0-17.0-0.3-1.22","n6m9dx069t","","n6m9dx069t","""2024-11-13T04:21:43.602Z""","1277","materials/imgs/D6.png","arrowright","","[""materials/imgs/D4.png"",""materials/imgs/D24.png""]","false","random","","",""
"","","","","","html-keyboard-response","298","273002","0.0-17.0-0.3-0.23","n6m9dx069t","","n6m9dx069t","""2024-11-13T04:21:43.602Z""","null","+","null","","","","","","",""
"","","","","","image-keyboard-response","299","273580","0.0-17.0-0.3-1.23","n6m9dx069t","","n6m9dx069t","""2024-11-13T04:21:43.602Z""","576","materials/imgs/D77.png","arrowright","","[""materials/imgs/D11.png"",""materials/imgs/D6.png""]","false","random","","",""
"","","","","","html-keyboard-response","300","274082","0.0-17.0-0.3-0.24","n6m9dx069t","","n6m9dx069t","""2024-11-13T04:21:43.602Z""","null","+","null","","","","","","",""
"","","","","","image-keyboard-response","301","275471","0.0-17.0-0.3-1.24","n6m9dx069t","","n6m9dx069t","""2024-11-13T04:21:43.602Z""","1387","materials/imgs/D77.png","arrowright","","[""materials/imgs/D85.png"",""materials/imgs/D106.png""]","false","random","","",""
"","","","","","html-keyboard-response","302","275973","0.0-17.0-0.3-0.25","n6m9dx069t","","n6m9dx069t","""2024-11-13T04:21:43.602Z""","null","+","null","","","","","","",""
"","","","","","image-keyboard-response","303","278267","0.0-17.0-0.3-1.25","n6m9dx069t","","n6m9dx069t","""2024-11-13T04:21:43.602Z""","2292","materials/imgs/D81.png","arrowright","","[""materials/imgs/D46.png"",""materials/imgs/D68.png""]","false","random","","",""
"","","","","","html-keyboard-response","304","278769","0.0-17.0-0.3-0.26","n6m9dx069t","","n6m9dx069t","""2024-11-13T04:21:43.602Z""","null","+","null","","","","","","",""
"","","","","","image-keyboard-response","305","279541","0.0-17.0-0.3-1.26","n6m9dx069t","","n6m9dx069t","""2024-11-13T04:21:43.602Z""","771","materials/imgs/D24.png","arrowright","","[""materials/imgs/D47.png"",""materials/imgs/D4.png""]","false","random","","",""
"","","","","","html-keyboard-response","306","280044","0.0-17.0-0.3-0.27","n6m9dx069t","","n6m9dx069t","""2024-11-13T04:21:43.602Z""","null","+","null","","","","","","",""
"","","","","","image-keyboard-response","307","280713","0.0-17.0-0.3-1.27","n6m9dx069t","","n6m9dx069t","""2024-11-13T04:21:43.602Z""","667","materials/imgs/D77.png","arrowleft","","[""materials/imgs/D14.png"",""materials/imgs/D3.png""]","false","random","","",""
"","","","","","html-keyboard-response","308","281215","0.0-17.0-1.3-0.3","n6m9dx069t","","n6m9dx069t","""2024-11-13T04:21:43.602Z""","null","+","null","","","","","","",""
"","","","","","image-keyboard-response","309","281901","0.0-17.0-1.3-1.3","n6m9dx069t","","n6m9dx069t","""2024-11-13T04:21:43.602Z""","684","materials/imgs/D64.png","arrowleft","","[""materials/imgs/D64.png"",""materials/imgs/D53.png""]","","check","materials/imgs/D64.png","0","true"
"","","","","","html-keyboard-response","310","282403","0.0-17.0-2.3-0.6","n6m9dx069t","","n6m9dx069t","""2024-11-13T04:21:43.602Z""","null","+","null","","","","","","",""
"","","","","","image-keyboard-response","311","284681","0.0-17.0-2.3-1.6","n6m9dx069t","","n6m9dx069t","""2024-11-13T04:21:43.602Z""","2276","materials/imgs/D96.png","arrowright","","[""materials/imgs/D46.png"",""materials/imgs/D18.png""]","false","validation","","",""
"","","","","","html-keyboard-response","312","285183","0.0-17.0-2.3-0.7","n6m9dx069t","","n6m9dx069t","""2024-11-13T04:21:43.602Z""","null","+","null","","","","","","",""
"","","","","","image-keyboard-response","313","288444","0.0-17.0-2.3-1.7","n6m9dx069t","","n6m9dx069t","""2024-11-13T04:21:43.602Z""","3259","materials/imgs/D37.png","arrowleft","","[""materials/imgs/D84.png"",""materials/imgs/D111.png""]","false","validation","","",""
"","","","","","html-keyboard-response","314","288946","0.0-17.0-0.4-0.28","n6m9dx069t","","n6m9dx069t","""2024-11-13T04:21:43.602Z""","null","+","null","","","","","","",""
"","","","","","image-keyboard-response","315","289755","0.0-17.0-0.4-1.28","n6m9dx069t","","n6m9dx069t","""2024-11-13T04:21:43.602Z""","808","materials/imgs/D66.png","arrowright","","[""materials/imgs/D94.png"",""materials/imgs/D111.png""]","false","random","","",""
"","","","","","html-keyboard-response","316","290257","0.0-17.0-0.4-0.29","n6m9dx069t","","n6m9dx069t","""2024-11-13T04:21:43.602Z""","null","+","null","","","","","","",""
"","","","","","image-keyboard-response","317","293484","0.0-17.0-0.4-1.29","n6m9dx069t","","n6m9dx069t","""2024-11-13T04:21:43.602Z""","3226","materials/imgs/D48.png","arrowleft","","[""materials/imgs/D6.png"",""materials/imgs/D1.png""]","false","random","","",""
"","","","","","html-keyboard-response","318","293986","0.0-17.0-0.4-0.30","n6m9dx069t","","n6m9dx069t","""2024-11-13T04:21:43.602Z""","null","+","null","","","","","","",""
"","","","","","image-keyboard-response","319","297701","0.0-17.0-0.4-1.30","n6m9dx069t","","n6m9dx069t","""2024-11-13T04:21:43.602Z""","3714","materials/imgs/D47.png","arrowleft","","[""materials/imgs/D6.png"",""materials/imgs/D102.png""]","false","random","","",""
"","","","","","html-keyboard-response","320","298203","0.0-17.0-0.4-0.31","n6m9dx069t","","n6m9dx069t","""2024-11-13T04:21:43.602Z""","null","+","null","","","","","","",""
"","","","","","image-keyboard-response","321","300706","0.0-17.0-0.4-1.31","n6m9dx069t","","n6m9dx069t","""2024-11-13T04:21:43.602Z""","2502","materials/imgs/D92.png","arrowleft","","[""materials/imgs/D81.png"",""materials/imgs/D36.png""]","false","random","","",""
"","","","","","html-keyboard-response","322","301207","0.0-17.0-0.4-0.32","n6m9dx069t","","n6m9dx069t","""2024-11-13T04:21:43.602Z""","null","+","null","","","","","","",""
"","","","","","image-keyboard-response","323","302421","0.0-17.0-0.4-1.32","n6m9dx069t","","n6m9dx069t","""2024-11-13T04:21:43.602Z""","1213","materials/imgs/D25.png","arrowright","","[""materials/imgs/D66.png"",""materials/imgs/D96.png""]","false","random","","",""
"","","","","","html-keyboard-response","324","302923","0.0-17.0-0.4-0.33","n6m9dx069t","","n6m9dx069t","""2024-11-13T04:21:43.602Z""","null","+","null","","","","","","",""
"","","","","","image-keyboard-response","325","303865","0.0-17.0-0.4-1.33","n6m9dx069t","","n6m9dx069t","""2024-11-13T04:21:43.602Z""","941","materials/imgs/D82.png","arrowleft","","[""materials/imgs/D9.png"",""materials/imgs/D8.png""]","false","random","","",""
"","","","","","html-keyboard-response","326","304367","0.0-17.0-0.4-0.34","n6m9dx069t","","n6m9dx069t","""2024-11-13T04:21:43.602Z""","null","+","null","","","","","","",""
"","","","","","image-keyboard-response","327","305771","0.0-17.0-0.4-1.34","n6m9dx069t","","n6m9dx069t","""2024-11-13T04:21:43.602Z""","1403","materials/imgs/D82.png","arrowright","","[""materials/imgs/D24.png"",""materials/imgs/D76.png""]","false","random","","",""
"","","","","","html-keyboard-response","328","306273","0.0-17.0-1.4-0.4","n6m9dx069t","","n6m9dx069t","""2024-11-13T04:21:43.602Z""","null","+","null","","","","","","",""
"","","","","","image-keyboard-response","329","306818","0.0-17.0-1.4-1.4","n6m9dx069t","","n6m9dx069t","""2024-11-13T04:21:43.602Z""","544","materials/imgs/D78.png","arrowright","","[""materials/imgs/D76.png"",""materials/imgs/D78.png""]","","check","materials/imgs/D78.png","1","true"
"","","","","","html-keyboard-response","330","307321","0.0-17.0-2.4-0.8","n6m9dx069t","","n6m9dx069t","""2024-11-13T04:21:43.602Z""","null","+","null","","","","","","",""
"","","","","","image-keyboard-response","331","308739","0.0-17.0-2.4-1.8","n6m9dx069t","","n6m9dx069t","""2024-11-13T04:21:43.602Z""","1417","materials/imgs/D79.png","arrowleft","","[""materials/imgs/D51.png"",""materials/imgs/D64.png""]","false","validation","","",""
"","","","","","html-keyboard-response","332","309240","0.0-17.0-2.4-0.9","n6m9dx069t","","n6m9dx069t","""2024-11-13T04:21:43.602Z""","null","+","null","","","","","","",""
"","","","","","image-keyboard-response","333","310756","0.0-17.0-2.4-1.9","n6m9dx069t","","n6m9dx069t","""2024-11-13T04:21:43.602Z""","1514","materials/imgs/D82.png","arrowright","","[""materials/imgs/D83.png"",""materials/imgs/D22.png""]","false","validation","","",""
"","","","","","html-button-response","334","312718","0.0-18.0","n6m9dx069t","","n6m9dx069t","""2024-11-13T04:21:43.602Z""","1960","You have completed 75% of the trials. Please click 'Continue' when you are ready proceed.","0","","","","","","",""
"","","","","","html-keyboard-response","335","313219","0.0-19.0-0.0-0.0","n6m9dx069t","","n6m9dx069t","""2024-11-13T04:21:43.602Z""","null","+","null","","","","","","",""
"","","","","","image-keyboard-response","336","314878","0.0-19.0-0.0-1.0","n6m9dx069t","","n6m9dx069t","""2024-11-13T04:21:43.602Z""","1657","materials/imgs/D19.png","arrowright","","[""materials/imgs/D56.png"",""materials/imgs/D32.png""]","false","random","","",""
"","","","","","html-keyboard-response","337","315380","0.0-19.0-0.0-0.1","n6m9dx069t","","n6m9dx069t","""2024-11-13T04:21:43.602Z""","null","+","null","","","","","","",""
"","","","","","image-keyboard-response","338","316208","0.0-19.0-0.0-1.1","n6m9dx069t","","n6m9dx069t","""2024-11-13T04:21:43.602Z""","826","materials/imgs/D57.png","arrowright","","[""materials/imgs/D1.png"",""materials/imgs/D6.png""]","false","random","","",""
"","","","","","html-keyboard-response","339","316710","0.0-19.0-0.0-0.2","n6m9dx069t","","n6m9dx069t","""2024-11-13T04:21:43.602Z""","null","+","null","","","","","","",""
"","","","","","image-keyboard-response","340","318336","0.0-19.0-0.0-1.2","n6m9dx069t","","n6m9dx069t","""2024-11-13T04:21:43.602Z""","1624","materials/imgs/D111.png","arrowright","","[""materials/imgs/D37.png"",""materials/imgs/D79.png""]","false","random","","",""
"","","","","","html-keyboard-response","341","318838","0.0-19.0-0.0-0.3","n6m9dx069t","","n6m9dx069t","""2024-11-13T04:21:43.602Z""","null","+","null","","","","","","",""
"","","","","","image-keyboard-response","342","320011","0.0-19.0-0.0-1.3","n6m9dx069t","","n6m9dx069t","""2024-11-13T04:21:43.602Z""","1171","materials/imgs/D95.png","arrowleft","","[""materials/imgs/D56.png"",""materials/imgs/D11.png""]","false","random","","",""
"","","","","","html-keyboard-response","343","320512","0.0-19.0-0.0-0.4","n6m9dx069t","","n6m9dx069t","""2024-11-13T04:21:43.602Z""","null","+","null","","","","","","",""
"","","","","","image-keyboard-response","344","321841","0.0-19.0-0.0-1.4","n6m9dx069t","","n6m9dx069t","""2024-11-13T04:21:43.602Z""","1328","materials/imgs/D20.png","arrowright","","[""materials/imgs/D34.png"",""materials/imgs/D103.png""]","false","random","","",""
"","","","","","html-keyboard-response","345","322343","0.0-19.0-0.0-0.5","n6m9dx069t","","n6m9dx069t","""2024-11-13T04:21:43.602Z""","null","+","null","","","","","","",""
"","","","","","image-keyboard-response","346","323806","0.0-19.0-0.0-1.5","n6m9dx069t","","n6m9dx069t","""2024-11-13T04:21:43.602Z""","1461","materials/imgs/D52.png","arrowright","","[""materials/imgs/D11.png"",""materials/imgs/D77.png""]","false","random","","",""
"","","","","","html-keyboard-response","347","324308","0.0-19.0-0.0-0.6","n6m9dx069t","","n6m9dx069t","""2024-11-13T04:21:43.602Z""","null","+","null","","","","","","",""
"","","","","","image-keyboard-response","348","325504","0.0-19.0-0.0-1.6","n6m9dx069t","","n6m9dx069t","""2024-11-13T04:21:43.602Z""","1196","materials/imgs/D11.png","arrowright","","[""materials/imgs/D9.png"",""materials/imgs/D103.png""]","false","random","","",""
"","","","","","html-keyboard-response","349","326006","0.0-19.0-1.0-0.0","n6m9dx069t","","n6m9dx069t","""2024-11-13T04:21:43.602Z""","null","+","null","","","","","","",""
"","","","","","image-keyboard-response","350","326966","0.0-19.0-1.0-1.0","n6m9dx069t","","n6m9dx069t","""2024-11-13T04:21:43.602Z""","958","materials/imgs/D46.png","arrowleft","","[""materials/imgs/D46.png"",""materials/imgs/D26.png""]","","check","materials/imgs/D46.png","0","true"
"","","","","","html-keyboard-response","351","327468","0.0-19.0-2.0-0.0","n6m9dx069t","","n6m9dx069t","""2024-11-13T04:21:43.602Z""","null","+","null","","","","","","",""
"","","","","","image-keyboard-response","352","328704","0.0-19.0-2.0-1.0","n6m9dx069t","","n6m9dx069t","""2024-11-13T04:21:43.602Z""","1234","materials/imgs/D52.png","arrowleft","","[""materials/imgs/D9.png"",""materials/imgs/D19.png""]","false","validation","","",""
"","","","","","html-keyboard-response","353","329206","0.0-19.0-2.0-0.1","n6m9dx069t","","n6m9dx069t","""2024-11-13T04:21:43.602Z""","null","+","null","","","","","","",""
"","","","","","image-keyboard-response","354","330049","0.0-19.0-2.0-1.1","n6m9dx069t","","n6m9dx069t","""2024-11-13T04:21:43.602Z""","842","materials/imgs/D81.png","arrowright","","[""materials/imgs/D105.png"",""materials/imgs/D24.png""]","false","validation","","",""
"","","","","","html-keyboard-response","355","330551","0.0-19.0-0.1-0.7","n6m9dx069t","","n6m9dx069t","""2024-11-13T04:21:43.602Z""","null","+","null","","","","","","",""
"","","","","","image-keyboard-response","356","331146","0.0-19.0-0.1-1.7","n6m9dx069t","","n6m9dx069t","""2024-11-13T04:21:43.602Z""","594","materials/imgs/D17.png","arrowright","","[""materials/imgs/D75.png"",""materials/imgs/D14.png""]","false","random","","",""
"","","","","","html-keyboard-response","357","331649","0.0-19.0-0.1-0.8","n6m9dx069t","","n6m9dx069t","""2024-11-13T04:21:43.602Z""","null","+","null","","","","","","",""
"","","","","","image-keyboard-response","358","332885","0.0-19.0-0.1-1.8","n6m9dx069t","","n6m9dx069t","""2024-11-13T04:21:43.602Z""","1235","materials/imgs/D92.png","arrowright","","[""materials/imgs/D68.png"",""materials/imgs/D49.png""]","false","random","","",""
"","","","","","html-keyboard-response","359","333387","0.0-19.0-0.1-0.9","n6m9dx069t","","n6m9dx069t","""2024-11-13T04:21:43.602Z""","null","+","null","","","","","","",""
"","","","","","image-keyboard-response","360","334291","0.0-19.0-0.1-1.9","n6m9dx069t","","n6m9dx069t","""2024-11-13T04:21:43.602Z""","902","materials/imgs/D17.png","arrowleft","","[""materials/imgs/D53.png"",""materials/imgs/D24.png""]","false","random","","",""
"","","","","","html-keyboard-response","361","334793","0.0-19.0-0.1-0.10","n6m9dx069t","","n6m9dx069t","""2024-11-13T04:21:43.602Z""","null","+","null","","","","","","",""
"","","","","","image-keyboard-response","362","335634","0.0-19.0-0.1-1.10","n6m9dx069t","","n6m9dx069t","""2024-11-13T04:21:43.602Z""","839","materials/imgs/D35.png","arrowleft","","[""materials/imgs/D56.png"",""materials/imgs/D75.png""]","false","random","","",""
"","","","","","html-keyboard-response","363","336136","0.0-19.0-0.1-0.11","n6m9dx069t","","n6m9dx069t","""2024-11-13T04:21:43.602Z""","null","+","null","","","","","","",""
"","","","","","image-keyboard-response","364","337507","0.0-19.0-0.1-1.11","n6m9dx069t","","n6m9dx069t","""2024-11-13T04:21:43.602Z""","1369","materials/imgs/D103.png","arrowright","","[""materials/imgs/D49.png"",""materials/imgs/D47.png""]","false","random","","",""
"","","","","","html-keyboard-response","365","338009","0.0-19.0-0.1-0.12","n6m9dx069t","","n6m9dx069t","""2024-11-13T04:21:43.602Z""","null","+","null","","","","","","",""
"","","","","","image-keyboard-response","366","339084","0.0-19.0-0.1-1.12","n6m9dx069t","","n6m9dx069t","""2024-11-13T04:21:43.602Z""","1074","materials/imgs/D37.png","arrowleft","","[""materials/imgs/D24.png"",""materials/imgs/D95.png""]","false","random","","",""
"","","","","","html-keyboard-response","367","339586","0.0-19.0-0.1-0.13","n6m9dx069t","","n6m9dx069t","""2024-11-13T04:21:43.602Z""","null","+","null","","","","","","",""
"","","","","","image-keyboard-response","368","340810","0.0-19.0-0.1-1.13","n6m9dx069t","","n6m9dx069t","""2024-11-13T04:21:43.602Z""","1223","materials/imgs/D83.png","arrowright","","[""materials/imgs/D36.png"",""materials/imgs/D1.png""]","false","random","","",""
"","","","","","html-keyboard-response","369","341312","0.0-19.0-1.1-0.1","n6m9dx069t","","n6m9dx069t","""2024-11-13T04:21:43.602Z""","null","+","null","","","","","","",""
"","","","","","image-keyboard-response","370","341869","0.0-19.0-1.1-1.1","n6m9dx069t","","n6m9dx069t","""2024-11-13T04:21:43.602Z""","555","materials/imgs/D46.png","arrowleft","","[""materials/imgs/D46.png"",""materials/imgs/D26.png""]","","check","materials/imgs/D46.png","0","true"
"","","","","","html-keyboard-response","371","342371","0.0-19.0-2.1-0.2","n6m9dx069t","","n6m9dx069t","""2024-11-13T04:21:43.602Z""","null","+","null","","","","","","",""
"","","","","","image-keyboard-response","372","343818","0.0-19.0-2.1-1.2","n6m9dx069t","","n6m9dx069t","""2024-11-13T04:21:43.602Z""","1446","materials/imgs/D75.png","arrowright","","[""materials/imgs/D96.png"",""materials/imgs/D4.png""]","false","validation","","",""
"","","","","","html-keyboard-response","373","344320","0.0-19.0-2.1-0.3","n6m9dx069t","","n6m9dx069t","""2024-11-13T04:21:43.602Z""","null","+","null","","","","","","",""
"","","","","","image-keyboard-response","374","345391","0.0-19.0-2.1-1.3","n6m9dx069t","","n6m9dx069t","""2024-11-13T04:21:43.602Z""","1069","materials/imgs/D64.png","arrowleft","","[""materials/imgs/D6.png"",""materials/imgs/D81.png""]","false","validation","","",""
"","","","","","html-keyboard-response","375","345893","0.0-19.0-0.2-0.14","n6m9dx069t","","n6m9dx069t","""2024-11-13T04:21:43.602Z""","null","+","null","","","","","","",""
"","","","","","image-keyboard-response","376","346902","0.0-19.0-0.2-1.14","n6m9dx069t","","n6m9dx069t","""2024-11-13T04:21:43.602Z""","1007","materials/imgs/D26.png","arrowleft","","[""materials/imgs/D14.png"",""materials/imgs/D74.png""]","false","random","","",""
"","","","","","html-keyboard-response","377","347404","0.0-19.0-0.2-0.15","n6m9dx069t","","n6m9dx069t","""2024-11-13T04:21:43.602Z""","null","+","null","","","","","","",""
"","","","","","image-keyboard-response","378","348253","0.0-19.0-0.2-1.15","n6m9dx069t","","n6m9dx069t","""2024-11-13T04:21:43.602Z""","846","materials/imgs/D49.png","arrowleft","","[""materials/imgs/D85.png"",""materials/imgs/D37.png""]","false","random","","",""
"","","","","","html-keyboard-response","379","348756","0.0-19.0-0.2-0.16","n6m9dx069t","","n6m9dx069t","""2024-11-13T04:21:43.602Z""","null","+","null","","","","","","",""
"","","","","","image-keyboard-response","380","350129","0.0-19.0-0.2-1.16","n6m9dx069t","","n6m9dx069t","""2024-11-13T04:21:43.602Z""","1371","materials/imgs/D77.png","arrowleft","","[""materials/imgs/D32.png"",""materials/imgs/D26.png""]","false","random","","",""
"","","","","","html-keyboard-response","381","350631","0.0-19.0-0.2-0.17","n6m9dx069t","","n6m9dx069t","""2024-11-13T04:21:43.602Z""","null","+","null","","","","","","",""
"","","","","","image-keyboard-response","382","351782","0.0-19.0-0.2-1.17","n6m9dx069t","","n6m9dx069t","""2024-11-13T04:21:43.602Z""","1149","materials/imgs/D81.png","arrowright","","[""materials/imgs/D83.png"",""materials/imgs/D8.png""]","false","random","","",""
"","","","","","html-keyboard-response","383","352284","0.0-19.0-0.2-0.18","n6m9dx069t","","n6m9dx069t","""2024-11-13T04:21:43.602Z""","null","+","null","","","","","","",""
"","","","","","image-keyboard-response","384","353692","0.0-19.0-0.2-1.18","n6m9dx069t","","n6m9dx069t","""2024-11-13T04:21:43.602Z""","1407","materials/imgs/D49.png","arrowleft","","[""materials/imgs/D101.png"",""materials/imgs/D92.png""]","false","random","","",""
"","","","","","html-keyboard-response","385","354194","0.0-19.0-0.2-0.19","n6m9dx069t","","n6m9dx069t","""2024-11-13T04:21:43.602Z""","null","+","null","","","","","","",""
"","","","","","image-keyboard-response","386","355293","0.0-19.0-0.2-1.19","n6m9dx069t","","n6m9dx069t","""2024-11-13T04:21:43.602Z""","1098","materials/imgs/D17.png","arrowleft","","[""materials/imgs/D65.png"",""materials/imgs/D34.png""]","false","random","","",""
"","","","","","html-keyboard-response","387","355796","0.0-19.0-0.2-0.20","n6m9dx069t","","n6m9dx069t","""2024-11-13T04:21:43.602Z""","null","+","null","","","","","","",""
"","","","","","image-keyboard-response","388","356605","0.0-19.0-0.2-1.20","n6m9dx069t","","n6m9dx069t","""2024-11-13T04:21:43.602Z""","809","materials/imgs/D52.png","arrowleft","","[""materials/imgs/D83.png"",""materials/imgs/D74.png""]","false","random","","",""
"","","","","","html-keyboard-response","389","357107","0.0-19.0-1.2-0.2","n6m9dx069t","","n6m9dx069t","""2024-11-13T04:21:43.602Z""","null","+","null","","","","","","",""
"","","","","","image-keyboard-response","390","357778","0.0-19.0-1.2-1.2","n6m9dx069t","","n6m9dx069t","""2024-11-13T04:21:43.602Z""","669","materials/imgs/D18.png","arrowright","","[""materials/imgs/D8.png"",""materials/imgs/D18.png""]","","check","materials/imgs/D18.png","1","true"
"","","","","","html-keyboard-response","391","358279","0.0-19.0-2.2-0.4","n6m9dx069t","","n6m9dx069t","""2024-11-13T04:21:43.602Z""","null","+","null","","","","","","",""
"","","","","","image-keyboard-response","392","359277","0.0-19.0-2.2-1.4","n6m9dx069t","","n6m9dx069t","""2024-11-13T04:21:43.602Z""","996","materials/imgs/D22.png","arrowleft","","[""materials/imgs/D4.png"",""materials/imgs/D25.png""]","false","validation","","",""
"","","","","","html-keyboard-response","393","359779","0.0-19.0-2.2-0.5","n6m9dx069t","","n6m9dx069t","""2024-11-13T04:21:43.602Z""","null","+","null","","","","","","",""
"","","","","","image-keyboard-response","394","360546","0.0-19.0-2.2-1.5","n6m9dx069t","","n6m9dx069t","""2024-11-13T04:21:43.602Z""","766","materials/imgs/D57.png","arrowright","","[""materials/imgs/D111.png"",""materials/imgs/D4.png""]","false","validation","","",""
"","","","","","html-keyboard-response","395","361048","0.0-19.0-0.3-0.21","n6m9dx069t","","n6m9dx069t","""2024-11-13T04:21:43.602Z""","null","+","null","","","","","","",""
"","","","","","image-keyboard-response","396","361901","0.0-19.0-0.3-1.21","n6m9dx069t","","n6m9dx069t","""2024-11-13T04:21:43.602Z""","852","materials/imgs/D20.png","arrowright","","[""materials/imgs/D46.png"",""materials/imgs/D65.png""]","false","random","","",""
"","","","","","html-keyboard-response","397","362402","0.0-19.0-0.3-0.22","n6m9dx069t","","n6m9dx069t","""2024-11-13T04:21:43.602Z""","null","+","null","","","","","","",""
"","","","","","image-keyboard-response","398","364453","0.0-19.0-0.3-1.22","n6m9dx069t","","n6m9dx069t","""2024-11-13T04:21:43.602Z""","2049","materials/imgs/D80.png","arrowleft","","[""materials/imgs/D64.png"",""materials/imgs/D11.png""]","false","random","","",""
"","","","","","html-keyboard-response","399","364955","0.0-19.0-0.3-0.23","n6m9dx069t","","n6m9dx069t","""2024-11-13T04:21:43.602Z""","null","+","null","","","","","","",""
"","","","","","image-keyboard-response","400","366947","0.0-19.0-0.3-1.23","n6m9dx069t","","n6m9dx069t","""2024-11-13T04:21:43.602Z""","1991","materials/imgs/D78.png","arrowright","","[""materials/imgs/D101.png"",""materials/imgs/D56.png""]","false","random","","",""
"","","","","","html-keyboard-response","401","367449","0.0-19.0-0.3-0.24","n6m9dx069t","","n6m9dx069t","""2024-11-13T04:21:43.602Z""","null","+","null","","","","","","",""
"","","","","","image-keyboard-response","402","368585","0.0-19.0-0.3-1.24","n6m9dx069t","","n6m9dx069t","""2024-11-13T04:21:43.602Z""","1134","materials/imgs/D17.png","arrowleft","","[""materials/imgs/D87.png"",""materials/imgs/D8.png""]","false","random","","",""
"","","","","","html-keyboard-response","403","369087","0.0-19.0-0.3-0.25","n6m9dx069t","","n6m9dx069t","""2024-11-13T04:21:43.602Z""","null","+","null","","","","","","",""
"","","","","","image-keyboard-response","404","370189","0.0-19.0-0.3-1.25","n6m9dx069t","","n6m9dx069t","""2024-11-13T04:21:43.602Z""","1100","materials/imgs/D94.png","arrowright","","[""materials/imgs/D32.png"",""materials/imgs/D24.png""]","false","random","","",""
"","","","","","html-keyboard-response","405","370691","0.0-19.0-0.3-0.26","n6m9dx069t","","n6m9dx069t","""2024-11-13T04:21:43.602Z""","null","+","null","","","","","","",""
"","","","","","image-keyboard-response","406","372188","0.0-19.0-0.3-1.26","n6m9dx069t","","n6m9dx069t","""2024-11-13T04:21:43.602Z""","1494","materials/imgs/D51.png","arrowright","","[""materials/imgs/D53.png"",""materials/imgs/D52.png""]","false","random","","",""
"","","","","","html-keyboard-response","407","372690","0.0-19.0-0.3-0.27","n6m9dx069t","","n6m9dx069t","""2024-11-13T04:21:43.602Z""","null","+","null","","","","","","",""
"","","","","","image-keyboard-response","408","374683","0.0-19.0-0.3-1.27","n6m9dx069t","","n6m9dx069t","""2024-11-13T04:21:43.602Z""","1991","materials/imgs/D81.png","arrowright","","[""materials/imgs/D75.png"",""materials/imgs/D37.png""]","false","random","","",""
"","","","","","html-keyboard-response","409","375185","0.0-19.0-1.3-0.3","n6m9dx069t","","n6m9dx069t","""2024-11-13T04:21:43.602Z""","null","+","null","","","","","","",""
"","","","","","image-keyboard-response","410","375736","0.0-19.0-1.3-1.3","n6m9dx069t","","n6m9dx069t","""2024-11-13T04:21:43.602Z""","549","materials/imgs/D26.png","arrowleft","","[""materials/imgs/D26.png"",""materials/imgs/D46.png""]","","check","materials/imgs/D26.png","0","true"
"","","","","","html-keyboard-response","411","376238","0.0-19.0-2.3-0.6","n6m9dx069t","","n6m9dx069t","""2024-11-13T04:21:43.602Z""","null","+","null","","","","","","",""
"","","","","","image-keyboard-response","412","377070","0.0-19.0-2.3-1.6","n6m9dx069t","","n6m9dx069t","""2024-11-13T04:21:43.602Z""","830","materials/imgs/D81.png","arrowright","","[""materials/imgs/D105.png"",""materials/imgs/D24.png""]","false","validation","","",""
"","","","","","html-keyboard-response","413","377572","0.0-19.0-2.3-0.7","n6m9dx069t","","n6m9dx069t","""2024-11-13T04:21:43.602Z""","null","+","null","","","","","","",""
"","","","","","image-keyboard-response","414","378564","0.0-19.0-2.3-1.7","n6m9dx069t","","n6m9dx069t","""2024-11-13T04:21:43.602Z""","990","materials/imgs/D26.png","arrowleft","","[""materials/imgs/D36.png"",""materials/imgs/D92.png""]","false","validation","","",""
"","","","","","html-keyboard-response","415","379066","0.0-19.0-0.4-0.28","n6m9dx069t","","n6m9dx069t","""2024-11-13T04:21:43.602Z""","null","+","null","","","","","","",""
"","","","","","image-keyboard-response","416","379974","0.0-19.0-0.4-1.28","n6m9dx069t","","n6m9dx069t","""2024-11-13T04:21:43.602Z""","906","materials/imgs/D25.png","arrowright","","[""materials/imgs/D66.png"",""materials/imgs/D57.png""]","false","random","","",""
"","","","","","html-keyboard-response","417","380476","0.0-19.0-0.4-0.29","n6m9dx069t","","n6m9dx069t","""2024-11-13T04:21:43.602Z""","null","+","null","","","","","","",""
"","","","","","image-keyboard-response","418","381238","0.0-19.0-0.4-1.29","n6m9dx069t","","n6m9dx069t","""2024-11-13T04:21:43.602Z""","760","materials/imgs/D104.png","arrowright","","[""materials/imgs/D64.png"",""materials/imgs/D6.png""]","false","random","","",""
"","","","","","html-keyboard-response","419","381740","0.0-19.0-0.4-0.30","n6m9dx069t","","n6m9dx069t","""2024-11-13T04:21:43.602Z""","null","+","null","","","","","","",""
"","","","","","image-keyboard-response","420","382409","0.0-19.0-0.4-1.30","n6m9dx069t","","n6m9dx069t","""2024-11-13T04:21:43.602Z""","667","materials/imgs/D92.png","arrowright","","[""materials/imgs/D51.png"",""materials/imgs/D103.png""]","false","random","","",""
"","","","","","html-keyboard-response","421","382911","0.0-19.0-0.4-0.31","n6m9dx069t","","n6m9dx069t","""2024-11-13T04:21:43.602Z""","null","+","null","","","","","","",""
"","","","","","image-keyboard-response","422","384066","0.0-19.0-0.4-1.31","n6m9dx069t","","n6m9dx069t","""2024-11-13T04:21:43.602Z""","1153","materials/imgs/D25.png","arrowright","","[""materials/imgs/D34.png"",""materials/imgs/D18.png""]","false","random","","",""
"","","","","","html-keyboard-response","423","384568","0.0-19.0-0.4-0.32","n6m9dx069t","","n6m9dx069t","""2024-11-13T04:21:43.602Z""","null","+","null","","","","","","",""
"","","","","","image-keyboard-response","424","385329","0.0-19.0-0.4-1.32","n6m9dx069t","","n6m9dx069t","""2024-11-13T04:21:43.602Z""","760","materials/imgs/D56.png","arrowright","","[""materials/imgs/D14.png"",""materials/imgs/D96.png""]","false","random","","",""
"","","","","","html-keyboard-response","425","385831","0.0-19.0-0.4-0.33","n6m9dx069t","","n6m9dx069t","""2024-11-13T04:21:43.602Z""","null","+","null","","","","","","",""
"","","","","","image-keyboard-response","426","387731","0.0-19.0-0.4-1.33","n6m9dx069t","","n6m9dx069t","""2024-11-13T04:21:43.602Z""","1899","materials/imgs/D24.png","arrowright","","[""materials/imgs/D55.png"",""materials/imgs/D95.png""]","false","random","","",""
"","","","","","html-keyboard-response","427","388233","0.0-19.0-0.4-0.34","n6m9dx069t","","n6m9dx069t","""2024-11-13T04:21:43.602Z""","null","+","null","","","","","","",""
"","","","","","image-keyboard-response","428","389085","0.0-19.0-0.4-1.34","n6m9dx069t","","n6m9dx069t","""2024-11-13T04:21:43.602Z""","850","materials/imgs/D77.png","arrowright","","[""materials/imgs/D47.png"",""materials/imgs/D56.png""]","false","random","","",""
"","","","","","html-keyboard-response","429","389587","0.0-19.0-1.4-0.4","n6m9dx069t","","n6m9dx069t","""2024-11-13T04:21:43.602Z""","null","+","null","","","","","","",""
"","","","","","image-keyboard-response","430","390233","0.0-19.0-1.4-1.4","n6m9dx069t","","n6m9dx069t","""2024-11-13T04:21:43.602Z""","644","materials/imgs/D18.png","arrowright","","[""materials/imgs/D8.png"",""materials/imgs/D18.png""]","","check","materials/imgs/D18.png","1","true"
"","","","","","html-keyboard-response","431","390735","0.0-19.0-2.4-0.8","n6m9dx069t","","n6m9dx069t","""2024-11-13T04:21:43.602Z""","null","+","null","","","","","","",""
"","","","","","image-keyboard-response","432","391922","0.0-19.0-2.4-1.8","n6m9dx069t","","n6m9dx069t","""2024-11-13T04:21:43.602Z""","1187","materials/imgs/D48.png","arrowleft","","[""materials/imgs/D4.png"",""materials/imgs/D37.png""]","false","validation","","",""
"","","","","","html-keyboard-response","433","392424","0.0-19.0-2.4-0.9","n6m9dx069t","","n6m9dx069t","""2024-11-13T04:21:43.602Z""","null","+","null","","","","","","",""
"","","","","","image-keyboard-response","434","394121","0.0-19.0-2.4-1.9","n6m9dx069t","","n6m9dx069t","""2024-11-13T04:21:43.602Z""","1695","materials/imgs/D18.png","arrowright","","[""materials/imgs/D32.png"",""materials/imgs/D57.png""]","false","validation","","",""
