"success","timeout","failed_images","failed_audio","failed_video","trial_type","trial_index","time_elapsed","internal_node_id","subject_id","sona_id","subjectID","dateInfo","rt","stimulus","response","question_order","choices","speedy","sampleAlg","selected_image","selected_index","correct"
"true","false","[]","[]","[]","preload","0","895","0.0-0.0","nap2qudnru","","nap2qudnru","""2024-11-13T01:40:38.192Z""","","","","","","","","","",""
"true","","","","","fullscreen","1","3184","0.0-1.0","nap2qudnru","","nap2qudnru","""2024-11-13T01:40:38.192Z""","","","","","","","","","",""
"","","","","","html-keyboard-response","2","3196","0.0-2.0","nap2qudnru","","nap2qudnru","""2024-11-13T01:40:38.192Z""","null","","null","","","","","","",""
"","","","","","html-button-response","3","6319","0.0-3.0","nap2qudnru","","nap2qudnru","""2024-11-13T01:40:38.192Z""","3122","<div style='text-align:center; font-size:20px; line-height:25px; width: 1200px;'>
                Welcome to our experiment! <br>
                <br>At the bottom of this screen, you will see a button that says 'Begin Experiment.
                <br>Please only click that button when you are ready to complete the 25 minute experiment in one sitting. <br>
                <br> Once you click that button, it will not be possible to restart the experiment. <br><br>","0","","","","","","",""
"true","","","","","fullscreen","4","8281","0.0-4.0","nap2qudnru","","nap2qudnru","""2024-11-13T01:40:38.192Z""","","","","","","","","","",""
"","","","","","survey-multi-select","5","69943","0.0-5.0","nap2qudnru","","nap2qudnru","""2024-11-13T01:40:38.192Z""","61659","","{""Consent"":[""<strong>I consent</strong>""]}","[0]","","","","","",""
"","","","","","html-button-response","6","71663","0.0-6.0","nap2qudnru","","nap2qudnru","""2024-11-13T01:40:38.192Z""","1719","Welcome! <p> This experiment involves two parts: demographic information, followed by the experimental task.<p> It will take about 25 minutes to complete both parts.","0","","","","","","",""
"","","","","","survey-text","7","81525","0.0-7.0","nap2qudnru","","nap2qudnru","""2024-11-13T01:40:38.192Z""","9861","","{""Age"":""19"",""Gender"":""Female"",""Race/ethnicity"":""Chinese""}","","","","","","",""
"","","","","","html-button-response","8","105905","0.0-8.0","nap2qudnru","","nap2qudnru","""2024-11-13T01:40:38.192Z""","24379","<div style='text-align: center;'>
      <p>In each trial of this task, you will see three texture images: one target item on top, and two choices beneath the target item.</p>
      <p><strong>Please select the item that is most like the target item.</strong></p>
      <p>To select the option on the <strong>LEFT</strong>, press the <strong>LEFT ARROW</strong> key. 
      To select the option on the <strong>RIGHT</strong>, press the <strong>RIGHT ARROW</strong> key.</p>
                  <!-- Target Image at the Top -->
      <div style='margin: 20px;'>
        <img src='materials/imgs/instruction_images/InstructionImg1D78.png' alt='Target Image' style='width:200px; height:auto;' />
        <p><em>Target Image</em></p>
      </div>

      <!-- Two Choice Images Below -->
      <div style='display: flex; justify-content: center;'>
        <div style='margin-right: 50px;'>
          <img src='materials/imgs/instruction_images/InstructionImg2D34.png' alt='Choice Image 1' style='width:150px; height:auto;' />
          <p><em><strong>LEFT ARROW</strong></em></p>
        </div>
        <div style='margin-left: 50px;'>
          <img src='materials/imgs/instruction_images/InstructionImg3D80.png' alt='Choice Image 2' style='width:150px; height:auto;' />
          <p><em><strong>RIGHT ARROW</strong></em></p>
        </div>
      </div>
    </div>

      <p>When you are ready to proceed, please click 'Continue' to begin practice.</p>","0","","","","","","",""
"","","","","","html-keyboard-response","9","108408","0.0-9.0","nap2qudnru","","nap2qudnru","""2024-11-13T01:40:38.192Z""","null","+","null","","","","","","",""
"","","","","","html-keyboard-response","10","108909","0.0-10.0-0.0-0.0","nap2qudnru","","nap2qudnru","""2024-11-13T01:40:38.192Z""","null","+","null","","","","","","",""
"","","","","","image-keyboard-response","11","110697","0.0-10.0-0.0-1.0","nap2qudnru","","nap2qudnru","""2024-11-13T01:40:38.192Z""","1784","materials/imgs/D1.png","arrowright","","[""materials/imgs/D78.png"",""materials/imgs/D47.png""]","false","random","","",""
"","","","","","html-keyboard-response","12","111198","0.0-10.0-0.0-0.1","nap2qudnru","","nap2qudnru","""2024-11-13T01:40:38.192Z""","null","+","null","","","","","","",""
"","","","","","image-keyboard-response","13","112623","0.0-10.0-0.0-1.1","nap2qudnru","","nap2qudnru","""2024-11-13T01:40:38.192Z""","1425","materials/imgs/D49.png","arrowleft","","[""materials/imgs/D53.png"",""materials/imgs/D25.png""]","false","random","","",""
"","","","","","html-keyboard-response","14","113124","0.0-10.0-0.0-0.2","nap2qudnru","","nap2qudnru","""2024-11-13T01:40:38.192Z""","null","+","null","","","","","","",""
"","","","","","image-keyboard-response","15","115462","0.0-10.0-0.0-1.2","nap2qudnru","","nap2qudnru","""2024-11-13T01:40:38.192Z""","2336","materials/imgs/D17.png","arrowleft","","[""materials/imgs/D20.png"",""materials/imgs/D111.png""]","false","random","","",""
"","","","","","html-keyboard-response","16","115962","0.0-10.0-0.0-0.3","nap2qudnru","","nap2qudnru","""2024-11-13T01:40:38.192Z""","null","+","null","","","","","","",""
"","","","","","image-keyboard-response","17","118038","0.0-10.0-0.0-1.3","nap2qudnru","","nap2qudnru","""2024-11-13T01:40:38.192Z""","2074","materials/imgs/D14.png","arrowleft","","[""materials/imgs/D32.png"",""materials/imgs/D51.png""]","false","random","","",""
"","","","","","html-keyboard-response","18","118539","0.0-10.0-0.0-0.4","nap2qudnru","","nap2qudnru","""2024-11-13T01:40:38.192Z""","null","+","null","","","","","","",""
"","","","","","image-keyboard-response","19","119869","0.0-10.0-0.0-1.4","nap2qudnru","","nap2qudnru","""2024-11-13T01:40:38.192Z""","1328","materials/imgs/D20.png","arrowleft","","[""materials/imgs/D77.png"",""materials/imgs/D37.png""]","false","random","","",""
"","","","","","html-keyboard-response","20","120370","0.0-10.0-0.0-0.5","nap2qudnru","","nap2qudnru","""2024-11-13T01:40:38.192Z""","null","+","null","","","","","","",""
"","","","","","image-keyboard-response","21","122543","0.0-10.0-0.0-1.5","nap2qudnru","","nap2qudnru","""2024-11-13T01:40:38.192Z""","2171","materials/imgs/D81.png","arrowright","","[""materials/imgs/D106.png"",""materials/imgs/D6.png""]","false","random","","",""
"","","","","","html-keyboard-response","22","123045","0.0-10.0-0.0-0.6","nap2qudnru","","nap2qudnru","""2024-11-13T01:40:38.192Z""","null","+","null","","","","","","",""
"","","","","","image-keyboard-response","23","124834","0.0-10.0-0.0-1.6","nap2qudnru","","nap2qudnru","""2024-11-13T01:40:38.192Z""","1788","materials/imgs/D52.png","arrowright","","[""materials/imgs/D24.png"",""materials/imgs/D84.png""]","false","random","","",""
"","","","","","html-keyboard-response","24","125336","0.0-10.0-0.0-0.7","nap2qudnru","","nap2qudnru","""2024-11-13T01:40:38.192Z""","null","+","null","","","","","","",""
"","","","","","image-keyboard-response","25","127773","0.0-10.0-0.0-1.7","nap2qudnru","","nap2qudnru","""2024-11-13T01:40:38.192Z""","2436","materials/imgs/D34.png","arrowright","","[""materials/imgs/D74.png"",""materials/imgs/D51.png""]","false","random","","",""
"","","","","","html-keyboard-response","26","128274","0.0-10.0-0.0-0.8","nap2qudnru","","nap2qudnru","""2024-11-13T01:40:38.192Z""","null","+","null","","","","","","",""
"","","","","","image-keyboard-response","27","129349","0.0-10.0-0.0-1.8","nap2qudnru","","nap2qudnru","""2024-11-13T01:40:38.192Z""","1073","materials/imgs/D78.png","arrowright","","[""materials/imgs/D8.png"",""materials/imgs/D14.png""]","false","random","","",""
"","","","","","html-keyboard-response","28","129852","0.0-10.0-0.0-0.9","nap2qudnru","","nap2qudnru","""2024-11-13T01:40:38.192Z""","null","+","null","","","","","","",""
"","","","","","image-keyboard-response","29","130769","0.0-10.0-0.0-1.9","nap2qudnru","","nap2qudnru","""2024-11-13T01:40:38.192Z""","916","materials/imgs/D111.png","arrowleft","","[""materials/imgs/D66.png"",""materials/imgs/D16.png""]","false","random","","",""
"","","","","","html-button-response","30","136017","0.0-11.0","nap2qudnru","","nap2qudnru","""2024-11-13T01:40:38.192Z""","5247","<p>Great job!</p>
      <p>You are now ready to begin the experiment.</p>
      <p>There will be around 200 trials. You will have opportunities to take breaks at three stages of the trials.</p>
      <p>When you are ready to begin please click 'Continue'.</p>","0","","","","","","",""
"","","","","","html-keyboard-response","31","138520","0.0-12.0","nap2qudnru","","nap2qudnru","""2024-11-13T01:40:38.192Z""","null","+","null","","","","","","",""
"","","","","","html-keyboard-response","32","139022","0.0-13.0-0.0-0.0","nap2qudnru","","nap2qudnru","""2024-11-13T01:40:38.192Z""","null","+","null","","","","","","",""
"","","","","","image-keyboard-response","33","140673","0.0-13.0-0.0-1.0","nap2qudnru","","nap2qudnru","""2024-11-13T01:40:38.192Z""","1649","materials/imgs/D14.png","arrowright","","[""materials/imgs/D104.png"",""materials/imgs/D6.png""]","false","random","","",""
"","","","","","html-keyboard-response","34","141174","0.0-13.0-0.0-0.1","nap2qudnru","","nap2qudnru","""2024-11-13T01:40:38.192Z""","null","+","null","","","","","","",""
"","","","","","image-keyboard-response","35","143628","0.0-13.0-0.0-1.1","nap2qudnru","","nap2qudnru","""2024-11-13T01:40:38.192Z""","2453","materials/imgs/D102.png","arrowright","","[""materials/imgs/D57.png"",""materials/imgs/D19.png""]","false","random","","",""
"","","","","","html-keyboard-response","36","144130","0.0-13.0-0.0-0.2","nap2qudnru","","nap2qudnru","""2024-11-13T01:40:38.192Z""","null","+","null","","","","","","",""
"","","","","","image-keyboard-response","37","145041","0.0-13.0-0.0-1.2","nap2qudnru","","nap2qudnru","""2024-11-13T01:40:38.192Z""","910","materials/imgs/D26.png","arrowright","","[""materials/imgs/D111.png"",""materials/imgs/D95.png""]","false","random","","",""
"","","","","","html-keyboard-response","38","145542","0.0-13.0-0.0-0.3","nap2qudnru","","nap2qudnru","""2024-11-13T01:40:38.192Z""","null","+","null","","","","","","",""
"","","","","","image-keyboard-response","39","147513","0.0-13.0-0.0-1.3","nap2qudnru","","nap2qudnru","""2024-11-13T01:40:38.192Z""","1970","materials/imgs/D102.png","arrowleft","","[""materials/imgs/D18.png"",""materials/imgs/D49.png""]","false","random","","",""
"","","","","","html-keyboard-response","40","148014","0.0-13.0-0.0-0.4","nap2qudnru","","nap2qudnru","""2024-11-13T01:40:38.192Z""","null","+","null","","","","","","",""
"","","","","","image-keyboard-response","41","149955","0.0-13.0-0.0-1.4","nap2qudnru","","nap2qudnru","""2024-11-13T01:40:38.192Z""","1940","materials/imgs/D104.png","arrowright","","[""materials/imgs/D37.png"",""materials/imgs/D18.png""]","false","random","","",""
"","","","","","html-keyboard-response","42","150456","0.0-13.0-0.0-0.5","nap2qudnru","","nap2qudnru","""2024-11-13T01:40:38.192Z""","null","+","null","","","","","","",""
"","","","","","image-keyboard-response","43","151949","0.0-13.0-0.0-1.5","nap2qudnru","","nap2qudnru","""2024-11-13T01:40:38.192Z""","1492","materials/imgs/D17.png","arrowright","","[""materials/imgs/D21.png"",""materials/imgs/D85.png""]","false","random","","",""
"","","","","","html-keyboard-response","44","152450","0.0-13.0-0.0-0.6","nap2qudnru","","nap2qudnru","""2024-11-13T01:40:38.192Z""","null","+","null","","","","","","",""
"","","","","","image-keyboard-response","45","153991","0.0-13.0-0.0-1.6","nap2qudnru","","nap2qudnru","""2024-11-13T01:40:38.192Z""","1539","materials/imgs/D29.png","arrowright","","[""materials/imgs/D25.png"",""materials/imgs/D94.png""]","false","random","","",""
"","","","","","html-keyboard-response","46","154492","0.0-13.0-1.0-0.0","nap2qudnru","","nap2qudnru","""2024-11-13T01:40:38.192Z""","null","+","null","","","","","","",""
"","","","","","image-keyboard-response","47","155215","0.0-13.0-1.0-1.0","nap2qudnru","","nap2qudnru","""2024-11-13T01:40:38.192Z""","722","materials/imgs/D53.png","arrowright","","[""materials/imgs/D64.png"",""materials/imgs/D53.png""]","","check","materials/imgs/D53.png","1","true"
"","","","","","html-keyboard-response","48","155716","0.0-13.0-2.0-0.0","nap2qudnru","","nap2qudnru","""2024-11-13T01:40:38.192Z""","null","+","null","","","","","","",""
"","","","","","image-keyboard-response","49","157633","0.0-13.0-2.0-1.0","nap2qudnru","","nap2qudnru","""2024-11-13T01:40:38.192Z""","1916","materials/imgs/D103.png","arrowright","","[""materials/imgs/D76.png"",""materials/imgs/D106.png""]","false","validation","","",""
"","","","","","html-keyboard-response","50","158134","0.0-13.0-2.0-0.1","nap2qudnru","","nap2qudnru","""2024-11-13T01:40:38.192Z""","null","+","null","","","","","","",""
"","","","","","image-keyboard-response","51","160491","0.0-13.0-2.0-1.1","nap2qudnru","","nap2qudnru","""2024-11-13T01:40:38.192Z""","2355","materials/imgs/D84.png","arrowright","","[""materials/imgs/D106.png"",""materials/imgs/D37.png""]","false","validation","","",""
"","","","","","html-keyboard-response","52","160993","0.0-13.0-0.1-0.7","nap2qudnru","","nap2qudnru","""2024-11-13T01:40:38.192Z""","null","+","null","","","","","","",""
"","","","","","image-keyboard-response","53","162263","0.0-13.0-0.1-1.7","nap2qudnru","","nap2qudnru","""2024-11-13T01:40:38.192Z""","1268","materials/imgs/D68.png","arrowleft","","[""materials/imgs/D16.png"",""materials/imgs/D37.png""]","false","random","","",""
"","","","","","html-keyboard-response","54","162764","0.0-13.0-0.1-0.8","nap2qudnru","","nap2qudnru","""2024-11-13T01:40:38.192Z""","null","+","null","","","","","","",""
"","","","","","image-keyboard-response","55","163771","0.0-13.0-0.1-1.8","nap2qudnru","","nap2qudnru","""2024-11-13T01:40:38.192Z""","1006","materials/imgs/D77.png","arrowright","","[""materials/imgs/D26.png"",""materials/imgs/D32.png""]","false","random","","",""
"","","","","","html-keyboard-response","56","164272","0.0-13.0-0.1-0.9","nap2qudnru","","nap2qudnru","""2024-11-13T01:40:38.192Z""","null","+","null","","","","","","",""
"","","","","","image-keyboard-response","57","165963","0.0-13.0-0.1-1.9","nap2qudnru","","nap2qudnru","""2024-11-13T01:40:38.192Z""","1691","materials/imgs/D92.png","arrowleft","","[""materials/imgs/D19.png"",""materials/imgs/D80.png""]","false","random","","",""
"","","","","","html-keyboard-response","58","166464","0.0-13.0-0.1-0.10","nap2qudnru","","nap2qudnru","""2024-11-13T01:40:38.192Z""","null","+","null","","","","","","",""
"","","","","","image-keyboard-response","59","167877","0.0-13.0-0.1-1.10","nap2qudnru","","nap2qudnru","""2024-11-13T01:40:38.192Z""","1412","materials/imgs/D66.png","arrowright","","[""materials/imgs/D18.png"",""materials/imgs/D74.png""]","false","random","","",""
"","","","","","html-keyboard-response","60","168378","0.0-13.0-0.1-0.11","nap2qudnru","","nap2qudnru","""2024-11-13T01:40:38.192Z""","null","+","null","","","","","","",""
"","","","","","image-keyboard-response","61","169295","0.0-13.0-0.1-1.11","nap2qudnru","","nap2qudnru","""2024-11-13T01:40:38.192Z""","916","materials/imgs/D87.png","arrowright","","[""materials/imgs/D94.png"",""materials/imgs/D79.png""]","false","random","","",""
"","","","","","html-keyboard-response","62","169797","0.0-13.0-0.1-0.12","nap2qudnru","","nap2qudnru","""2024-11-13T01:40:38.192Z""","null","+","null","","","","","","",""
"","","","","","image-keyboard-response","63","170708","0.0-13.0-0.1-1.12","nap2qudnru","","nap2qudnru","""2024-11-13T01:40:38.192Z""","910","materials/imgs/D19.png","arrowleft","","[""materials/imgs/D87.png"",""materials/imgs/D48.png""]","false","random","","",""
"","","","","","html-keyboard-response","64","171210","0.0-13.0-0.1-0.13","nap2qudnru","","nap2qudnru","""2024-11-13T01:40:38.192Z""","null","+","null","","","","","","",""
"","","","","","image-keyboard-response","65","172567","0.0-13.0-0.1-1.13","nap2qudnru","","nap2qudnru","""2024-11-13T01:40:38.192Z""","1357","materials/imgs/D4.png","arrowright","","[""materials/imgs/D96.png"",""materials/imgs/D6.png""]","false","random","","",""
"","","","","","html-keyboard-response","66","173068","0.0-13.0-1.1-0.1","nap2qudnru","","nap2qudnru","""2024-11-13T01:40:38.192Z""","null","+","null","","","","","","",""
"","","","","","image-keyboard-response","67","173920","0.0-13.0-1.1-1.1","nap2qudnru","","nap2qudnru","""2024-11-13T01:40:38.192Z""","850","materials/imgs/D18.png","arrowright","","[""materials/imgs/D8.png"",""materials/imgs/D18.png""]","","check","materials/imgs/D18.png","1","true"
"","","","","","html-keyboard-response","68","174421","0.0-13.0-2.1-0.2","nap2qudnru","","nap2qudnru","""2024-11-13T01:40:38.192Z""","null","+","null","","","","","","",""
"","","","","","image-keyboard-response","69","175385","0.0-13.0-2.1-1.2","nap2qudnru","","nap2qudnru","""2024-11-13T01:40:38.192Z""","964","materials/imgs/D24.png","arrowleft","","[""materials/imgs/D36.png"",""materials/imgs/D8.png""]","false","validation","","",""
"","","","","","html-keyboard-response","70","175887","0.0-13.0-2.1-0.3","nap2qudnru","","nap2qudnru","""2024-11-13T01:40:38.192Z""","null","+","null","","","","","","",""
"","","","","","image-keyboard-response","71","178599","0.0-13.0-2.1-1.3","nap2qudnru","","nap2qudnru","""2024-11-13T01:40:38.192Z""","2711","materials/imgs/D26.png","arrowleft","","[""materials/imgs/D36.png"",""materials/imgs/D92.png""]","false","validation","","",""
"","","","","","html-keyboard-response","72","179101","0.0-13.0-0.2-0.14","nap2qudnru","","nap2qudnru","""2024-11-13T01:40:38.192Z""","null","+","null","","","","","","",""
"","","","","","image-keyboard-response","73","180726","0.0-13.0-0.2-1.14","nap2qudnru","","nap2qudnru","""2024-11-13T01:40:38.192Z""","1624","materials/imgs/D84.png","arrowright","","[""materials/imgs/D102.png"",""materials/imgs/D64.png""]","false","random","","",""
"","","","","","html-keyboard-response","74","181228","0.0-13.0-0.2-0.15","nap2qudnru","","nap2qudnru","""2024-11-13T01:40:38.192Z""","null","+","null","","","","","","",""
"","","","","","image-keyboard-response","75","182453","0.0-13.0-0.2-1.15","nap2qudnru","","nap2qudnru","""2024-11-13T01:40:38.192Z""","1224","materials/imgs/D81.png","arrowright","","[""materials/imgs/D104.png"",""materials/imgs/D49.png""]","false","random","","",""
"","","","","","html-keyboard-response","76","182954","0.0-13.0-0.2-0.16","nap2qudnru","","nap2qudnru","""2024-11-13T01:40:38.192Z""","null","+","null","","","","","","",""
"","","","","","image-keyboard-response","77","186268","0.0-13.0-0.2-1.16","nap2qudnru","","nap2qudnru","""2024-11-13T01:40:38.192Z""","3312","materials/imgs/D24.png","arrowleft","","[""materials/imgs/D1.png"",""materials/imgs/D51.png""]","false","random","","",""
"","","","","","html-keyboard-response","78","186769","0.0-13.0-0.2-0.17","nap2qudnru","","nap2qudnru","""2024-11-13T01:40:38.192Z""","null","+","null","","","","","","",""
"","","","","","image-keyboard-response","79","187728","0.0-13.0-0.2-1.17","nap2qudnru","","nap2qudnru","""2024-11-13T01:40:38.192Z""","958","materials/imgs/D6.png","arrowright","","[""materials/imgs/D96.png"",""materials/imgs/D103.png""]","false","random","","",""
"","","","","","html-keyboard-response","80","188229","0.0-13.0-0.2-0.18","nap2qudnru","","nap2qudnru","""2024-11-13T01:40:38.192Z""","null","+","null","","","","","","",""
"","","","","","image-keyboard-response","81","188870","0.0-13.0-0.2-1.18","nap2qudnru","","nap2qudnru","""2024-11-13T01:40:38.192Z""","640","materials/imgs/D79.png","arrowright","","[""materials/imgs/D56.png"",""materials/imgs/D16.png""]","false","random","","",""
"","","","","","html-keyboard-response","82","189372","0.0-13.0-0.2-0.19","nap2qudnru","","nap2qudnru","""2024-11-13T01:40:38.192Z""","null","+","null","","","","","","",""
"","","","","","image-keyboard-response","83","192175","0.0-13.0-0.2-1.19","nap2qudnru","","nap2qudnru","""2024-11-13T01:40:38.192Z""","2801","materials/imgs/D22.png","arrowright","","[""materials/imgs/D1.png"",""materials/imgs/D29.png""]","false","random","","",""
"","","","","","html-keyboard-response","84","192676","0.0-13.0-0.2-0.20","nap2qudnru","","nap2qudnru","""2024-11-13T01:40:38.192Z""","null","+","null","","","","","","",""
"","","","","","image-keyboard-response","85","193659","0.0-13.0-0.2-1.20","nap2qudnru","","nap2qudnru","""2024-11-13T01:40:38.192Z""","982","materials/imgs/D53.png","arrowleft","","[""materials/imgs/D49.png"",""materials/imgs/D51.png""]","false","random","","",""
"","","","","","html-keyboard-response","86","194160","0.0-13.0-1.2-0.2","nap2qudnru","","nap2qudnru","""2024-11-13T01:40:38.192Z""","null","+","null","","","","","","",""
"","","","","","image-keyboard-response","87","194850","0.0-13.0-1.2-1.2","nap2qudnru","","nap2qudnru","""2024-11-13T01:40:38.192Z""","689","materials/imgs/D76.png","arrowleft","","[""materials/imgs/D76.png"",""materials/imgs/D78.png""]","","check","materials/imgs/D76.png","0","true"
"","","","","","html-keyboard-response","88","195352","0.0-13.0-2.2-0.4","nap2qudnru","","nap2qudnru","""2024-11-13T01:40:38.192Z""","null","+","null","","","","","","",""
"","","","","","image-keyboard-response","89","196918","0.0-13.0-2.2-1.4","nap2qudnru","","nap2qudnru","""2024-11-13T01:40:38.192Z""","1565","materials/imgs/D49.png","arrowright","","[""materials/imgs/D8.png"",""materials/imgs/D101.png""]","false","validation","","",""
"","","","","","html-keyboard-response","90","197420","0.0-13.0-2.2-0.5","nap2qudnru","","nap2qudnru","""2024-11-13T01:40:38.192Z""","null","+","null","","","","","","",""
"","","","","","image-keyboard-response","91","199705","0.0-13.0-2.2-1.5","nap2qudnru","","nap2qudnru","""2024-11-13T01:40:38.192Z""","2284","materials/imgs/D52.png","arrowright","","[""materials/imgs/D9.png"",""materials/imgs/D19.png""]","false","validation","","",""
"","","","","","html-keyboard-response","92","200206","0.0-13.0-0.3-0.21","nap2qudnru","","nap2qudnru","""2024-11-13T01:40:38.192Z""","null","+","null","","","","","","",""
"","","","","","image-keyboard-response","93","202047","0.0-13.0-0.3-1.21","nap2qudnru","","nap2qudnru","""2024-11-13T01:40:38.192Z""","1840","materials/imgs/D18.png","arrowleft","","[""materials/imgs/D82.png"",""materials/imgs/D79.png""]","false","random","","",""
"","","","","","html-keyboard-response","94","202548","0.0-13.0-0.3-0.22","nap2qudnru","","nap2qudnru","""2024-11-13T01:40:38.192Z""","null","+","null","","","","","","",""
"","","","","","image-keyboard-response","95","204031","0.0-13.0-0.3-1.22","nap2qudnru","","nap2qudnru","""2024-11-13T01:40:38.192Z""","1482","materials/imgs/D19.png","arrowleft","","[""materials/imgs/D22.png"",""materials/imgs/D79.png""]","false","random","","",""
"","","","","","html-keyboard-response","96","204533","0.0-13.0-0.3-0.23","nap2qudnru","","nap2qudnru","""2024-11-13T01:40:38.192Z""","null","+","null","","","","","","",""
"","","","","","image-keyboard-response","97","205791","0.0-13.0-0.3-1.23","nap2qudnru","","nap2qudnru","""2024-11-13T01:40:38.192Z""","1257","materials/imgs/D19.png","arrowleft","","[""materials/imgs/D82.png"",""materials/imgs/D66.png""]","false","random","","",""
"","","","","","html-keyboard-response","98","206292","0.0-13.0-0.3-0.24","nap2qudnru","","nap2qudnru","""2024-11-13T01:40:38.192Z""","null","+","null","","","","","","",""
"","","","","","image-keyboard-response","99","208556","0.0-13.0-0.3-1.24","nap2qudnru","","nap2qudnru","""2024-11-13T01:40:38.192Z""","2263","materials/imgs/D46.png","arrowleft","","[""materials/imgs/D95.png"",""materials/imgs/D103.png""]","false","random","","",""
"","","","","","html-keyboard-response","100","209057","0.0-13.0-0.3-0.25","nap2qudnru","","nap2qudnru","""2024-11-13T01:40:38.192Z""","null","+","null","","","","","","",""
"","","","","","image-keyboard-response","101","209988","0.0-13.0-0.3-1.25","nap2qudnru","","nap2qudnru","""2024-11-13T01:40:38.192Z""","930","materials/imgs/D46.png","arrowright","","[""materials/imgs/D6.png"",""materials/imgs/D74.png""]","false","random","","",""
"","","","","","html-keyboard-response","102","210490","0.0-13.0-0.3-0.26","nap2qudnru","","nap2qudnru","""2024-11-13T01:40:38.192Z""","null","+","null","","","","","","",""
"","","","","","image-keyboard-response","103","211766","0.0-13.0-0.3-1.26","nap2qudnru","","nap2qudnru","""2024-11-13T01:40:38.192Z""","1276","materials/imgs/D111.png","arrowright","","[""materials/imgs/D76.png"",""materials/imgs/D103.png""]","false","random","","",""
"","","","","","html-keyboard-response","104","212267","0.0-13.0-0.3-0.27","nap2qudnru","","nap2qudnru","""2024-11-13T01:40:38.192Z""","null","+","null","","","","","","",""
"","","","","","image-keyboard-response","105","213651","0.0-13.0-0.3-1.27","nap2qudnru","","nap2qudnru","""2024-11-13T01:40:38.192Z""","1383","materials/imgs/D64.png","arrowright","","[""materials/imgs/D80.png"",""materials/imgs/D32.png""]","false","random","","",""
"","","","","","html-keyboard-response","106","214153","0.0-13.0-1.3-0.3","nap2qudnru","","nap2qudnru","""2024-11-13T01:40:38.192Z""","null","+","null","","","","","","",""
"","","","","","image-keyboard-response","107","214684","0.0-13.0-1.3-1.3","nap2qudnru","","nap2qudnru","""2024-11-13T01:40:38.192Z""","530","materials/imgs/D53.png","arrowright","","[""materials/imgs/D64.png"",""materials/imgs/D53.png""]","","check","materials/imgs/D53.png","1","true"
"","","","","","html-keyboard-response","108","215186","0.0-13.0-2.3-0.6","nap2qudnru","","nap2qudnru","""2024-11-13T01:40:38.192Z""","null","+","null","","","","","","",""
"","","","","","image-keyboard-response","109","218023","0.0-13.0-2.3-1.6","nap2qudnru","","nap2qudnru","""2024-11-13T01:40:38.192Z""","2836","materials/imgs/D46.png","arrowleft","","[""materials/imgs/D92.png"",""materials/imgs/D77.png""]","false","validation","","",""
"","","","","","html-keyboard-response","110","218524","0.0-13.0-2.3-0.7","nap2qudnru","","nap2qudnru","""2024-11-13T01:40:38.192Z""","null","+","null","","","","","","",""
"","","","","","image-keyboard-response","111","219601","0.0-13.0-2.3-1.7","nap2qudnru","","nap2qudnru","""2024-11-13T01:40:38.192Z""","1076","materials/imgs/D79.png","arrowleft","","[""materials/imgs/D51.png"",""materials/imgs/D64.png""]","false","validation","","",""
"","","","","","html-keyboard-response","112","220103","0.0-13.0-0.4-0.28","nap2qudnru","","nap2qudnru","""2024-11-13T01:40:38.192Z""","null","+","null","","","","","","",""
"","","","","","image-keyboard-response","113","220716","0.0-13.0-0.4-1.28","nap2qudnru","","nap2qudnru","""2024-11-13T01:40:38.192Z""","612","materials/imgs/D9.png","arrowright","","[""materials/imgs/D48.png"",""materials/imgs/D32.png""]","false","random","","",""
"","","","","","html-keyboard-response","114","221218","0.0-13.0-0.4-0.29","nap2qudnru","","nap2qudnru","""2024-11-13T01:40:38.192Z""","null","+","null","","","","","","",""
"","","","","","image-keyboard-response","115","222709","0.0-13.0-0.4-1.29","nap2qudnru","","nap2qudnru","""2024-11-13T01:40:38.192Z""","1490","materials/imgs/D46.png","arrowleft","","[""materials/imgs/D95.png"",""materials/imgs/D82.png""]","false","random","","",""
"","","","","","html-keyboard-response","116","223210","0.0-13.0-0.4-0.30","nap2qudnru","","nap2qudnru","""2024-11-13T01:40:38.192Z""","null","+","null","","","","","","",""
"","","","","","image-keyboard-response","117","224509","0.0-13.0-0.4-1.30","nap2qudnru","","nap2qudnru","""2024-11-13T01:40:38.192Z""","1297","materials/imgs/D48.png","arrowleft","","[""materials/imgs/D3.png"",""materials/imgs/D106.png""]","false","random","","",""
"","","","","","html-keyboard-response","118","225010","0.0-13.0-0.4-0.31","nap2qudnru","","nap2qudnru","""2024-11-13T01:40:38.192Z""","null","+","null","","","","","","",""
"","","","","","image-keyboard-response","119","227287","0.0-13.0-0.4-1.31","nap2qudnru","","nap2qudnru","""2024-11-13T01:40:38.192Z""","2276","materials/imgs/D14.png","arrowright","","[""materials/imgs/D103.png"",""materials/imgs/D79.png""]","false","random","","",""
"","","","","","html-keyboard-response","120","227788","0.0-13.0-0.4-0.32","nap2qudnru","","nap2qudnru","""2024-11-13T01:40:38.192Z""","null","+","null","","","","","","",""
"","","","","","image-keyboard-response","121","228825","0.0-13.0-0.4-1.32","nap2qudnru","","nap2qudnru","""2024-11-13T01:40:38.192Z""","1036","materials/imgs/D48.png","arrowright","","[""materials/imgs/D34.png"",""materials/imgs/D46.png""]","false","random","","",""
"","","","","","html-keyboard-response","122","229326","0.0-13.0-0.4-0.33","nap2qudnru","","nap2qudnru","""2024-11-13T01:40:38.192Z""","null","+","null","","","","","","",""
"","","","","","image-keyboard-response","123","231364","0.0-13.0-0.4-1.33","nap2qudnru","","nap2qudnru","""2024-11-13T01:40:38.192Z""","2037","materials/imgs/D53.png","arrowleft","","[""materials/imgs/D1.png"",""materials/imgs/D37.png""]","false","random","","",""
"","","","","","html-keyboard-response","124","231866","0.0-13.0-0.4-0.34","nap2qudnru","","nap2qudnru","""2024-11-13T01:40:38.192Z""","null","+","null","","","","","","",""
"","","","","","image-keyboard-response","125","233298","0.0-13.0-0.4-1.34","nap2qudnru","","nap2qudnru","""2024-11-13T01:40:38.192Z""","1431","materials/imgs/D36.png","arrowright","","[""materials/imgs/D56.png"",""materials/imgs/D80.png""]","false","random","","",""
"","","","","","html-keyboard-response","126","233800","0.0-13.0-1.4-0.4","nap2qudnru","","nap2qudnru","""2024-11-13T01:40:38.192Z""","null","+","null","","","","","","",""
"","","","","","image-keyboard-response","127","234407","0.0-13.0-1.4-1.4","nap2qudnru","","nap2qudnru","""2024-11-13T01:40:38.192Z""","607","materials/imgs/D106.png","arrowleft","","[""materials/imgs/D106.png"",""materials/imgs/D101.png""]","","check","materials/imgs/D106.png","0","true"
"","","","","","html-keyboard-response","128","234909","0.0-13.0-2.4-0.8","nap2qudnru","","nap2qudnru","""2024-11-13T01:40:38.192Z""","null","+","null","","","","","","",""
"","","","","","image-keyboard-response","129","236602","0.0-13.0-2.4-1.8","nap2qudnru","","nap2qudnru","""2024-11-13T01:40:38.192Z""","1692","materials/imgs/D47.png","arrowleft","","[""materials/imgs/D1.png"",""materials/imgs/D52.png""]","false","validation","","",""
"","","","","","html-keyboard-response","130","237104","0.0-13.0-2.4-0.9","nap2qudnru","","nap2qudnru","""2024-11-13T01:40:38.192Z""","null","+","null","","","","","","",""
"","","","","","image-keyboard-response","131","238003","0.0-13.0-2.4-1.9","nap2qudnru","","nap2qudnru","""2024-11-13T01:40:38.192Z""","898","materials/imgs/D8.png","arrowleft","","[""materials/imgs/D101.png"",""materials/imgs/D52.png""]","false","validation","","",""
"","","","","","html-button-response","132","240407","0.0-14.0","nap2qudnru","","nap2qudnru","""2024-11-13T01:40:38.192Z""","2404","You have completed 25% of the trials. Please click 'Continue' when you are ready proceed.","0","","","","","","",""
"","","","","","html-keyboard-response","133","240908","0.0-15.0-0.0-0.0","nap2qudnru","","nap2qudnru","""2024-11-13T01:40:38.192Z""","null","+","null","","","","","","",""
"","","","","","image-keyboard-response","134","244197","0.0-15.0-0.0-1.0","nap2qudnru","","nap2qudnru","""2024-11-13T01:40:38.192Z""","3287","materials/imgs/D36.png","arrowright","","[""materials/imgs/D16.png"",""materials/imgs/D80.png""]","false","random","","",""
"","","","","","html-keyboard-response","135","244698","0.0-15.0-0.0-0.1","nap2qudnru","","nap2qudnru","""2024-11-13T01:40:38.192Z""","null","+","null","","","","","","",""
"","","","","","image-keyboard-response","136","245545","0.0-15.0-0.0-1.1","nap2qudnru","","nap2qudnru","""2024-11-13T01:40:38.192Z""","846","materials/imgs/D55.png","arrowright","","[""materials/imgs/D48.png"",""materials/imgs/D29.png""]","false","random","","",""
"","","","","","html-keyboard-response","137","246046","0.0-15.0-0.0-0.2","nap2qudnru","","nap2qudnru","""2024-11-13T01:40:38.192Z""","null","+","null","","","","","","",""
"","","","","","image-keyboard-response","138","250517","0.0-15.0-0.0-1.2","nap2qudnru","","nap2qudnru","""2024-11-13T01:40:38.192Z""","4464","materials/imgs/D103.png","arrowright","","[""materials/imgs/D25.png"",""materials/imgs/D83.png""]","false","random","","",""
"","","","","","html-keyboard-response","139","251018","0.0-15.0-0.0-0.3","nap2qudnru","","nap2qudnru","""2024-11-13T01:40:38.192Z""","null","+","null","","","","","","",""
"","","","","","image-keyboard-response","140","251715","0.0-15.0-0.0-1.3","nap2qudnru","","nap2qudnru","""2024-11-13T01:40:38.192Z""","696","materials/imgs/D68.png","arrowright","","[""materials/imgs/D49.png"",""materials/imgs/D29.png""]","false","random","","",""
"","","","","","html-keyboard-response","141","252216","0.0-15.0-0.0-0.4","nap2qudnru","","nap2qudnru","""2024-11-13T01:40:38.192Z""","null","+","null","","","","","","",""
"","","","","","image-keyboard-response","142","253000","0.0-15.0-0.0-1.4","nap2qudnru","","nap2qudnru","""2024-11-13T01:40:38.192Z""","783","materials/imgs/D22.png","arrowleft","","[""materials/imgs/D37.png"",""materials/imgs/D96.png""]","false","random","","",""
"","","","","","html-keyboard-response","143","253501","0.0-15.0-0.0-0.5","nap2qudnru","","nap2qudnru","""2024-11-13T01:40:38.192Z""","null","+","null","","","","","","",""
"","","","","","image-keyboard-response","144","254159","0.0-15.0-0.0-1.5","nap2qudnru","","nap2qudnru","""2024-11-13T01:40:38.192Z""","656","materials/imgs/D76.png","arrowright","","[""materials/imgs/D75.png"",""materials/imgs/D82.png""]","false","random","","",""
"","","","","","html-keyboard-response","145","254661","0.0-15.0-0.0-0.6","nap2qudnru","","nap2qudnru","""2024-11-13T01:40:38.192Z""","null","+","null","","","","","","",""
"","","","","","image-keyboard-response","146","255325","0.0-15.0-0.0-1.6","nap2qudnru","","nap2qudnru","""2024-11-13T01:40:38.192Z""","664","materials/imgs/D20.png","arrowleft","","[""materials/imgs/D83.png"",""materials/imgs/D19.png""]","false","random","","",""
"","","","","","html-keyboard-response","147","255826","0.0-15.0-1.0-0.0","nap2qudnru","","nap2qudnru","""2024-11-13T01:40:38.192Z""","null","+","null","","","","","","",""
"","","","","","image-keyboard-response","148","256340","0.0-15.0-1.0-1.0","nap2qudnru","","nap2qudnru","""2024-11-13T01:40:38.192Z""","513","materials/imgs/D106.png","arrowleft","","[""materials/imgs/D106.png"",""materials/imgs/D101.png""]","","check","materials/imgs/D106.png","0","true"
"","","","","","html-keyboard-response","149","256841","0.0-15.0-2.0-0.0","nap2qudnru","","nap2qudnru","""2024-11-13T01:40:38.192Z""","null","+","null","","","","","","",""
"","","","","","image-keyboard-response","150","257450","0.0-15.0-2.0-1.0","nap2qudnru","","nap2qudnru","""2024-11-13T01:40:38.192Z""","608","materials/imgs/D8.png","arrowleft","","[""materials/imgs/D101.png"",""materials/imgs/D52.png""]","false","validation","","",""
"","","","","","html-keyboard-response","151","257951","0.0-15.0-2.0-0.1","nap2qudnru","","nap2qudnru","""2024-11-13T01:40:38.192Z""","null","+","null","","","","","","",""
"","","","","","image-keyboard-response","152","258557","0.0-15.0-2.0-1.1","nap2qudnru","","nap2qudnru","""2024-11-13T01:40:38.192Z""","605","materials/imgs/D24.png","arrowleft","","[""materials/imgs/D36.png"",""materials/imgs/D8.png""]","false","validation","","",""
"","","","","","html-keyboard-response","153","259058","0.0-15.0-0.1-0.7","nap2qudnru","","nap2qudnru","""2024-11-13T01:40:38.192Z""","null","+","null","","","","","","",""
"","","","","","image-keyboard-response","154","259649","0.0-15.0-0.1-1.7","nap2qudnru","","nap2qudnru","""2024-11-13T01:40:38.192Z""","589","materials/imgs/D84.png","arrowleft","","[""materials/imgs/D29.png"",""materials/imgs/D34.png""]","false","random","","",""
"","","","","","html-keyboard-response","155","260150","0.0-15.0-0.1-0.8","nap2qudnru","","nap2qudnru","""2024-11-13T01:40:38.192Z""","null","+","null","","","","","","",""
"","","","","","image-keyboard-response","156","261062","0.0-15.0-0.1-1.8","nap2qudnru","","nap2qudnru","""2024-11-13T01:40:38.192Z""","910","materials/imgs/D17.png","arrowright","","[""materials/imgs/D6.png"",""materials/imgs/D16.png""]","false","random","","",""
"","","","","","html-keyboard-response","157","261563","0.0-15.0-0.1-0.9","nap2qudnru","","nap2qudnru","""2024-11-13T01:40:38.192Z""","null","+","null","","","","","","",""
"","","","","","image-keyboard-response","158","262232","0.0-15.0-0.1-1.9","nap2qudnru","","nap2qudnru","""2024-11-13T01:40:38.192Z""","668","materials/imgs/D29.png","arrowright","","[""materials/imgs/D77.png"",""materials/imgs/D84.png""]","false","random","","",""
"","","","","","html-keyboard-response","159","262734","0.0-15.0-0.1-0.10","nap2qudnru","","nap2qudnru","""2024-11-13T01:40:38.192Z""","null","+","null","","","","","","",""
"","","","","","image-keyboard-response","160","263945","0.0-15.0-0.1-1.10","nap2qudnru","","nap2qudnru","""2024-11-13T01:40:38.192Z""","1210","materials/imgs/D65.png","arrowleft","","[""materials/imgs/D85.png"",""materials/imgs/D6.png""]","false","random","","",""
"","","","","","html-keyboard-response","161","264446","0.0-15.0-0.1-0.11","nap2qudnru","","nap2qudnru","""2024-11-13T01:40:38.192Z""","null","+","null","","","","","","",""
"","","","","","image-keyboard-response","162","265311","0.0-15.0-0.1-1.11","nap2qudnru","","nap2qudnru","""2024-11-13T01:40:38.192Z""","865","materials/imgs/D85.png","arrowright","","[""materials/imgs/D20.png"",""materials/imgs/D57.png""]","false","random","","",""
"","","","","","html-keyboard-response","163","265813","0.0-15.0-0.1-0.12","nap2qudnru","","nap2qudnru","""2024-11-13T01:40:38.192Z""","null","+","null","","","","","","",""
"","","","","","image-keyboard-response","164","266979","0.0-15.0-0.1-1.12","nap2qudnru","","nap2qudnru","""2024-11-13T01:40:38.192Z""","1165","materials/imgs/D79.png","arrowleft","","[""materials/imgs/D95.png"",""materials/imgs/D56.png""]","false","random","","",""
"","","","","","html-keyboard-response","165","267480","0.0-15.0-0.1-0.13","nap2qudnru","","nap2qudnru","""2024-11-13T01:40:38.192Z""","null","+","null","","","","","","",""
"","","","","","image-keyboard-response","166","268681","0.0-15.0-0.1-1.13","nap2qudnru","","nap2qudnru","""2024-11-13T01:40:38.192Z""","1199","materials/imgs/D106.png","arrowleft","","[""materials/imgs/D80.png"",""materials/imgs/D9.png""]","false","random","","",""
"","","","","","html-keyboard-response","167","269182","0.0-15.0-1.1-0.1","nap2qudnru","","nap2qudnru","""2024-11-13T01:40:38.192Z""","null","+","null","","","","","","",""
"","","","","","image-keyboard-response","168","269766","0.0-15.0-1.1-1.1","nap2qudnru","","nap2qudnru","""2024-11-13T01:40:38.192Z""","583","materials/imgs/D76.png","arrowleft","","[""materials/imgs/D76.png"",""materials/imgs/D78.png""]","","check","materials/imgs/D76.png","0","true"
"","","","","","html-keyboard-response","169","270267","0.0-15.0-2.1-0.2","nap2qudnru","","nap2qudnru","""2024-11-13T01:40:38.192Z""","null","+","null","","","","","","",""
"","","","","","image-keyboard-response","170","271384","0.0-15.0-2.1-1.2","nap2qudnru","","nap2qudnru","""2024-11-13T01:40:38.192Z""","1117","materials/imgs/D77.png","arrowright","","[""materials/imgs/D102.png"",""materials/imgs/D65.png""]","false","validation","","",""
"","","","","","html-keyboard-response","171","271886","0.0-15.0-2.1-0.3","nap2qudnru","","nap2qudnru","""2024-11-13T01:40:38.192Z""","null","+","null","","","","","","",""
"","","","","","image-keyboard-response","172","272768","0.0-15.0-2.1-1.3","nap2qudnru","","nap2qudnru","""2024-11-13T01:40:38.192Z""","881","materials/imgs/D22.png","arrowleft","","[""materials/imgs/D4.png"",""materials/imgs/D25.png""]","false","validation","","",""
"","","","","","html-keyboard-response","173","273270","0.0-15.0-0.2-0.14","nap2qudnru","","nap2qudnru","""2024-11-13T01:40:38.192Z""","null","+","null","","","","","","",""
"","","","","","image-keyboard-response","174","274203","0.0-15.0-0.2-1.14","nap2qudnru","","nap2qudnru","""2024-11-13T01:40:38.192Z""","933","materials/imgs/D35.png","arrowleft","","[""materials/imgs/D52.png"",""materials/imgs/D82.png""]","false","random","","",""
"","","","","","html-keyboard-response","175","274704","0.0-15.0-0.2-0.15","nap2qudnru","","nap2qudnru","""2024-11-13T01:40:38.192Z""","null","+","null","","","","","","",""
"","","","","","image-keyboard-response","176","277865","0.0-15.0-0.2-1.15","nap2qudnru","","nap2qudnru","""2024-11-13T01:40:38.192Z""","3160","materials/imgs/D74.png","arrowleft","","[""materials/imgs/D47.png"",""materials/imgs/D1.png""]","false","random","","",""
"","","","","","html-keyboard-response","177","278366","0.0-15.0-0.2-0.16","nap2qudnru","","nap2qudnru","""2024-11-13T01:40:38.192Z""","null","+","null","","","","","","",""
"","","","","","image-keyboard-response","178","279116","0.0-15.0-0.2-1.16","nap2qudnru","","nap2qudnru","""2024-11-13T01:40:38.192Z""","749","materials/imgs/D34.png","arrowleft","","[""materials/imgs/D3.png"",""materials/imgs/D66.png""]","false","random","","",""
"","","","","","html-keyboard-response","179","279617","0.0-15.0-0.2-0.17","nap2qudnru","","nap2qudnru","""2024-11-13T01:40:38.192Z""","null","+","null","","","","","","",""
"","","","","","image-keyboard-response","180","280483","0.0-15.0-0.2-1.17","nap2qudnru","","nap2qudnru","""2024-11-13T01:40:38.192Z""","866","materials/imgs/D6.png","arrowright","","[""materials/imgs/D68.png"",""materials/imgs/D66.png""]","false","random","","",""
"","","","","","html-keyboard-response","181","280985","0.0-15.0-0.2-0.18","nap2qudnru","","nap2qudnru","""2024-11-13T01:40:38.192Z""","null","+","null","","","","","","",""
"","","","","","image-keyboard-response","182","281555","0.0-15.0-0.2-1.18","nap2qudnru","","nap2qudnru","""2024-11-13T01:40:38.192Z""","568","materials/imgs/D56.png","arrowright","","[""materials/imgs/D77.png"",""materials/imgs/D37.png""]","false","random","","",""
"","","","","","html-keyboard-response","183","282056","0.0-15.0-0.2-0.19","nap2qudnru","","nap2qudnru","""2024-11-13T01:40:38.192Z""","null","+","null","","","","","","",""
"","","","","","image-keyboard-response","184","283460","0.0-15.0-0.2-1.19","nap2qudnru","","nap2qudnru","""2024-11-13T01:40:38.192Z""","1402","materials/imgs/D83.png","arrowright","","[""materials/imgs/D21.png"",""materials/imgs/D84.png""]","false","random","","",""
"","","","","","html-keyboard-response","185","283961","0.0-15.0-0.2-0.20","nap2qudnru","","nap2qudnru","""2024-11-13T01:40:38.192Z""","null","+","null","","","","","","",""
"","","","","","image-keyboard-response","186","284792","0.0-15.0-0.2-1.20","nap2qudnru","","nap2qudnru","""2024-11-13T01:40:38.192Z""","830","materials/imgs/D79.png","arrowright","","[""materials/imgs/D104.png"",""materials/imgs/D36.png""]","false","random","","",""
"","","","","","html-keyboard-response","187","285293","0.0-15.0-1.2-0.2","nap2qudnru","","nap2qudnru","""2024-11-13T01:40:38.192Z""","null","+","null","","","","","","",""
"","","","","","image-keyboard-response","188","285818","0.0-15.0-1.2-1.2","nap2qudnru","","nap2qudnru","""2024-11-13T01:40:38.192Z""","523","materials/imgs/D53.png","arrowright","","[""materials/imgs/D64.png"",""materials/imgs/D53.png""]","","check","materials/imgs/D53.png","1","true"
"","","","","","html-keyboard-response","189","286319","0.0-15.0-2.2-0.4","nap2qudnru","","nap2qudnru","""2024-11-13T01:40:38.192Z""","null","+","null","","","","","","",""
"","","","","","image-keyboard-response","190","288052","0.0-15.0-2.2-1.4","nap2qudnru","","nap2qudnru","""2024-11-13T01:40:38.192Z""","1731","materials/imgs/D76.png","arrowleft","","[""materials/imgs/D83.png"",""materials/imgs/D6.png""]","false","validation","","",""
"","","","","","html-keyboard-response","191","288553","0.0-15.0-2.2-0.5","nap2qudnru","","nap2qudnru","""2024-11-13T01:40:38.192Z""","null","+","null","","","","","","",""
"","","","","","image-keyboard-response","192","290282","0.0-15.0-2.2-1.5","nap2qudnru","","nap2qudnru","""2024-11-13T01:40:38.192Z""","1727","materials/imgs/D52.png","arrowright","","[""materials/imgs/D9.png"",""materials/imgs/D19.png""]","false","validation","","",""
"","","","","","html-keyboard-response","193","290784","0.0-15.0-0.3-0.21","nap2qudnru","","nap2qudnru","""2024-11-13T01:40:38.192Z""","null","+","null","","","","","","",""
"","","","","","image-keyboard-response","194","291661","0.0-15.0-0.3-1.21","nap2qudnru","","nap2qudnru","""2024-11-13T01:40:38.192Z""","876","materials/imgs/D11.png","arrowright","","[""materials/imgs/D18.png"",""materials/imgs/D55.png""]","false","random","","",""
"","","","","","html-keyboard-response","195","292162","0.0-15.0-0.3-0.22","nap2qudnru","","nap2qudnru","""2024-11-13T01:40:38.192Z""","null","+","null","","","","","","",""
"","","","","","image-keyboard-response","196","292832","0.0-15.0-0.3-1.22","nap2qudnru","","nap2qudnru","""2024-11-13T01:40:38.192Z""","670","materials/imgs/D111.png","arrowright","","[""materials/imgs/D49.png"",""materials/imgs/D9.png""]","false","random","","",""
"","","","","","html-keyboard-response","197","293333","0.0-15.0-0.3-0.23","nap2qudnru","","nap2qudnru","""2024-11-13T01:40:38.192Z""","null","+","null","","","","","","",""
"","","","","","image-keyboard-response","198","294301","0.0-15.0-0.3-1.23","nap2qudnru","","nap2qudnru","""2024-11-13T01:40:38.192Z""","966","materials/imgs/D52.png","arrowleft","","[""materials/imgs/D11.png"",""materials/imgs/D9.png""]","false","random","","",""
"","","","","","html-keyboard-response","199","294802","0.0-15.0-0.3-0.24","nap2qudnru","","nap2qudnru","""2024-11-13T01:40:38.192Z""","null","+","null","","","","","","",""
"","","","","","image-keyboard-response","200","296377","0.0-15.0-0.3-1.24","nap2qudnru","","nap2qudnru","""2024-11-13T01:40:38.192Z""","1574","materials/imgs/D65.png","arrowright","","[""materials/imgs/D36.png"",""materials/imgs/D94.png""]","false","random","","",""
"","","","","","html-keyboard-response","201","296879","0.0-15.0-0.3-0.25","nap2qudnru","","nap2qudnru","""2024-11-13T01:40:38.192Z""","null","+","null","","","","","","",""
"","","","","","image-keyboard-response","202","297449","0.0-15.0-0.3-1.25","nap2qudnru","","nap2qudnru","""2024-11-13T01:40:38.192Z""","569","materials/imgs/D76.png","arrowleft","","[""materials/imgs/D11.png"",""materials/imgs/D75.png""]","false","random","","",""
"","","","","","html-keyboard-response","203","297950","0.0-15.0-0.3-0.26","nap2qudnru","","nap2qudnru","""2024-11-13T01:40:38.192Z""","null","+","null","","","","","","",""
"","","","","","image-keyboard-response","204","298621","0.0-15.0-0.3-1.26","nap2qudnru","","nap2qudnru","""2024-11-13T01:40:38.192Z""","670","materials/imgs/D77.png","arrowleft","","[""materials/imgs/D6.png"",""materials/imgs/D103.png""]","false","random","","",""
"","","","","","html-keyboard-response","205","299123","0.0-15.0-0.3-0.27","nap2qudnru","","nap2qudnru","""2024-11-13T01:40:38.192Z""","null","+","null","","","","","","",""
"","","","","","image-keyboard-response","206","300219","0.0-15.0-0.3-1.27","nap2qudnru","","nap2qudnru","""2024-11-13T01:40:38.192Z""","1095","materials/imgs/D55.png","arrowleft","","[""materials/imgs/D111.png"",""materials/imgs/D48.png""]","false","random","","",""
"","","","","","html-keyboard-response","207","300721","0.0-15.0-1.3-0.3","nap2qudnru","","nap2qudnru","""2024-11-13T01:40:38.192Z""","null","+","null","","","","","","",""
"","","","","","image-keyboard-response","208","301289","0.0-15.0-1.3-1.3","nap2qudnru","","nap2qudnru","""2024-11-13T01:40:38.192Z""","567","materials/imgs/D8.png","arrowright","","[""materials/imgs/D18.png"",""materials/imgs/D8.png""]","","check","materials/imgs/D8.png","1","true"
"","","","","","html-keyboard-response","209","301789","0.0-15.0-2.3-0.6","nap2qudnru","","nap2qudnru","""2024-11-13T01:40:38.192Z""","null","+","null","","","","","","",""
"","","","","","image-keyboard-response","210","302951","0.0-15.0-2.3-1.6","nap2qudnru","","nap2qudnru","""2024-11-13T01:40:38.192Z""","1160","materials/imgs/D64.png","arrowright","","[""materials/imgs/D6.png"",""materials/imgs/D81.png""]","false","validation","","",""
"","","","","","html-keyboard-response","211","303452","0.0-15.0-2.3-0.7","nap2qudnru","","nap2qudnru","""2024-11-13T01:40:38.192Z""","null","+","null","","","","","","",""
"","","","","","image-keyboard-response","212","304710","0.0-15.0-2.3-1.7","nap2qudnru","","nap2qudnru","""2024-11-13T01:40:38.192Z""","1258","materials/imgs/D37.png","arrowleft","","[""materials/imgs/D84.png"",""materials/imgs/D111.png""]","false","validation","","",""
"","","","","","html-keyboard-response","213","305212","0.0-15.0-0.4-0.28","nap2qudnru","","nap2qudnru","""2024-11-13T01:40:38.192Z""","null","+","null","","","","","","",""
"","","","","","image-keyboard-response","214","305897","0.0-15.0-0.4-1.28","nap2qudnru","","nap2qudnru","""2024-11-13T01:40:38.192Z""","683","materials/imgs/D20.png","arrowright","","[""materials/imgs/D51.png"",""materials/imgs/D104.png""]","false","random","","",""
"","","","","","html-keyboard-response","215","306398","0.0-15.0-0.4-0.29","nap2qudnru","","nap2qudnru","""2024-11-13T01:40:38.192Z""","null","+","null","","","","","","",""
"","","","","","image-keyboard-response","216","307064","0.0-15.0-0.4-1.29","nap2qudnru","","nap2qudnru","""2024-11-13T01:40:38.192Z""","666","materials/imgs/D77.png","arrowright","","[""materials/imgs/D25.png"",""materials/imgs/D79.png""]","false","random","","",""
"","","","","","html-keyboard-response","217","307566","0.0-15.0-0.4-0.30","nap2qudnru","","nap2qudnru","""2024-11-13T01:40:38.192Z""","null","+","null","","","","","","",""
"","","","","","image-keyboard-response","218","308893","0.0-15.0-0.4-1.30","nap2qudnru","","nap2qudnru","""2024-11-13T01:40:38.192Z""","1327","materials/imgs/D105.png","arrowright","","[""materials/imgs/D8.png"",""materials/imgs/D52.png""]","false","random","","",""
"","","","","","html-keyboard-response","219","309394","0.0-15.0-0.4-0.31","nap2qudnru","","nap2qudnru","""2024-11-13T01:40:38.192Z""","null","+","null","","","","","","",""
"","","","","","image-keyboard-response","220","310227","0.0-15.0-0.4-1.31","nap2qudnru","","nap2qudnru","""2024-11-13T01:40:38.192Z""","832","materials/imgs/D66.png","arrowleft","","[""materials/imgs/D34.png"",""materials/imgs/D57.png""]","false","random","","",""
"","","","","","html-keyboard-response","221","310729","0.0-15.0-0.4-0.32","nap2qudnru","","nap2qudnru","""2024-11-13T01:40:38.192Z""","null","+","null","","","","","","",""
"","","","","","image-keyboard-response","222","311521","0.0-15.0-0.4-1.32","nap2qudnru","","nap2qudnru","""2024-11-13T01:40:38.192Z""","791","materials/imgs/D105.png","arrowleft","","[""materials/imgs/D96.png"",""materials/imgs/D22.png""]","false","random","","",""
"","","","","","html-keyboard-response","223","312023","0.0-15.0-0.4-0.33","nap2qudnru","","nap2qudnru","""2024-11-13T01:40:38.192Z""","null","+","null","","","","","","",""
"","","","","","image-keyboard-response","224","312582","0.0-15.0-0.4-1.33","nap2qudnru","","nap2qudnru","""2024-11-13T01:40:38.192Z""","557","materials/imgs/D81.png","arrowleft","","[""materials/imgs/D78.png"",""materials/imgs/D46.png""]","false","random","","",""
"","","","","","html-keyboard-response","225","313083","0.0-15.0-0.4-0.34","nap2qudnru","","nap2qudnru","""2024-11-13T01:40:38.192Z""","null","+","null","","","","","","",""
"","","","","","image-keyboard-response","226","314000","0.0-15.0-0.4-1.34","nap2qudnru","","nap2qudnru","""2024-11-13T01:40:38.192Z""","916","materials/imgs/D87.png","arrowright","","[""materials/imgs/D77.png"",""materials/imgs/D64.png""]","false","random","","",""
"","","","","","html-keyboard-response","227","314501","0.0-15.0-1.4-0.4","nap2qudnru","","nap2qudnru","""2024-11-13T01:40:38.192Z""","null","+","null","","","","","","",""
"","","","","","image-keyboard-response","228","315005","0.0-15.0-1.4-1.4","nap2qudnru","","nap2qudnru","""2024-11-13T01:40:38.192Z""","503","materials/imgs/D8.png","arrowright","","[""materials/imgs/D18.png"",""materials/imgs/D8.png""]","","check","materials/imgs/D8.png","1","true"
"","","","","","html-keyboard-response","229","315507","0.0-15.0-2.4-0.8","nap2qudnru","","nap2qudnru","""2024-11-13T01:40:38.192Z""","null","+","null","","","","","","",""
"","","","","","image-keyboard-response","230","316323","0.0-15.0-2.4-1.8","nap2qudnru","","nap2qudnru","""2024-11-13T01:40:38.192Z""","815","materials/imgs/D18.png","arrowleft","","[""materials/imgs/D32.png"",""materials/imgs/D57.png""]","false","validation","","",""
"","","","","","html-keyboard-response","231","316824","0.0-15.0-2.4-0.9","nap2qudnru","","nap2qudnru","""2024-11-13T01:40:38.192Z""","null","+","null","","","","","","",""
"","","","","","image-keyboard-response","232","317856","0.0-15.0-2.4-1.9","nap2qudnru","","nap2qudnru","""2024-11-13T01:40:38.192Z""","1031","materials/imgs/D16.png","arrowleft","","[""materials/imgs/D52.png"",""materials/imgs/D25.png""]","false","validation","","",""
"","","","","","html-button-response","233","319604","0.0-16.0","nap2qudnru","","nap2qudnru","""2024-11-13T01:40:38.192Z""","1748","You have completed 50% of the trials. Please click 'Continue' when you are ready proceed.","0","","","","","","",""
"","","","","","html-keyboard-response","234","320106","0.0-17.0-0.0-0.0","nap2qudnru","","nap2qudnru","""2024-11-13T01:40:38.192Z""","null","+","null","","","","","","",""
"","","","","","image-keyboard-response","235","321306","0.0-17.0-0.0-1.0","nap2qudnru","","nap2qudnru","""2024-11-13T01:40:38.192Z""","1199","materials/imgs/D3.png","arrowright","","[""materials/imgs/D64.png"",""materials/imgs/D57.png""]","false","random","","",""
"","","","","","html-keyboard-response","236","321807","0.0-17.0-0.0-0.1","nap2qudnru","","nap2qudnru","""2024-11-13T01:40:38.192Z""","null","+","null","","","","","","",""
"","","","","","image-keyboard-response","237","323383","0.0-17.0-0.0-1.1","nap2qudnru","","nap2qudnru","""2024-11-13T01:40:38.192Z""","1575","materials/imgs/D95.png","arrowleft","","[""materials/imgs/D14.png"",""materials/imgs/D20.png""]","false","random","","",""
"","","","","","html-keyboard-response","238","323884","0.0-17.0-0.0-0.2","nap2qudnru","","nap2qudnru","""2024-11-13T01:40:38.192Z""","null","+","null","","","","","","",""
"","","","","","image-keyboard-response","239","325593","0.0-17.0-0.0-1.2","nap2qudnru","","nap2qudnru","""2024-11-13T01:40:38.192Z""","1708","materials/imgs/D85.png","arrowright","","[""materials/imgs/D104.png"",""materials/imgs/D68.png""]","false","random","","",""
"","","","","","html-keyboard-response","240","326094","0.0-17.0-0.0-0.3","nap2qudnru","","nap2qudnru","""2024-11-13T01:40:38.192Z""","null","+","null","","","","","","",""
"","","","","","image-keyboard-response","241","326839","0.0-17.0-0.0-1.3","nap2qudnru","","nap2qudnru","""2024-11-13T01:40:38.192Z""","743","materials/imgs/D94.png","arrowleft","","[""materials/imgs/D1.png"",""materials/imgs/D32.png""]","false","random","","",""
"","","","","","html-keyboard-response","242","327340","0.0-17.0-0.0-0.4","nap2qudnru","","nap2qudnru","""2024-11-13T01:40:38.192Z""","null","+","null","","","","","","",""
"","","","","","image-keyboard-response","243","329032","0.0-17.0-0.0-1.4","nap2qudnru","","nap2qudnru","""2024-11-13T01:40:38.192Z""","1691","materials/imgs/D20.png","arrowleft","","[""materials/imgs/D101.png"",""materials/imgs/D8.png""]","false","random","","",""
"","","","","","html-keyboard-response","244","329533","0.0-17.0-0.0-0.5","nap2qudnru","","nap2qudnru","""2024-11-13T01:40:38.192Z""","null","+","null","","","","","","",""
"","","","","","image-keyboard-response","245","332003","0.0-17.0-0.0-1.5","nap2qudnru","","nap2qudnru","""2024-11-13T01:40:38.192Z""","2468","materials/imgs/D83.png","arrowleft","","[""materials/imgs/D52.png"",""materials/imgs/D53.png""]","false","random","","",""
"","","","","","html-keyboard-response","246","332504","0.0-17.0-0.0-0.6","nap2qudnru","","nap2qudnru","""2024-11-13T01:40:38.192Z""","null","+","null","","","","","","",""
"","","","","","image-keyboard-response","247","333697","0.0-17.0-0.0-1.6","nap2qudnru","","nap2qudnru","""2024-11-13T01:40:38.192Z""","1192","materials/imgs/D68.png","arrowright","","[""materials/imgs/D102.png"",""materials/imgs/D20.png""]","false","random","","",""
"","","","","","html-keyboard-response","248","334198","0.0-17.0-1.0-0.0","nap2qudnru","","nap2qudnru","""2024-11-13T01:40:38.192Z""","null","+","null","","","","","","",""
"","","","","","image-keyboard-response","249","334681","0.0-17.0-1.0-1.0","nap2qudnru","","nap2qudnru","""2024-11-13T01:40:38.192Z""","481","materials/imgs/D8.png","arrowright","","[""materials/imgs/D18.png"",""materials/imgs/D8.png""]","","check","materials/imgs/D8.png","1","true"
"","","","","","html-keyboard-response","250","335183","0.0-17.0-2.0-0.0","nap2qudnru","","nap2qudnru","""2024-11-13T01:40:38.192Z""","null","+","null","","","","","","",""
"","","","","","image-keyboard-response","251","336347","0.0-17.0-2.0-1.0","nap2qudnru","","nap2qudnru","""2024-11-13T01:40:38.192Z""","1163","materials/imgs/D81.png","arrowright","","[""materials/imgs/D105.png"",""materials/imgs/D24.png""]","false","validation","","",""
"","","","","","html-keyboard-response","252","336849","0.0-17.0-2.0-0.1","nap2qudnru","","nap2qudnru","""2024-11-13T01:40:38.192Z""","null","+","null","","","","","","",""
"","","","","","image-keyboard-response","253","337915","0.0-17.0-2.0-1.1","nap2qudnru","","nap2qudnru","""2024-11-13T01:40:38.192Z""","1066","materials/imgs/D16.png","arrowleft","","[""materials/imgs/D52.png"",""materials/imgs/D25.png""]","false","validation","","",""
"","","","","","html-keyboard-response","254","338417","0.0-17.0-0.1-0.7","nap2qudnru","","nap2qudnru","""2024-11-13T01:40:38.192Z""","null","+","null","","","","","","",""
"","","","","","image-keyboard-response","255","338984","0.0-17.0-0.1-1.7","nap2qudnru","","nap2qudnru","""2024-11-13T01:40:38.192Z""","567","materials/imgs/D24.png","arrowleft","","[""materials/imgs/D57.png"",""materials/imgs/D35.png""]","false","random","","",""
"","","","","","html-keyboard-response","256","339485","0.0-17.0-0.1-0.8","nap2qudnru","","nap2qudnru","""2024-11-13T01:40:38.192Z""","null","+","null","","","","","","",""
"","","","","","image-keyboard-response","257","340768","0.0-17.0-0.1-1.8","nap2qudnru","","nap2qudnru","""2024-11-13T01:40:38.192Z""","1282","materials/imgs/D95.png","arrowright","","[""materials/imgs/D4.png"",""materials/imgs/D106.png""]","false","random","","",""
"","","","","","html-keyboard-response","258","341269","0.0-17.0-0.1-0.9","nap2qudnru","","nap2qudnru","""2024-11-13T01:40:38.192Z""","null","+","null","","","","","","",""
"","","","","","image-keyboard-response","259","342087","0.0-17.0-0.1-1.9","nap2qudnru","","nap2qudnru","""2024-11-13T01:40:38.192Z""","817","materials/imgs/D32.png","arrowleft","","[""materials/imgs/D57.png"",""materials/imgs/D17.png""]","false","random","","",""
"","","","","","html-keyboard-response","260","342588","0.0-17.0-0.1-0.10","nap2qudnru","","nap2qudnru","""2024-11-13T01:40:38.192Z""","null","+","null","","","","","","",""
"","","","","","image-keyboard-response","261","344214","0.0-17.0-0.1-1.10","nap2qudnru","","nap2qudnru","""2024-11-13T01:40:38.192Z""","1625","materials/imgs/D20.png","arrowright","","[""materials/imgs/D103.png"",""materials/imgs/D19.png""]","false","random","","",""
"","","","","","html-keyboard-response","262","344716","0.0-17.0-0.1-0.11","nap2qudnru","","nap2qudnru","""2024-11-13T01:40:38.192Z""","null","+","null","","","","","","",""
"","","","","","image-keyboard-response","263","345792","0.0-17.0-0.1-1.11","nap2qudnru","","nap2qudnru","""2024-11-13T01:40:38.192Z""","1076","materials/imgs/D52.png","arrowleft","","[""materials/imgs/D17.png"",""materials/imgs/D103.png""]","false","random","","",""
"","","","","","html-keyboard-response","264","346293","0.0-17.0-0.1-0.12","nap2qudnru","","nap2qudnru","""2024-11-13T01:40:38.192Z""","null","+","null","","","","","","",""
"","","","","","image-keyboard-response","265","346822","0.0-17.0-0.1-1.12","nap2qudnru","","nap2qudnru","""2024-11-13T01:40:38.192Z""","527","materials/imgs/D19.png","arrowright","","[""materials/imgs/D25.png"",""materials/imgs/D18.png""]","false","random","","",""
"","","","","","html-keyboard-response","266","347324","0.0-17.0-0.1-0.13","nap2qudnru","","nap2qudnru","""2024-11-13T01:40:38.192Z""","null","+","null","","","","","","",""
"","","","","","image-keyboard-response","267","348103","0.0-17.0-0.1-1.13","nap2qudnru","","nap2qudnru","""2024-11-13T01:40:38.192Z""","778","materials/imgs/D80.png","arrowright","","[""materials/imgs/D49.png"",""materials/imgs/D46.png""]","false","random","","",""
"","","","","","html-keyboard-response","268","348605","0.0-17.0-1.1-0.1","nap2qudnru","","nap2qudnru","""2024-11-13T01:40:38.192Z""","null","+","null","","","","","","",""
"","","","","","image-keyboard-response","269","349133","0.0-17.0-1.1-1.1","nap2qudnru","","nap2qudnru","""2024-11-13T01:40:38.192Z""","528","materials/imgs/D106.png","arrowleft","","[""materials/imgs/D106.png"",""materials/imgs/D101.png""]","","check","materials/imgs/D106.png","0","true"
"","","","","","html-keyboard-response","270","349634","0.0-17.0-2.1-0.2","nap2qudnru","","nap2qudnru","""2024-11-13T01:40:38.192Z""","null","+","null","","","","","","",""
"","","","","","image-keyboard-response","271","350114","0.0-17.0-2.1-1.2","nap2qudnru","","nap2qudnru","""2024-11-13T01:40:38.192Z""","479","materials/imgs/D9.png","arrowright","","[""materials/imgs/D103.png"",""materials/imgs/D4.png""]","true","validation","","",""
"","","","","","html-keyboard-response","272","354004","0.0-17.0-2.1-2.2-0.2","nap2qudnru","","nap2qudnru","""2024-11-13T01:40:38.192Z""","3890","<p><strong>You're going too fast.</strong><p>Please slow down and assess each triplet.<p>Press 'y' to continue.</p></p>","y","","","","","","",""
"","","","","","html-keyboard-response","273","354505","0.0-17.0-2.1-0.3","nap2qudnru","","nap2qudnru","""2024-11-13T01:40:38.192Z""","null","+","null","","","","","","",""
"","","","","","image-keyboard-response","274","355983","0.0-17.0-2.1-1.3","nap2qudnru","","nap2qudnru","""2024-11-13T01:40:38.192Z""","1477","materials/imgs/D92.png","arrowright","","[""materials/imgs/D56.png"",""materials/imgs/D77.png""]","false","validation","","",""
"","","","","","html-keyboard-response","275","356484","0.0-17.0-0.2-0.14","nap2qudnru","","nap2qudnru","""2024-11-13T01:40:38.192Z""","null","+","null","","","","","","",""
"","","","","","image-keyboard-response","276","357998","0.0-17.0-0.2-1.14","nap2qudnru","","nap2qudnru","""2024-11-13T01:40:38.192Z""","1514","materials/imgs/D96.png","arrowleft","","[""materials/imgs/D51.png"",""materials/imgs/D57.png""]","false","random","","",""
"","","","","","html-keyboard-response","277","358500","0.0-17.0-0.2-0.15","nap2qudnru","","nap2qudnru","""2024-11-13T01:40:38.192Z""","null","+","null","","","","","","",""
"","","","","","image-keyboard-response","278","359614","0.0-17.0-0.2-1.15","nap2qudnru","","nap2qudnru","""2024-11-13T01:40:38.192Z""","1113","materials/imgs/D1.png","arrowright","","[""materials/imgs/D37.png"",""materials/imgs/D80.png""]","false","random","","",""
"","","","","","html-keyboard-response","279","360116","0.0-17.0-0.2-0.16","nap2qudnru","","nap2qudnru","""2024-11-13T01:40:38.192Z""","null","+","null","","","","","","",""
"","","","","","image-keyboard-response","280","361414","0.0-17.0-0.2-1.16","nap2qudnru","","nap2qudnru","""2024-11-13T01:40:38.192Z""","1298","materials/imgs/D22.png","arrowright","","[""materials/imgs/D53.png"",""materials/imgs/D9.png""]","false","random","","",""
"","","","","","html-keyboard-response","281","361916","0.0-17.0-0.2-0.17","nap2qudnru","","nap2qudnru","""2024-11-13T01:40:38.192Z""","null","+","null","","","","","","",""
"","","","","","image-keyboard-response","282","363409","0.0-17.0-0.2-1.17","nap2qudnru","","nap2qudnru","""2024-11-13T01:40:38.192Z""","1492","materials/imgs/D47.png","arrowright","","[""materials/imgs/D105.png"",""materials/imgs/D56.png""]","false","random","","",""
"","","","","","html-keyboard-response","283","363910","0.0-17.0-0.2-0.18","nap2qudnru","","nap2qudnru","""2024-11-13T01:40:38.192Z""","null","+","null","","","","","","",""
"","","","","","image-keyboard-response","284","365866","0.0-17.0-0.2-1.18","nap2qudnru","","nap2qudnru","""2024-11-13T01:40:38.192Z""","1955","materials/imgs/D80.png","arrowleft","","[""materials/imgs/D8.png"",""materials/imgs/D37.png""]","false","random","","",""
"","","","","","html-keyboard-response","285","366367","0.0-17.0-0.2-0.19","nap2qudnru","","nap2qudnru","""2024-11-13T01:40:38.192Z""","null","+","null","","","","","","",""
"","","","","","image-keyboard-response","286","367868","0.0-17.0-0.2-1.19","nap2qudnru","","nap2qudnru","""2024-11-13T01:40:38.192Z""","1500","materials/imgs/D85.png","arrowleft","","[""materials/imgs/D24.png"",""materials/imgs/D111.png""]","false","random","","",""
"","","","","","html-keyboard-response","287","368370","0.0-17.0-0.2-0.20","nap2qudnru","","nap2qudnru","""2024-11-13T01:40:38.192Z""","null","+","null","","","","","","",""
"","","","","","image-keyboard-response","288","369259","0.0-17.0-0.2-1.20","nap2qudnru","","nap2qudnru","""2024-11-13T01:40:38.192Z""","888","materials/imgs/D55.png","arrowright","","[""materials/imgs/D26.png"",""materials/imgs/D16.png""]","false","random","","",""
"","","","","","html-keyboard-response","289","369761","0.0-17.0-1.2-0.2","nap2qudnru","","nap2qudnru","""2024-11-13T01:40:38.192Z""","null","+","null","","","","","","",""
"","","","","","image-keyboard-response","290","370370","0.0-17.0-1.2-1.2","nap2qudnru","","nap2qudnru","""2024-11-13T01:40:38.192Z""","609","materials/imgs/D106.png","arrowleft","","[""materials/imgs/D106.png"",""materials/imgs/D101.png""]","","check","materials/imgs/D106.png","0","true"
"","","","","","html-keyboard-response","291","370872","0.0-17.0-2.2-0.4","nap2qudnru","","nap2qudnru","""2024-11-13T01:40:38.192Z""","null","+","null","","","","","","",""
"","","","","","image-keyboard-response","292","371722","0.0-17.0-2.2-1.4","nap2qudnru","","nap2qudnru","""2024-11-13T01:40:38.192Z""","850","materials/imgs/D101.png","arrowright","","[""materials/imgs/D76.png"",""materials/imgs/D47.png""]","false","validation","","",""
"","","","","","html-keyboard-response","293","372224","0.0-17.0-2.2-0.5","nap2qudnru","","nap2qudnru","""2024-11-13T01:40:38.192Z""","null","+","null","","","","","","",""
"","","","","","image-keyboard-response","294","373044","0.0-17.0-2.2-1.5","nap2qudnru","","nap2qudnru","""2024-11-13T01:40:38.192Z""","819","materials/imgs/D36.png","arrowleft","","[""materials/imgs/D47.png"",""materials/imgs/D49.png""]","false","validation","","",""
"","","","","","html-keyboard-response","295","373546","0.0-17.0-0.3-0.21","nap2qudnru","","nap2qudnru","""2024-11-13T01:40:38.192Z""","null","+","null","","","","","","",""
"","","","","","image-keyboard-response","296","374173","0.0-17.0-0.3-1.21","nap2qudnru","","nap2qudnru","""2024-11-13T01:40:38.192Z""","626","materials/imgs/D36.png","arrowright","","[""materials/imgs/D4.png"",""materials/imgs/D22.png""]","false","random","","",""
"","","","","","html-keyboard-response","297","374674","0.0-17.0-0.3-0.22","nap2qudnru","","nap2qudnru","""2024-11-13T01:40:38.192Z""","null","+","null","","","","","","",""
"","","","","","image-keyboard-response","298","376230","0.0-17.0-0.3-1.22","nap2qudnru","","nap2qudnru","""2024-11-13T01:40:38.192Z""","1555","materials/imgs/D92.png","arrowright","","[""materials/imgs/D8.png"",""materials/imgs/D1.png""]","false","random","","",""
"","","","","","html-keyboard-response","299","376732","0.0-17.0-0.3-0.23","nap2qudnru","","nap2qudnru","""2024-11-13T01:40:38.192Z""","null","+","null","","","","","","",""
"","","","","","image-keyboard-response","300","377715","0.0-17.0-0.3-1.23","nap2qudnru","","nap2qudnru","""2024-11-13T01:40:38.192Z""","982","materials/imgs/D6.png","arrowright","","[""materials/imgs/D37.png"",""materials/imgs/D9.png""]","false","random","","",""
"","","","","","html-keyboard-response","301","378216","0.0-17.0-0.3-0.24","nap2qudnru","","nap2qudnru","""2024-11-13T01:40:38.192Z""","null","+","null","","","","","","",""
"","","","","","image-keyboard-response","302","380079","0.0-17.0-0.3-1.24","nap2qudnru","","nap2qudnru","""2024-11-13T01:40:38.192Z""","1862","materials/imgs/D87.png","arrowright","","[""materials/imgs/D34.png"",""materials/imgs/D53.png""]","false","random","","",""
"","","","","","html-keyboard-response","303","380581","0.0-17.0-0.3-0.25","nap2qudnru","","nap2qudnru","""2024-11-13T01:40:38.192Z""","null","+","null","","","","","","",""
"","","","","","image-keyboard-response","304","381523","0.0-17.0-0.3-1.25","nap2qudnru","","nap2qudnru","""2024-11-13T01:40:38.192Z""","942","materials/imgs/D18.png","arrowright","","[""materials/imgs/D24.png"",""materials/imgs/D36.png""]","false","random","","",""
"","","","","","html-keyboard-response","305","382025","0.0-17.0-0.3-0.26","nap2qudnru","","nap2qudnru","""2024-11-13T01:40:38.192Z""","null","+","null","","","","","","",""
"","","","","","image-keyboard-response","306","382899","0.0-17.0-0.3-1.26","nap2qudnru","","nap2qudnru","""2024-11-13T01:40:38.192Z""","873","materials/imgs/D6.png","arrowright","","[""materials/imgs/D26.png"",""materials/imgs/D66.png""]","false","random","","",""
"","","","","","html-keyboard-response","307","383401","0.0-17.0-0.3-0.27","nap2qudnru","","nap2qudnru","""2024-11-13T01:40:38.192Z""","null","+","null","","","","","","",""
"","","","","","image-keyboard-response","308","384273","0.0-17.0-0.3-1.27","nap2qudnru","","nap2qudnru","""2024-11-13T01:40:38.192Z""","872","materials/imgs/D3.png","arrowleft","","[""materials/imgs/D34.png"",""materials/imgs/D78.png""]","false","random","","",""
"","","","","","html-keyboard-response","309","384775","0.0-17.0-1.3-0.3","nap2qudnru","","nap2qudnru","""2024-11-13T01:40:38.192Z""","null","+","null","","","","","","",""
"","","","","","image-keyboard-response","310","385503","0.0-17.0-1.3-1.3","nap2qudnru","","nap2qudnru","""2024-11-13T01:40:38.192Z""","727","materials/imgs/D101.png","arrowright","","[""materials/imgs/D106.png"",""materials/imgs/D101.png""]","","check","materials/imgs/D101.png","1","true"
"","","","","","html-keyboard-response","311","386004","0.0-17.0-2.3-0.6","nap2qudnru","","nap2qudnru","""2024-11-13T01:40:38.192Z""","null","+","null","","","","","","",""
"","","","","","image-keyboard-response","312","386621","0.0-17.0-2.3-1.6","nap2qudnru","","nap2qudnru","""2024-11-13T01:40:38.192Z""","616","materials/imgs/D105.png","arrowleft","","[""materials/imgs/D106.png"",""materials/imgs/D52.png""]","false","validation","","",""
"","","","","","html-keyboard-response","313","387122","0.0-17.0-2.3-0.7","nap2qudnru","","nap2qudnru","""2024-11-13T01:40:38.192Z""","null","+","null","","","","","","",""
"","","","","","image-keyboard-response","314","387977","0.0-17.0-2.3-1.7","nap2qudnru","","nap2qudnru","""2024-11-13T01:40:38.192Z""","854","materials/imgs/D85.png","arrowleft","","[""materials/imgs/D6.png"",""materials/imgs/D111.png""]","false","validation","","",""
"","","","","","html-keyboard-response","315","388478","0.0-17.0-0.4-0.28","nap2qudnru","","nap2qudnru","""2024-11-13T01:40:38.192Z""","null","+","null","","","","","","",""
"","","","","","image-keyboard-response","316","389356","0.0-17.0-0.4-1.28","nap2qudnru","","nap2qudnru","""2024-11-13T01:40:38.192Z""","876","materials/imgs/D101.png","arrowright","","[""materials/imgs/D20.png"",""materials/imgs/D8.png""]","false","random","","",""
"","","","","","html-keyboard-response","317","389857","0.0-17.0-0.4-0.29","nap2qudnru","","nap2qudnru","""2024-11-13T01:40:38.192Z""","null","+","null","","","","","","",""
"","","","","","image-keyboard-response","318","390929","0.0-17.0-0.4-1.29","nap2qudnru","","nap2qudnru","""2024-11-13T01:40:38.192Z""","1071","materials/imgs/D103.png","arrowright","","[""materials/imgs/D19.png"",""materials/imgs/D8.png""]","false","random","","",""
"","","","","","html-keyboard-response","319","391430","0.0-17.0-0.4-0.30","nap2qudnru","","nap2qudnru","""2024-11-13T01:40:38.192Z""","null","+","null","","","","","","",""
"","","","","","image-keyboard-response","320","392042","0.0-17.0-0.4-1.30","nap2qudnru","","nap2qudnru","""2024-11-13T01:40:38.192Z""","611","materials/imgs/D82.png","arrowleft","","[""materials/imgs/D85.png"",""materials/imgs/D56.png""]","false","random","","",""
"","","","","","html-keyboard-response","321","392543","0.0-17.0-0.4-0.31","nap2qudnru","","nap2qudnru","""2024-11-13T01:40:38.192Z""","null","+","null","","","","","","",""
"","","","","","image-keyboard-response","322","393546","0.0-17.0-0.4-1.31","nap2qudnru","","nap2qudnru","""2024-11-13T01:40:38.192Z""","1002","materials/imgs/D22.png","arrowright","","[""materials/imgs/D26.png"",""materials/imgs/D53.png""]","false","random","","",""
"","","","","","html-keyboard-response","323","394047","0.0-17.0-0.4-0.32","nap2qudnru","","nap2qudnru","""2024-11-13T01:40:38.192Z""","null","+","null","","","","","","",""
"","","","","","image-keyboard-response","324","394687","0.0-17.0-0.4-1.32","nap2qudnru","","nap2qudnru","""2024-11-13T01:40:38.192Z""","639","materials/imgs/D52.png","arrowleft","","[""materials/imgs/D29.png"",""materials/imgs/D48.png""]","false","random","","",""
"","","","","","html-keyboard-response","325","395188","0.0-17.0-0.4-0.33","nap2qudnru","","nap2qudnru","""2024-11-13T01:40:38.192Z""","null","+","null","","","","","","",""
"","","","","","image-keyboard-response","326","395859","0.0-17.0-0.4-1.33","nap2qudnru","","nap2qudnru","""2024-11-13T01:40:38.192Z""","670","materials/imgs/D81.png","arrowleft","","[""materials/imgs/D87.png"",""materials/imgs/D96.png""]","false","random","","",""
"","","","","","html-keyboard-response","327","396360","0.0-17.0-0.4-0.34","nap2qudnru","","nap2qudnru","""2024-11-13T01:40:38.192Z""","null","+","null","","","","","","",""
"","","","","","image-keyboard-response","328","397407","0.0-17.0-0.4-1.34","nap2qudnru","","nap2qudnru","""2024-11-13T01:40:38.192Z""","1046","materials/imgs/D17.png","arrowright","","[""materials/imgs/D22.png"",""materials/imgs/D81.png""]","false","random","","",""
"","","","","","html-keyboard-response","329","397908","0.0-17.0-1.4-0.4","nap2qudnru","","nap2qudnru","""2024-11-13T01:40:38.192Z""","null","+","null","","","","","","",""
"","","","","","image-keyboard-response","330","398443","0.0-17.0-1.4-1.4","nap2qudnru","","nap2qudnru","""2024-11-13T01:40:38.192Z""","534","materials/imgs/D53.png","arrowright","","[""materials/imgs/D64.png"",""materials/imgs/D53.png""]","","check","materials/imgs/D53.png","1","true"
"","","","","","html-keyboard-response","331","398944","0.0-17.0-2.4-0.8","nap2qudnru","","nap2qudnru","""2024-11-13T01:40:38.192Z""","null","+","null","","","","","","",""
"","","","","","image-keyboard-response","332","399782","0.0-17.0-2.4-1.8","nap2qudnru","","nap2qudnru","""2024-11-13T01:40:38.192Z""","837","materials/imgs/D47.png","arrowleft","","[""materials/imgs/D1.png"",""materials/imgs/D52.png""]","false","validation","","",""
"","","","","","html-keyboard-response","333","400284","0.0-17.0-2.4-0.9","nap2qudnru","","nap2qudnru","""2024-11-13T01:40:38.192Z""","null","+","null","","","","","","",""
"","","","","","image-keyboard-response","334","402005","0.0-17.0-2.4-1.9","nap2qudnru","","nap2qudnru","""2024-11-13T01:40:38.192Z""","1720","materials/imgs/D48.png","arrowright","","[""materials/imgs/D4.png"",""materials/imgs/D37.png""]","false","validation","","",""
"","","","","","html-button-response","335","404669","0.0-18.0","nap2qudnru","","nap2qudnru","""2024-11-13T01:40:38.192Z""","2663","You have completed 75% of the trials. Please click 'Continue' when you are ready proceed.","0","","","","","","",""
"","","","","","html-keyboard-response","336","405169","0.0-19.0-0.0-0.0","nap2qudnru","","nap2qudnru","""2024-11-13T01:40:38.192Z""","null","+","null","","","","","","",""
"","","","","","image-keyboard-response","337","406471","0.0-19.0-0.0-1.0","nap2qudnru","","nap2qudnru","""2024-11-13T01:40:38.192Z""","1301","materials/imgs/D18.png","arrowright","","[""materials/imgs/D78.png"",""materials/imgs/D66.png""]","false","random","","",""
"","","","","","html-keyboard-response","338","406972","0.0-19.0-0.0-0.1","nap2qudnru","","nap2qudnru","""2024-11-13T01:40:38.192Z""","null","+","null","","","","","","",""
"","","","","","image-keyboard-response","339","407531","0.0-19.0-0.0-1.1","nap2qudnru","","nap2qudnru","""2024-11-13T01:40:38.192Z""","559","materials/imgs/D29.png","arrowright","","[""materials/imgs/D49.png"",""materials/imgs/D104.png""]","false","random","","",""
"","","","","","html-keyboard-response","340","408033","0.0-19.0-0.0-0.2","nap2qudnru","","nap2qudnru","""2024-11-13T01:40:38.192Z""","null","+","null","","","","","","",""
"","","","","","image-keyboard-response","341","408984","0.0-19.0-0.0-1.2","nap2qudnru","","nap2qudnru","""2024-11-13T01:40:38.192Z""","950","materials/imgs/D8.png","arrowleft","","[""materials/imgs/D51.png"",""materials/imgs/D18.png""]","false","random","","",""
"","","","","","html-keyboard-response","342","409485","0.0-19.0-0.0-0.3","nap2qudnru","","nap2qudnru","""2024-11-13T01:40:38.192Z""","null","+","null","","","","","","",""
"","","","","","image-keyboard-response","343","410169","0.0-19.0-0.0-1.3","nap2qudnru","","nap2qudnru","""2024-11-13T01:40:38.192Z""","684","materials/imgs/D81.png","arrowleft","","[""materials/imgs/D32.png"",""materials/imgs/D26.png""]","false","random","","",""
"","","","","","html-keyboard-response","344","410671","0.0-19.0-0.0-0.4","nap2qudnru","","nap2qudnru","""2024-11-13T01:40:38.192Z""","null","+","null","","","","","","",""
"","","","","","image-keyboard-response","345","411279","0.0-19.0-0.0-1.4","nap2qudnru","","nap2qudnru","""2024-11-13T01:40:38.192Z""","607","materials/imgs/D106.png","arrowleft","","[""materials/imgs/D79.png"",""materials/imgs/D101.png""]","false","random","","",""
"","","","","","html-keyboard-response","346","411781","0.0-19.0-0.0-0.5","nap2qudnru","","nap2qudnru","""2024-11-13T01:40:38.192Z""","null","+","null","","","","","","",""
"","","","","","image-keyboard-response","347","412393","0.0-19.0-0.0-1.5","nap2qudnru","","nap2qudnru","""2024-11-13T01:40:38.192Z""","611","materials/imgs/D29.png","arrowright","","[""materials/imgs/D8.png"",""materials/imgs/D101.png""]","false","random","","",""
"","","","","","html-keyboard-response","348","412894","0.0-19.0-0.0-0.6","nap2qudnru","","nap2qudnru","""2024-11-13T01:40:38.192Z""","null","+","null","","","","","","",""
"","","","","","image-keyboard-response","349","413689","0.0-19.0-0.0-1.6","nap2qudnru","","nap2qudnru","""2024-11-13T01:40:38.192Z""","795","materials/imgs/D84.png","arrowleft","","[""materials/imgs/D32.png"",""materials/imgs/D83.png""]","false","random","","",""
"","","","","","html-keyboard-response","350","414191","0.0-19.0-1.0-0.0","nap2qudnru","","nap2qudnru","""2024-11-13T01:40:38.192Z""","null","+","null","","","","","","",""
"","","","","","image-keyboard-response","351","414849","0.0-19.0-1.0-1.0","nap2qudnru","","nap2qudnru","""2024-11-13T01:40:38.192Z""","657","materials/imgs/D78.png","arrowright","","[""materials/imgs/D76.png"",""materials/imgs/D78.png""]","","check","materials/imgs/D78.png","1","true"
"","","","","","html-keyboard-response","352","415350","0.0-19.0-2.0-0.0","nap2qudnru","","nap2qudnru","""2024-11-13T01:40:38.192Z""","null","+","null","","","","","","",""
"","","","","","image-keyboard-response","353","417595","0.0-19.0-2.0-1.0","nap2qudnru","","nap2qudnru","""2024-11-13T01:40:38.192Z""","2244","materials/imgs/D65.png","arrowleft","","[""materials/imgs/D4.png"",""materials/imgs/D16.png""]","false","validation","","",""
"","","","","","html-keyboard-response","354","418097","0.0-19.0-2.0-0.1","nap2qudnru","","nap2qudnru","""2024-11-13T01:40:38.192Z""","null","+","null","","","","","","",""
"","","","","","image-keyboard-response","355","419402","0.0-19.0-2.0-1.1","nap2qudnru","","nap2qudnru","""2024-11-13T01:40:38.192Z""","1304","materials/imgs/D92.png","arrowleft","","[""materials/imgs/D56.png"",""materials/imgs/D77.png""]","false","validation","","",""
"","","","","","html-keyboard-response","356","419904","0.0-19.0-0.1-0.7","nap2qudnru","","nap2qudnru","""2024-11-13T01:40:38.192Z""","null","+","null","","","","","","",""
"","","","","","image-keyboard-response","357","420540","0.0-19.0-0.1-1.7","nap2qudnru","","nap2qudnru","""2024-11-13T01:40:38.192Z""","635","materials/imgs/D9.png","arrowright","","[""materials/imgs/D18.png"",""materials/imgs/D57.png""]","false","random","","",""
"","","","","","html-keyboard-response","358","421041","0.0-19.0-0.1-0.8","nap2qudnru","","nap2qudnru","""2024-11-13T01:40:38.192Z""","null","+","null","","","","","","",""
"","","","","","image-keyboard-response","359","423022","0.0-19.0-0.1-1.8","nap2qudnru","","nap2qudnru","""2024-11-13T01:40:38.192Z""","1980","materials/imgs/D8.png","arrowright","","[""materials/imgs/D20.png"",""materials/imgs/D83.png""]","false","random","","",""
"","","","","","html-keyboard-response","360","423523","0.0-19.0-0.1-0.9","nap2qudnru","","nap2qudnru","""2024-11-13T01:40:38.192Z""","null","+","null","","","","","","",""
"","","","","","image-keyboard-response","361","426049","0.0-19.0-0.1-1.9","nap2qudnru","","nap2qudnru","""2024-11-13T01:40:38.192Z""","2521","materials/imgs/D64.png","arrowright","","[""materials/imgs/D3.png"",""materials/imgs/D20.png""]","false","random","","",""
"","","","","","html-keyboard-response","362","426550","0.0-19.0-0.1-0.10","nap2qudnru","","nap2qudnru","""2024-11-13T01:40:38.192Z""","null","+","null","","","","","","",""
"","","","","","image-keyboard-response","363","427352","0.0-19.0-0.1-1.10","nap2qudnru","","nap2qudnru","""2024-11-13T01:40:38.192Z""","801","materials/imgs/D6.png","arrowleft","","[""materials/imgs/D22.png"",""materials/imgs/D79.png""]","false","random","","",""
"","","","","","html-keyboard-response","364","427854","0.0-19.0-0.1-0.11","nap2qudnru","","nap2qudnru","""2024-11-13T01:40:38.192Z""","null","+","null","","","","","","",""
"","","","","","image-keyboard-response","365","428723","0.0-19.0-0.1-1.11","nap2qudnru","","nap2qudnru","""2024-11-13T01:40:38.192Z""","868","materials/imgs/D14.png","arrowright","","[""materials/imgs/D52.png"",""materials/imgs/D55.png""]","false","random","","",""
"","","","","","html-keyboard-response","366","429224","0.0-19.0-0.1-0.12","nap2qudnru","","nap2qudnru","""2024-11-13T01:40:38.192Z""","null","+","null","","","","","","",""
"","","","","","image-keyboard-response","367","429810","0.0-19.0-0.1-1.12","nap2qudnru","","nap2qudnru","""2024-11-13T01:40:38.192Z""","585","materials/imgs/D76.png","arrowright","","[""materials/imgs/D84.png"",""materials/imgs/D11.png""]","false","random","","",""
"","","","","","html-keyboard-response","368","430312","0.0-19.0-0.1-0.13","nap2qudnru","","nap2qudnru","""2024-11-13T01:40:38.192Z""","null","+","null","","","","","","",""
"","","","","","image-keyboard-response","369","430864","0.0-19.0-0.1-1.13","nap2qudnru","","nap2qudnru","""2024-11-13T01:40:38.192Z""","551","materials/imgs/D53.png","arrowright","","[""materials/imgs/D29.png"",""materials/imgs/D17.png""]","false","random","","",""
"","","","","","html-keyboard-response","370","431365","0.0-19.0-1.1-0.1","nap2qudnru","","nap2qudnru","""2024-11-13T01:40:38.192Z""","null","+","null","","","","","","",""
"","","","","","image-keyboard-response","371","431924","0.0-19.0-1.1-1.1","nap2qudnru","","nap2qudnru","""2024-11-13T01:40:38.192Z""","558","materials/imgs/D26.png","arrowleft","","[""materials/imgs/D26.png"",""materials/imgs/D46.png""]","","check","materials/imgs/D26.png","0","true"
"","","","","","html-keyboard-response","372","432425","0.0-19.0-2.1-0.2","nap2qudnru","","nap2qudnru","""2024-11-13T01:40:38.192Z""","null","+","null","","","","","","",""
"","","","","","image-keyboard-response","373","433287","0.0-19.0-2.1-1.2","nap2qudnru","","nap2qudnru","""2024-11-13T01:40:38.192Z""","862","materials/imgs/D3.png","arrowleft","","[""materials/imgs/D79.png"",""materials/imgs/D48.png""]","false","validation","","",""
"","","","","","html-keyboard-response","374","433788","0.0-19.0-2.1-0.3","nap2qudnru","","nap2qudnru","""2024-11-13T01:40:38.192Z""","null","+","null","","","","","","",""
"","","","","","image-keyboard-response","375","434645","0.0-19.0-2.1-1.3","nap2qudnru","","nap2qudnru","""2024-11-13T01:40:38.192Z""","855","materials/imgs/D6.png","arrowright","","[""materials/imgs/D26.png"",""materials/imgs/D76.png""]","false","validation","","",""
"","","","","","html-keyboard-response","376","435146","0.0-19.0-0.2-0.14","nap2qudnru","","nap2qudnru","""2024-11-13T01:40:38.192Z""","null","+","null","","","","","","",""
"","","","","","image-keyboard-response","377","436119","0.0-19.0-0.2-1.14","nap2qudnru","","nap2qudnru","""2024-11-13T01:40:38.192Z""","972","materials/imgs/D18.png","arrowleft","","[""materials/imgs/D82.png"",""materials/imgs/D96.png""]","false","random","","",""
"","","","","","html-keyboard-response","378","436620","0.0-19.0-0.2-0.15","nap2qudnru","","nap2qudnru","""2024-11-13T01:40:38.192Z""","null","+","null","","","","","","",""
"","","","","","image-keyboard-response","379","437459","0.0-19.0-0.2-1.15","nap2qudnru","","nap2qudnru","""2024-11-13T01:40:38.192Z""","838","materials/imgs/D29.png","arrowright","","[""materials/imgs/D1.png"",""materials/imgs/D104.png""]","false","random","","",""
"","","","","","html-keyboard-response","380","437960","0.0-19.0-0.2-0.16","nap2qudnru","","nap2qudnru","""2024-11-13T01:40:38.192Z""","null","+","null","","","","","","",""
"","","","","","image-keyboard-response","381","438937","0.0-19.0-0.2-1.16","nap2qudnru","","nap2qudnru","""2024-11-13T01:40:38.192Z""","976","materials/imgs/D66.png","arrowright","","[""materials/imgs/D52.png"",""materials/imgs/D19.png""]","false","random","","",""
"","","","","","html-keyboard-response","382","439438","0.0-19.0-0.2-0.17","nap2qudnru","","nap2qudnru","""2024-11-13T01:40:38.192Z""","null","+","null","","","","","","",""
"","","","","","image-keyboard-response","383","440284","0.0-19.0-0.2-1.17","nap2qudnru","","nap2qudnru","""2024-11-13T01:40:38.192Z""","845","materials/imgs/D14.png","arrowright","","[""materials/imgs/D26.png"",""materials/imgs/D64.png""]","false","random","","",""
"","","","","","html-keyboard-response","384","440786","0.0-19.0-0.2-0.18","nap2qudnru","","nap2qudnru","""2024-11-13T01:40:38.192Z""","null","+","null","","","","","","",""
"","","","","","image-keyboard-response","385","441757","0.0-19.0-0.2-1.18","nap2qudnru","","nap2qudnru","""2024-11-13T01:40:38.192Z""","970","materials/imgs/D87.png","arrowright","","[""materials/imgs/D75.png"",""materials/imgs/D9.png""]","false","random","","",""
"","","","","","html-keyboard-response","386","442258","0.0-19.0-0.2-0.19","nap2qudnru","","nap2qudnru","""2024-11-13T01:40:38.192Z""","null","+","null","","","","","","",""
"","","","","","image-keyboard-response","387","443084","0.0-19.0-0.2-1.19","nap2qudnru","","nap2qudnru","""2024-11-13T01:40:38.192Z""","825","materials/imgs/D53.png","arrowright","","[""materials/imgs/D111.png"",""materials/imgs/D78.png""]","false","random","","",""
"","","","","","html-keyboard-response","388","443585","0.0-19.0-0.2-0.20","nap2qudnru","","nap2qudnru","""2024-11-13T01:40:38.192Z""","null","+","null","","","","","","",""
"","","","","","image-keyboard-response","389","444454","0.0-19.0-0.2-1.20","nap2qudnru","","nap2qudnru","""2024-11-13T01:40:38.192Z""","868","materials/imgs/D66.png","arrowright","","[""materials/imgs/D81.png"",""materials/imgs/D8.png""]","false","random","","",""
"","","","","","html-keyboard-response","390","444955","0.0-19.0-1.2-0.2","nap2qudnru","","nap2qudnru","""2024-11-13T01:40:38.192Z""","null","+","null","","","","","","",""
"","","","","","image-keyboard-response","391","445666","0.0-19.0-1.2-1.2","nap2qudnru","","nap2qudnru","""2024-11-13T01:40:38.192Z""","711","materials/imgs/D76.png","arrowleft","","[""materials/imgs/D76.png"",""materials/imgs/D78.png""]","","check","materials/imgs/D76.png","0","true"
"","","","","","html-keyboard-response","392","446168","0.0-19.0-2.2-0.4","nap2qudnru","","nap2qudnru","""2024-11-13T01:40:38.192Z""","null","+","null","","","","","","",""
"","","","","","image-keyboard-response","393","447912","0.0-19.0-2.2-1.4","nap2qudnru","","nap2qudnru","""2024-11-13T01:40:38.192Z""","1743","materials/imgs/D36.png","arrowleft","","[""materials/imgs/D47.png"",""materials/imgs/D49.png""]","false","validation","","",""
"","","","","","html-keyboard-response","394","448413","0.0-19.0-2.2-0.5","nap2qudnru","","nap2qudnru","""2024-11-13T01:40:38.192Z""","null","+","null","","","","","","",""
"","","","","","image-keyboard-response","395","449654","0.0-19.0-2.2-1.5","nap2qudnru","","nap2qudnru","""2024-11-13T01:40:38.192Z""","1240","materials/imgs/D26.png","arrowleft","","[""materials/imgs/D36.png"",""materials/imgs/D92.png""]","false","validation","","",""
"","","","","","html-keyboard-response","396","450156","0.0-19.0-0.3-0.21","nap2qudnru","","nap2qudnru","""2024-11-13T01:40:38.192Z""","null","+","null","","","","","","",""
"","","","","","image-keyboard-response","397","451103","0.0-19.0-0.3-1.21","nap2qudnru","","nap2qudnru","""2024-11-13T01:40:38.192Z""","946","materials/imgs/D85.png","arrowright","","[""materials/imgs/D37.png"",""materials/imgs/D64.png""]","false","random","","",""
"","","","","","html-keyboard-response","398","451605","0.0-19.0-0.3-0.22","nap2qudnru","","nap2qudnru","""2024-11-13T01:40:38.192Z""","null","+","null","","","","","","",""
"","","","","","image-keyboard-response","399","452993","0.0-19.0-0.3-1.22","nap2qudnru","","nap2qudnru","""2024-11-13T01:40:38.192Z""","1387","materials/imgs/D17.png","arrowright","","[""materials/imgs/D92.png"",""materials/imgs/D24.png""]","false","random","","",""
"","","","","","html-keyboard-response","400","453494","0.0-19.0-0.3-0.23","nap2qudnru","","nap2qudnru","""2024-11-13T01:40:38.192Z""","null","+","null","","","","","","",""
"","","","","","image-keyboard-response","401","454429","0.0-19.0-0.3-1.23","nap2qudnru","","nap2qudnru","""2024-11-13T01:40:38.192Z""","933","materials/imgs/D85.png","arrowleft","","[""materials/imgs/D51.png"",""materials/imgs/D25.png""]","false","random","","",""
"","","","","","html-keyboard-response","402","454930","0.0-19.0-0.3-0.24","nap2qudnru","","nap2qudnru","""2024-11-13T01:40:38.192Z""","null","+","null","","","","","","",""
"","","","","","image-keyboard-response","403","455922","0.0-19.0-0.3-1.24","nap2qudnru","","nap2qudnru","""2024-11-13T01:40:38.192Z""","991","materials/imgs/D49.png","arrowleft","","[""materials/imgs/D95.png"",""materials/imgs/D8.png""]","false","random","","",""
"","","","","","html-keyboard-response","404","456424","0.0-19.0-0.3-0.25","nap2qudnru","","nap2qudnru","""2024-11-13T01:40:38.192Z""","null","+","null","","","","","","",""
"","","","","","image-keyboard-response","405","458489","0.0-19.0-0.3-1.25","nap2qudnru","","nap2qudnru","""2024-11-13T01:40:38.192Z""","2064","materials/imgs/D24.png","arrowleft","","[""materials/imgs/D4.png"",""materials/imgs/D92.png""]","false","random","","",""
"","","","","","html-keyboard-response","406","458990","0.0-19.0-0.3-0.26","nap2qudnru","","nap2qudnru","""2024-11-13T01:40:38.192Z""","null","+","null","","","","","","",""
"","","","","","image-keyboard-response","407","461037","0.0-19.0-0.3-1.26","nap2qudnru","","nap2qudnru","""2024-11-13T01:40:38.192Z""","2045","materials/imgs/D52.png","arrowright","","[""materials/imgs/D75.png"",""materials/imgs/D66.png""]","false","random","","",""
"","","","","","html-keyboard-response","408","461538","0.0-19.0-0.3-0.27","nap2qudnru","","nap2qudnru","""2024-11-13T01:40:38.192Z""","null","+","null","","","","","","",""
"","","","","","image-keyboard-response","409","462802","0.0-19.0-0.3-1.27","nap2qudnru","","nap2qudnru","""2024-11-13T01:40:38.192Z""","1262","materials/imgs/D83.png","arrowleft","","[""materials/imgs/D9.png"",""materials/imgs/D57.png""]","false","random","","",""
"","","","","","html-keyboard-response","410","463303","0.0-19.0-1.3-0.3","nap2qudnru","","nap2qudnru","""2024-11-13T01:40:38.192Z""","null","+","null","","","","","","",""
"","","","","","image-keyboard-response","411","463941","0.0-19.0-1.3-1.3","nap2qudnru","","nap2qudnru","""2024-11-13T01:40:38.192Z""","637","materials/imgs/D46.png","arrowleft","","[""materials/imgs/D46.png"",""materials/imgs/D26.png""]","","check","materials/imgs/D46.png","0","true"
"","","","","","html-keyboard-response","412","464443","0.0-19.0-2.3-0.6","nap2qudnru","","nap2qudnru","""2024-11-13T01:40:38.192Z""","null","+","null","","","","","","",""
"","","","","","image-keyboard-response","413","465498","0.0-19.0-2.3-1.6","nap2qudnru","","nap2qudnru","""2024-11-13T01:40:38.192Z""","1055","materials/imgs/D4.png","arrowleft","","[""materials/imgs/D52.png"",""materials/imgs/D83.png""]","false","validation","","",""
"","","","","","html-keyboard-response","414","465999","0.0-19.0-2.3-0.7","nap2qudnru","","nap2qudnru","""2024-11-13T01:40:38.192Z""","null","+","null","","","","","","",""
"","","","","","image-keyboard-response","415","467185","0.0-19.0-2.3-1.7","nap2qudnru","","nap2qudnru","""2024-11-13T01:40:38.192Z""","1185","materials/imgs/D25.png","arrowright","","[""materials/imgs/D103.png"",""materials/imgs/D64.png""]","false","validation","","",""
"","","","","","html-keyboard-response","416","467687","0.0-19.0-0.4-0.28","nap2qudnru","","nap2qudnru","""2024-11-13T01:40:38.192Z""","null","+","null","","","","","","",""
"","","","","","image-keyboard-response","417","468484","0.0-19.0-0.4-1.28","nap2qudnru","","nap2qudnru","""2024-11-13T01:40:38.192Z""","797","materials/imgs/D19.png","arrowleft","","[""materials/imgs/D76.png"",""materials/imgs/D79.png""]","false","random","","",""
"","","","","","html-keyboard-response","418","468985","0.0-19.0-0.4-0.29","nap2qudnru","","nap2qudnru","""2024-11-13T01:40:38.192Z""","null","+","null","","","","","","",""
"","","","","","image-keyboard-response","419","470005","0.0-19.0-0.4-1.29","nap2qudnru","","nap2qudnru","""2024-11-13T01:40:38.192Z""","1019","materials/imgs/D18.png","arrowleft","","[""materials/imgs/D82.png"",""materials/imgs/D26.png""]","false","random","","",""
"","","","","","html-keyboard-response","420","470506","0.0-19.0-0.4-0.30","nap2qudnru","","nap2qudnru","""2024-11-13T01:40:38.192Z""","null","+","null","","","","","","",""
"","","","","","image-keyboard-response","421","471790","0.0-19.0-0.4-1.30","nap2qudnru","","nap2qudnru","""2024-11-13T01:40:38.192Z""","1284","materials/imgs/D84.png","arrowleft","","[""materials/imgs/D17.png"",""materials/imgs/D105.png""]","false","random","","",""
"","","","","","html-keyboard-response","422","472291","0.0-19.0-0.4-0.31","nap2qudnru","","nap2qudnru","""2024-11-13T01:40:38.192Z""","null","+","null","","","","","","",""
"","","","","","image-keyboard-response","423","472957","0.0-19.0-0.4-1.31","nap2qudnru","","nap2qudnru","""2024-11-13T01:40:38.192Z""","664","materials/imgs/D32.png","arrowright","","[""materials/imgs/D75.png"",""materials/imgs/D85.png""]","false","random","","",""
"","","","","","html-keyboard-response","424","473459","0.0-19.0-0.4-0.32","nap2qudnru","","nap2qudnru","""2024-11-13T01:40:38.192Z""","null","+","null","","","","","","",""
"","","","","","image-keyboard-response","425","474850","0.0-19.0-0.4-1.32","nap2qudnru","","nap2qudnru","""2024-11-13T01:40:38.192Z""","1391","materials/imgs/D65.png","arrowright","","[""materials/imgs/D14.png"",""materials/imgs/D64.png""]","false","random","","",""
"","","","","","html-keyboard-response","426","475351","0.0-19.0-0.4-0.33","nap2qudnru","","nap2qudnru","""2024-11-13T01:40:38.192Z""","null","+","null","","","","","","",""
"","","","","","image-keyboard-response","427","476119","0.0-19.0-0.4-1.33","nap2qudnru","","nap2qudnru","""2024-11-13T01:40:38.192Z""","767","materials/imgs/D36.png","arrowleft","","[""materials/imgs/D29.png"",""materials/imgs/D111.png""]","false","random","","",""
"","","","","","html-keyboard-response","428","476621","0.0-19.0-0.4-0.34","nap2qudnru","","nap2qudnru","""2024-11-13T01:40:38.192Z""","null","+","null","","","","","","",""
"","","","","","image-keyboard-response","429","478995","0.0-19.0-0.4-1.34","nap2qudnru","","nap2qudnru","""2024-11-13T01:40:38.192Z""","2373","materials/imgs/D21.png","arrowright","","[""materials/imgs/D106.png"",""materials/imgs/D17.png""]","false","random","","",""
"","","","","","html-keyboard-response","430","479496","0.0-19.0-1.4-0.4","nap2qudnru","","nap2qudnru","""2024-11-13T01:40:38.192Z""","null","+","null","","","","","","",""
"","","","","","image-keyboard-response","431","480112","0.0-19.0-1.4-1.4","nap2qudnru","","nap2qudnru","""2024-11-13T01:40:38.192Z""","615","materials/imgs/D78.png","arrowright","","[""materials/imgs/D76.png"",""materials/imgs/D78.png""]","","check","materials/imgs/D78.png","1","true"
"","","","","","html-keyboard-response","432","480613","0.0-19.0-2.4-0.8","nap2qudnru","","nap2qudnru","""2024-11-13T01:40:38.192Z""","null","+","null","","","","","","",""
"","","","","","image-keyboard-response","433","481314","0.0-19.0-2.4-1.8","nap2qudnru","","nap2qudnru","""2024-11-13T01:40:38.192Z""","701","materials/imgs/D32.png","arrowleft","","[""materials/imgs/D68.png"",""materials/imgs/D96.png""]","false","validation","","",""
"","","","","","html-keyboard-response","434","481815","0.0-19.0-2.4-0.9","nap2qudnru","","nap2qudnru","""2024-11-13T01:40:38.192Z""","null","+","null","","","","","","",""
"","","","","","image-keyboard-response","435","483113","0.0-19.0-2.4-1.9","nap2qudnru","","nap2qudnru","""2024-11-13T01:40:38.192Z""","1297","materials/imgs/D64.png","arrowright","","[""materials/imgs/D6.png"",""materials/imgs/D81.png""]","false","validation","","",""
