"success","timeout","failed_images","failed_audio","failed_video","trial_type","trial_index","time_elapsed","internal_node_id","subject_id","sona_id","subjectID","dateInfo","rt","stimulus","response","question_order","choices","speedy","sampleAlg","selected_image","selected_index","correct"
"true","false","[]","[]","[]","preload","0","1019","0.0-0.0","nrsrnfaqdl","","nrsrnfaqdl","""2024-11-13T16:08:57.037Z""","","","","","","","","","",""
"true","","","","","fullscreen","1","4874","0.0-1.0","nrsrnfaqdl","","nrsrnfaqdl","""2024-11-13T16:08:57.037Z""","","","","","","","","","",""
"","","","","","html-keyboard-response","2","4887","0.0-2.0","nrsrnfaqdl","","nrsrnfaqdl","""2024-11-13T16:08:57.037Z""","null","","null","","","","","","",""
"","","","","","html-button-response","3","40272","0.0-3.0","nrsrnfaqdl","","nrsrnfaqdl","""2024-11-13T16:08:57.037Z""","35383","<div style='text-align:center; font-size:20px; line-height:25px; width: 1200px;'>
                Welcome to our experiment! <br>
                <br>At the bottom of this screen, you will see a button that says 'Begin Experiment.
                <br>Please only click that button when you are ready to complete the 25 minute experiment in one sitting. <br>
                <br> Once you click that button, it will not be possible to restart the experiment. <br><br>","0","","","","","","",""
"true","","","","","fullscreen","4","45276","0.0-4.0","nrsrnfaqdl","","nrsrnfaqdl","""2024-11-13T16:08:57.037Z""","","","","","","","","","",""
"","","","","","survey-multi-select","5","77411","0.0-5.0","nrsrnfaqdl","","nrsrnfaqdl","""2024-11-13T16:08:57.037Z""","32132","","{""Consent"":[""<strong>I consent</strong>""]}","[0]","","","","","",""
"","","","","","html-button-response","6","88167","0.0-6.0","nrsrnfaqdl","","nrsrnfaqdl","""2024-11-13T16:08:57.037Z""","10755","Welcome! <p> This experiment involves two parts: demographic information, followed by the experimental task.<p> It will take about 25 minutes to complete both parts.","0","","","","","","",""
"","","","","","survey-text","7","96856","0.0-7.0","nrsrnfaqdl","","nrsrnfaqdl","""2024-11-13T16:08:57.037Z""","8686","","{""Age"":""18"",""Gender"":""Female"",""Race/ethnicity"":""White""}","","","","","","",""
"","","","","","html-button-response","8","111934","0.0-8.0","nrsrnfaqdl","","nrsrnfaqdl","""2024-11-13T16:08:57.037Z""","15077","<div style='text-align: center;'>
      <p>In each trial of this task, you will see three texture images: one target item on top, and two choices beneath the target item.</p>
      <p><strong>Please select the item that is most like the target item.</strong></p>
      <p>To select the option on the <strong>LEFT</strong>, press the <strong>LEFT ARROW</strong> key. 
      To select the option on the <strong>RIGHT</strong>, press the <strong>RIGHT ARROW</strong> key.</p>
                  <!-- Target Image at the Top -->
      <div style='margin: 20px;'>
        <img src='materials/imgs/instruction_images/InstructionImg1D78.png' alt='Target Image' style='width:200px; height:auto;' />
        <p><em>Target Image</em></p>
      </div>

      <!-- Two Choice Images Below -->
      <div style='display: flex; justify-content: center;'>
        <div style='margin-right: 50px;'>
          <img src='materials/imgs/instruction_images/InstructionImg2D34.png' alt='Choice Image 1' style='width:150px; height:auto;' />
          <p><em><strong>LEFT ARROW</strong></em></p>
        </div>
        <div style='margin-left: 50px;'>
          <img src='materials/imgs/instruction_images/InstructionImg3D80.png' alt='Choice Image 2' style='width:150px; height:auto;' />
          <p><em><strong>RIGHT ARROW</strong></em></p>
        </div>
      </div>
    </div>

      <p>When you are ready to proceed, please click 'Continue' to begin practice.</p>","0","","","","","","",""
"","","","","","html-keyboard-response","9","114438","0.0-9.0","nrsrnfaqdl","","nrsrnfaqdl","""2024-11-13T16:08:57.037Z""","null","+","null","","","","","","",""
"","","","","","html-keyboard-response","10","114938","0.0-10.0-0.0-0.0","nrsrnfaqdl","","nrsrnfaqdl","""2024-11-13T16:08:57.037Z""","null","+","null","","","","","","",""
"","","","","","image-keyboard-response","11","116898","0.0-10.0-0.0-1.0","nrsrnfaqdl","","nrsrnfaqdl","""2024-11-13T16:08:57.037Z""","1952","materials/imgs/D9.png","arrowright","","[""materials/imgs/D21.png"",""materials/imgs/D11.png""]","false","random","","",""
"","","","","","html-keyboard-response","12","117399","0.0-10.0-0.0-0.1","nrsrnfaqdl","","nrsrnfaqdl","""2024-11-13T16:08:57.037Z""","null","+","null","","","","","","",""
"","","","","","image-keyboard-response","13","119057","0.0-10.0-0.0-1.1","nrsrnfaqdl","","nrsrnfaqdl","""2024-11-13T16:08:57.037Z""","1657","materials/imgs/D85.png","arrowleft","","[""materials/imgs/D52.png"",""materials/imgs/D96.png""]","false","random","","",""
"","","","","","html-keyboard-response","14","119558","0.0-10.0-0.0-0.2","nrsrnfaqdl","","nrsrnfaqdl","""2024-11-13T16:08:57.037Z""","null","+","null","","","","","","",""
"","","","","","image-keyboard-response","15","121893","0.0-10.0-0.0-1.2","nrsrnfaqdl","","nrsrnfaqdl","""2024-11-13T16:08:57.037Z""","2333","materials/imgs/D47.png","arrowleft","","[""materials/imgs/D49.png"",""materials/imgs/D17.png""]","false","random","","",""
"","","","","","html-keyboard-response","16","122394","0.0-10.0-0.0-0.3","nrsrnfaqdl","","nrsrnfaqdl","""2024-11-13T16:08:57.037Z""","null","+","null","","","","","","",""
"","","","","","image-keyboard-response","17","124113","0.0-10.0-0.0-1.3","nrsrnfaqdl","","nrsrnfaqdl","""2024-11-13T16:08:57.037Z""","1718","materials/imgs/D57.png","arrowright","","[""materials/imgs/D20.png"",""materials/imgs/D75.png""]","false","random","","",""
"","","","","","html-keyboard-response","18","124615","0.0-10.0-0.0-0.4","nrsrnfaqdl","","nrsrnfaqdl","""2024-11-13T16:08:57.037Z""","null","+","null","","","","","","",""
"","","","","","image-keyboard-response","19","127306","0.0-10.0-0.0-1.4","nrsrnfaqdl","","nrsrnfaqdl","""2024-11-13T16:08:57.037Z""","2690","materials/imgs/D87.png","arrowleft","","[""materials/imgs/D35.png"",""materials/imgs/D68.png""]","false","random","","",""
"","","","","","html-keyboard-response","20","127807","0.0-10.0-0.0-0.5","nrsrnfaqdl","","nrsrnfaqdl","""2024-11-13T16:08:57.037Z""","null","+","null","","","","","","",""
"","","","","","image-keyboard-response","21","129603","0.0-10.0-0.0-1.5","nrsrnfaqdl","","nrsrnfaqdl","""2024-11-13T16:08:57.037Z""","1795","materials/imgs/D74.png","arrowleft","","[""materials/imgs/D84.png"",""materials/imgs/D57.png""]","false","random","","",""
"","","","","","html-keyboard-response","22","130105","0.0-10.0-0.0-0.6","nrsrnfaqdl","","nrsrnfaqdl","""2024-11-13T16:08:57.037Z""","null","+","null","","","","","","",""
"","","","","","image-keyboard-response","23","134804","0.0-10.0-0.0-1.6","nrsrnfaqdl","","nrsrnfaqdl","""2024-11-13T16:08:57.037Z""","4698","materials/imgs/D19.png","arrowright","","[""materials/imgs/D94.png"",""materials/imgs/D96.png""]","false","random","","",""
"","","","","","html-keyboard-response","24","135305","0.0-10.0-0.0-0.7","nrsrnfaqdl","","nrsrnfaqdl","""2024-11-13T16:08:57.037Z""","null","+","null","","","","","","",""
"","","","","","image-keyboard-response","25","136923","0.0-10.0-0.0-1.7","nrsrnfaqdl","","nrsrnfaqdl","""2024-11-13T16:08:57.037Z""","1617","materials/imgs/D103.png","arrowleft","","[""materials/imgs/D47.png"",""materials/imgs/D35.png""]","false","random","","",""
"","","","","","html-keyboard-response","26","137424","0.0-10.0-0.0-0.8","nrsrnfaqdl","","nrsrnfaqdl","""2024-11-13T16:08:57.037Z""","null","+","null","","","","","","",""
"","","","","","image-keyboard-response","27","138695","0.0-10.0-0.0-1.8","nrsrnfaqdl","","nrsrnfaqdl","""2024-11-13T16:08:57.037Z""","1270","materials/imgs/D84.png","arrowright","","[""materials/imgs/D94.png"",""materials/imgs/D21.png""]","false","random","","",""
"","","","","","html-keyboard-response","28","139197","0.0-10.0-0.0-0.9","nrsrnfaqdl","","nrsrnfaqdl","""2024-11-13T16:08:57.037Z""","null","+","null","","","","","","",""
"","","","","","image-keyboard-response","29","140218","0.0-10.0-0.0-1.9","nrsrnfaqdl","","nrsrnfaqdl","""2024-11-13T16:08:57.037Z""","1020","materials/imgs/D19.png","arrowleft","","[""materials/imgs/D29.png"",""materials/imgs/D8.png""]","false","random","","",""
"","","","","","html-button-response","30","145146","0.0-11.0","nrsrnfaqdl","","nrsrnfaqdl","""2024-11-13T16:08:57.037Z""","4927","<p>Great job!</p>
      <p>You are now ready to begin the experiment.</p>
      <p>There will be around 200 trials. You will have opportunities to take breaks at three stages of the trials.</p>
      <p>When you are ready to begin please click 'Continue'.</p>","0","","","","","","",""
"","","","","","html-keyboard-response","31","147648","0.0-12.0","nrsrnfaqdl","","nrsrnfaqdl","""2024-11-13T16:08:57.037Z""","null","+","null","","","","","","",""
"","","","","","html-keyboard-response","32","148149","0.0-13.0-0.0-0.0","nrsrnfaqdl","","nrsrnfaqdl","""2024-11-13T16:08:57.037Z""","null","+","null","","","","","","",""
"","","","","","image-keyboard-response","33","149051","0.0-13.0-0.0-1.0","nrsrnfaqdl","","nrsrnfaqdl","""2024-11-13T16:08:57.037Z""","901","materials/imgs/D14.png","arrowleft","","[""materials/imgs/D17.png"",""materials/imgs/D106.png""]","false","random","","",""
"","","","","","html-keyboard-response","34","149553","0.0-13.0-0.0-0.1","nrsrnfaqdl","","nrsrnfaqdl","""2024-11-13T16:08:57.037Z""","null","+","null","","","","","","",""
"","","","","","image-keyboard-response","35","150407","0.0-13.0-0.0-1.1","nrsrnfaqdl","","nrsrnfaqdl","""2024-11-13T16:08:57.037Z""","854","materials/imgs/D19.png","arrowright","","[""materials/imgs/D87.png"",""materials/imgs/D4.png""]","false","random","","",""
"","","","","","html-keyboard-response","36","150909","0.0-13.0-0.0-0.2","nrsrnfaqdl","","nrsrnfaqdl","""2024-11-13T16:08:57.037Z""","null","+","null","","","","","","",""
"","","","","","image-keyboard-response","37","152049","0.0-13.0-0.0-1.2","nrsrnfaqdl","","nrsrnfaqdl","""2024-11-13T16:08:57.037Z""","1139","materials/imgs/D16.png","arrowright","","[""materials/imgs/D52.png"",""materials/imgs/D104.png""]","false","random","","",""
"","","","","","html-keyboard-response","38","152550","0.0-13.0-0.0-0.3","nrsrnfaqdl","","nrsrnfaqdl","""2024-11-13T16:08:57.037Z""","null","+","null","","","","","","",""
"","","","","","image-keyboard-response","39","153619","0.0-13.0-0.0-1.3","nrsrnfaqdl","","nrsrnfaqdl","""2024-11-13T16:08:57.037Z""","1068","materials/imgs/D8.png","arrowleft","","[""materials/imgs/D52.png"",""materials/imgs/D81.png""]","false","random","","",""
"","","","","","html-keyboard-response","40","154120","0.0-13.0-0.0-0.4","nrsrnfaqdl","","nrsrnfaqdl","""2024-11-13T16:08:57.037Z""","null","+","null","","","","","","",""
"","","","","","image-keyboard-response","41","154944","0.0-13.0-0.0-1.4","nrsrnfaqdl","","nrsrnfaqdl","""2024-11-13T16:08:57.037Z""","823","materials/imgs/D14.png","arrowleft","","[""materials/imgs/D53.png"",""materials/imgs/D96.png""]","false","random","","",""
"","","","","","html-keyboard-response","42","155445","0.0-13.0-0.0-0.5","nrsrnfaqdl","","nrsrnfaqdl","""2024-11-13T16:08:57.037Z""","null","+","null","","","","","","",""
"","","","","","image-keyboard-response","43","156859","0.0-13.0-0.0-1.5","nrsrnfaqdl","","nrsrnfaqdl","""2024-11-13T16:08:57.037Z""","1414","materials/imgs/D101.png","arrowleft","","[""materials/imgs/D76.png"",""materials/imgs/D37.png""]","false","random","","",""
"","","","","","html-keyboard-response","44","157361","0.0-13.0-0.0-0.6","nrsrnfaqdl","","nrsrnfaqdl","""2024-11-13T16:08:57.037Z""","null","+","null","","","","","","",""
"","","","","","image-keyboard-response","45","159060","0.0-13.0-0.0-1.6","nrsrnfaqdl","","nrsrnfaqdl","""2024-11-13T16:08:57.037Z""","1698","materials/imgs/D1.png","arrowright","","[""materials/imgs/D92.png"",""materials/imgs/D87.png""]","false","random","","",""
"","","","","","html-keyboard-response","46","159562","0.0-13.0-1.0-0.0","nrsrnfaqdl","","nrsrnfaqdl","""2024-11-13T16:08:57.037Z""","null","+","null","","","","","","",""
"","","","","","image-keyboard-response","47","160213","0.0-13.0-1.0-1.0","nrsrnfaqdl","","nrsrnfaqdl","""2024-11-13T16:08:57.037Z""","650","materials/imgs/D101.png","arrowright","","[""materials/imgs/D106.png"",""materials/imgs/D101.png""]","","check","materials/imgs/D101.png","1","true"
"","","","","","html-keyboard-response","48","160714","0.0-13.0-2.0-0.0","nrsrnfaqdl","","nrsrnfaqdl","""2024-11-13T16:08:57.037Z""","null","+","null","","","","","","",""
"","","","","","image-keyboard-response","49","162031","0.0-13.0-2.0-1.0","nrsrnfaqdl","","nrsrnfaqdl","""2024-11-13T16:08:57.037Z""","1316","materials/imgs/D77.png","arrowright","","[""materials/imgs/D102.png"",""materials/imgs/D65.png""]","false","validation","","",""
"","","","","","html-keyboard-response","50","162533","0.0-13.0-2.0-0.1","nrsrnfaqdl","","nrsrnfaqdl","""2024-11-13T16:08:57.037Z""","null","+","null","","","","","","",""
"","","","","","image-keyboard-response","51","163501","0.0-13.0-2.0-1.1","nrsrnfaqdl","","nrsrnfaqdl","""2024-11-13T16:08:57.037Z""","967","materials/imgs/D85.png","arrowleft","","[""materials/imgs/D6.png"",""materials/imgs/D111.png""]","false","validation","","",""
"","","","","","html-keyboard-response","52","164002","0.0-13.0-0.1-0.7","nrsrnfaqdl","","nrsrnfaqdl","""2024-11-13T16:08:57.037Z""","null","+","null","","","","","","",""
"","","","","","image-keyboard-response","53","164741","0.0-13.0-0.1-1.7","nrsrnfaqdl","","nrsrnfaqdl","""2024-11-13T16:08:57.037Z""","737","materials/imgs/D32.png","arrowright","","[""materials/imgs/D34.png"",""materials/imgs/D4.png""]","false","random","","",""
"","","","","","html-keyboard-response","54","165243","0.0-13.0-0.1-0.8","nrsrnfaqdl","","nrsrnfaqdl","""2024-11-13T16:08:57.037Z""","null","+","null","","","","","","",""
"","","","","","image-keyboard-response","55","166021","0.0-13.0-0.1-1.8","nrsrnfaqdl","","nrsrnfaqdl","""2024-11-13T16:08:57.037Z""","778","materials/imgs/D55.png","arrowright","","[""materials/imgs/D101.png"",""materials/imgs/D36.png""]","false","random","","",""
"","","","","","html-keyboard-response","56","166523","0.0-13.0-0.1-0.9","nrsrnfaqdl","","nrsrnfaqdl","""2024-11-13T16:08:57.037Z""","null","+","null","","","","","","",""
"","","","","","image-keyboard-response","57","167379","0.0-13.0-0.1-1.9","nrsrnfaqdl","","nrsrnfaqdl","""2024-11-13T16:08:57.037Z""","854","materials/imgs/D74.png","arrowleft","","[""materials/imgs/D65.png"",""materials/imgs/D95.png""]","false","random","","",""
"","","","","","html-keyboard-response","58","167880","0.0-13.0-0.1-0.10","nrsrnfaqdl","","nrsrnfaqdl","""2024-11-13T16:08:57.037Z""","null","+","null","","","","","","",""
"","","","","","image-keyboard-response","59","169465","0.0-13.0-0.1-1.10","nrsrnfaqdl","","nrsrnfaqdl","""2024-11-13T16:08:57.037Z""","1583","materials/imgs/D47.png","arrowleft","","[""materials/imgs/D1.png"",""materials/imgs/D8.png""]","false","random","","",""
"","","","","","html-keyboard-response","60","169966","0.0-13.0-0.1-0.11","nrsrnfaqdl","","nrsrnfaqdl","""2024-11-13T16:08:57.037Z""","null","+","null","","","","","","",""
"","","","","","image-keyboard-response","61","171002","0.0-13.0-0.1-1.11","nrsrnfaqdl","","nrsrnfaqdl","""2024-11-13T16:08:57.037Z""","1036","materials/imgs/D106.png","arrowleft","","[""materials/imgs/D14.png"",""materials/imgs/D22.png""]","false","random","","",""
"","","","","","html-keyboard-response","62","171503","0.0-13.0-0.1-0.12","nrsrnfaqdl","","nrsrnfaqdl","""2024-11-13T16:08:57.037Z""","null","+","null","","","","","","",""
"","","","","","image-keyboard-response","63","172955","0.0-13.0-0.1-1.12","nrsrnfaqdl","","nrsrnfaqdl","""2024-11-13T16:08:57.037Z""","1450","materials/imgs/D87.png","arrowright","","[""materials/imgs/D102.png"",""materials/imgs/D26.png""]","false","random","","",""
"","","","","","html-keyboard-response","64","173456","0.0-13.0-0.1-0.13","nrsrnfaqdl","","nrsrnfaqdl","""2024-11-13T16:08:57.037Z""","null","+","null","","","","","","",""
"","","","","","image-keyboard-response","65","174085","0.0-13.0-0.1-1.13","nrsrnfaqdl","","nrsrnfaqdl","""2024-11-13T16:08:57.037Z""","628","materials/imgs/D78.png","arrowright","","[""materials/imgs/D18.png"",""materials/imgs/D16.png""]","false","random","","",""
"","","","","","html-keyboard-response","66","174586","0.0-13.0-1.1-0.1","nrsrnfaqdl","","nrsrnfaqdl","""2024-11-13T16:08:57.037Z""","null","+","null","","","","","","",""
"","","","","","image-keyboard-response","67","175425","0.0-13.0-1.1-1.1","nrsrnfaqdl","","nrsrnfaqdl","""2024-11-13T16:08:57.037Z""","839","materials/imgs/D18.png","arrowright","","[""materials/imgs/D8.png"",""materials/imgs/D18.png""]","","check","materials/imgs/D18.png","1","true"
"","","","","","html-keyboard-response","68","175927","0.0-13.0-2.1-0.2","nrsrnfaqdl","","nrsrnfaqdl","""2024-11-13T16:08:57.037Z""","null","+","null","","","","","","",""
"","","","","","image-keyboard-response","69","178808","0.0-13.0-2.1-1.2","nrsrnfaqdl","","nrsrnfaqdl","""2024-11-13T16:08:57.037Z""","2881","materials/imgs/D52.png","arrowleft","","[""materials/imgs/D9.png"",""materials/imgs/D19.png""]","false","validation","","",""
"","","","","","html-keyboard-response","70","179310","0.0-13.0-2.1-0.3","nrsrnfaqdl","","nrsrnfaqdl","""2024-11-13T16:08:57.037Z""","null","+","null","","","","","","",""
"","","","","","image-keyboard-response","71","180593","0.0-13.0-2.1-1.3","nrsrnfaqdl","","nrsrnfaqdl","""2024-11-13T16:08:57.037Z""","1282","materials/imgs/D106.png","arrowleft","","[""materials/imgs/D57.png"",""materials/imgs/D18.png""]","false","validation","","",""
"","","","","","html-keyboard-response","72","181095","0.0-13.0-0.2-0.14","nrsrnfaqdl","","nrsrnfaqdl","""2024-11-13T16:08:57.037Z""","null","+","null","","","","","","",""
"","","","","","image-keyboard-response","73","182162","0.0-13.0-0.2-1.14","nrsrnfaqdl","","nrsrnfaqdl","""2024-11-13T16:08:57.037Z""","1066","materials/imgs/D32.png","arrowright","","[""materials/imgs/D6.png"",""materials/imgs/D49.png""]","false","random","","",""
"","","","","","html-keyboard-response","74","182663","0.0-13.0-0.2-0.15","nrsrnfaqdl","","nrsrnfaqdl","""2024-11-13T16:08:57.037Z""","null","+","null","","","","","","",""
"","","","","","image-keyboard-response","75","184586","0.0-13.0-0.2-1.15","nrsrnfaqdl","","nrsrnfaqdl","""2024-11-13T16:08:57.037Z""","1922","materials/imgs/D49.png","arrowright","","[""materials/imgs/D103.png"",""materials/imgs/D17.png""]","false","random","","",""
"","","","","","html-keyboard-response","76","185088","0.0-13.0-0.2-0.16","nrsrnfaqdl","","nrsrnfaqdl","""2024-11-13T16:08:57.037Z""","null","+","null","","","","","","",""
"","","","","","image-keyboard-response","77","187067","0.0-13.0-0.2-1.16","nrsrnfaqdl","","nrsrnfaqdl","""2024-11-13T16:08:57.037Z""","1979","materials/imgs/D9.png","arrowleft","","[""materials/imgs/D81.png"",""materials/imgs/D111.png""]","false","random","","",""
"","","","","","html-keyboard-response","78","187569","0.0-13.0-0.2-0.17","nrsrnfaqdl","","nrsrnfaqdl","""2024-11-13T16:08:57.037Z""","null","+","null","","","","","","",""
"","","","","","image-keyboard-response","79","188489","0.0-13.0-0.2-1.17","nrsrnfaqdl","","nrsrnfaqdl","""2024-11-13T16:08:57.037Z""","919","materials/imgs/D75.png","arrowleft","","[""materials/imgs/D74.png"",""materials/imgs/D18.png""]","false","random","","",""
"","","","","","html-keyboard-response","80","188991","0.0-13.0-0.2-0.18","nrsrnfaqdl","","nrsrnfaqdl","""2024-11-13T16:08:57.037Z""","null","+","null","","","","","","",""
"","","","","","image-keyboard-response","81","190080","0.0-13.0-0.2-1.18","nrsrnfaqdl","","nrsrnfaqdl","""2024-11-13T16:08:57.037Z""","1087","materials/imgs/D75.png","arrowright","","[""materials/imgs/D16.png"",""materials/imgs/D104.png""]","false","random","","",""
"","","","","","html-keyboard-response","82","190581","0.0-13.0-0.2-0.19","nrsrnfaqdl","","nrsrnfaqdl","""2024-11-13T16:08:57.037Z""","null","+","null","","","","","","",""
"","","","","","image-keyboard-response","83","191314","0.0-13.0-0.2-1.19","nrsrnfaqdl","","nrsrnfaqdl","""2024-11-13T16:08:57.037Z""","731","materials/imgs/D35.png","arrowleft","","[""materials/imgs/D36.png"",""materials/imgs/D14.png""]","false","random","","",""
"","","","","","html-keyboard-response","84","191816","0.0-13.0-0.2-0.20","nrsrnfaqdl","","nrsrnfaqdl","""2024-11-13T16:08:57.037Z""","null","+","null","","","","","","",""
"","","","","","image-keyboard-response","85","192704","0.0-13.0-0.2-1.20","nrsrnfaqdl","","nrsrnfaqdl","""2024-11-13T16:08:57.037Z""","887","materials/imgs/D75.png","arrowright","","[""materials/imgs/D94.png"",""materials/imgs/D82.png""]","false","random","","",""
"","","","","","html-keyboard-response","86","193205","0.0-13.0-1.2-0.2","nrsrnfaqdl","","nrsrnfaqdl","""2024-11-13T16:08:57.037Z""","null","+","null","","","","","","",""
"","","","","","image-keyboard-response","87","193751","0.0-13.0-1.2-1.2","nrsrnfaqdl","","nrsrnfaqdl","""2024-11-13T16:08:57.037Z""","545","materials/imgs/D101.png","arrowright","","[""materials/imgs/D106.png"",""materials/imgs/D101.png""]","","check","materials/imgs/D101.png","1","true"
"","","","","","html-keyboard-response","88","194251","0.0-13.0-2.2-0.4","nrsrnfaqdl","","nrsrnfaqdl","""2024-11-13T16:08:57.037Z""","null","+","null","","","","","","",""
"","","","","","image-keyboard-response","89","194987","0.0-13.0-2.2-1.4","nrsrnfaqdl","","nrsrnfaqdl","""2024-11-13T16:08:57.037Z""","735","materials/imgs/D22.png","arrowleft","","[""materials/imgs/D4.png"",""materials/imgs/D25.png""]","false","validation","","",""
"","","","","","html-keyboard-response","90","195489","0.0-13.0-2.2-0.5","nrsrnfaqdl","","nrsrnfaqdl","""2024-11-13T16:08:57.037Z""","null","+","null","","","","","","",""
"","","","","","image-keyboard-response","91","196690","0.0-13.0-2.2-1.5","nrsrnfaqdl","","nrsrnfaqdl","""2024-11-13T16:08:57.037Z""","1200","materials/imgs/D6.png","arrowleft","","[""materials/imgs/D26.png"",""materials/imgs/D76.png""]","false","validation","","",""
"","","","","","html-keyboard-response","92","197190","0.0-13.0-0.3-0.21","nrsrnfaqdl","","nrsrnfaqdl","""2024-11-13T16:08:57.037Z""","null","+","null","","","","","","",""
"","","","","","image-keyboard-response","93","198406","0.0-13.0-0.3-1.21","nrsrnfaqdl","","nrsrnfaqdl","""2024-11-13T16:08:57.037Z""","1215","materials/imgs/D1.png","arrowright","","[""materials/imgs/D32.png"",""materials/imgs/D77.png""]","false","random","","",""
"","","","","","html-keyboard-response","94","198907","0.0-13.0-0.3-0.22","nrsrnfaqdl","","nrsrnfaqdl","""2024-11-13T16:08:57.037Z""","null","+","null","","","","","","",""
"","","","","","image-keyboard-response","95","200324","0.0-13.0-0.3-1.22","nrsrnfaqdl","","nrsrnfaqdl","""2024-11-13T16:08:57.037Z""","1415","materials/imgs/D95.png","arrowleft","","[""materials/imgs/D6.png"",""materials/imgs/D17.png""]","false","random","","",""
"","","","","","html-keyboard-response","96","200825","0.0-13.0-0.3-0.23","nrsrnfaqdl","","nrsrnfaqdl","""2024-11-13T16:08:57.037Z""","null","+","null","","","","","","",""
"","","","","","image-keyboard-response","97","201837","0.0-13.0-0.3-1.23","nrsrnfaqdl","","nrsrnfaqdl","""2024-11-13T16:08:57.037Z""","1011","materials/imgs/D101.png","arrowleft","","[""materials/imgs/D105.png"",""materials/imgs/D95.png""]","false","random","","",""
"","","","","","html-keyboard-response","98","202338","0.0-13.0-0.3-0.24","nrsrnfaqdl","","nrsrnfaqdl","""2024-11-13T16:08:57.037Z""","null","+","null","","","","","","",""
"","","","","","image-keyboard-response","99","203002","0.0-13.0-0.3-1.24","nrsrnfaqdl","","nrsrnfaqdl","""2024-11-13T16:08:57.037Z""","662","materials/imgs/D52.png","arrowright","","[""materials/imgs/D111.png"",""materials/imgs/D55.png""]","false","random","","",""
"","","","","","html-keyboard-response","100","203503","0.0-13.0-0.3-0.25","nrsrnfaqdl","","nrsrnfaqdl","""2024-11-13T16:08:57.037Z""","null","+","null","","","","","","",""
"","","","","","image-keyboard-response","101","204387","0.0-13.0-0.3-1.25","nrsrnfaqdl","","nrsrnfaqdl","""2024-11-13T16:08:57.037Z""","882","materials/imgs/D20.png","arrowleft","","[""materials/imgs/D49.png"",""materials/imgs/D47.png""]","false","random","","",""
"","","","","","html-keyboard-response","102","204887","0.0-13.0-0.3-0.26","nrsrnfaqdl","","nrsrnfaqdl","""2024-11-13T16:08:57.037Z""","null","+","null","","","","","","",""
"","","","","","image-keyboard-response","103","205662","0.0-13.0-0.3-1.26","nrsrnfaqdl","","nrsrnfaqdl","""2024-11-13T16:08:57.037Z""","774","materials/imgs/D21.png","arrowright","","[""materials/imgs/D18.png"",""materials/imgs/D32.png""]","false","random","","",""
"","","","","","html-keyboard-response","104","206164","0.0-13.0-0.3-0.27","nrsrnfaqdl","","nrsrnfaqdl","""2024-11-13T16:08:57.037Z""","null","+","null","","","","","","",""
"","","","","","image-keyboard-response","105","207155","0.0-13.0-0.3-1.27","nrsrnfaqdl","","nrsrnfaqdl","""2024-11-13T16:08:57.037Z""","990","materials/imgs/D26.png","arrowright","","[""materials/imgs/D84.png"",""materials/imgs/D82.png""]","false","random","","",""
"","","","","","html-keyboard-response","106","207656","0.0-13.0-1.3-0.3","nrsrnfaqdl","","nrsrnfaqdl","""2024-11-13T16:08:57.037Z""","null","+","null","","","","","","",""
"","","","","","image-keyboard-response","107","208305","0.0-13.0-1.3-1.3","nrsrnfaqdl","","nrsrnfaqdl","""2024-11-13T16:08:57.037Z""","648","materials/imgs/D64.png","arrowleft","","[""materials/imgs/D64.png"",""materials/imgs/D53.png""]","","check","materials/imgs/D64.png","0","true"
"","","","","","html-keyboard-response","108","208806","0.0-13.0-2.3-0.6","nrsrnfaqdl","","nrsrnfaqdl","""2024-11-13T16:08:57.037Z""","null","+","null","","","","","","",""
"","","","","","image-keyboard-response","109","209667","0.0-13.0-2.3-1.6","nrsrnfaqdl","","nrsrnfaqdl","""2024-11-13T16:08:57.037Z""","859","materials/imgs/D95.png","arrowleft","","[""materials/imgs/D36.png"",""materials/imgs/D4.png""]","false","validation","","",""
"","","","","","html-keyboard-response","110","210167","0.0-13.0-2.3-0.7","nrsrnfaqdl","","nrsrnfaqdl","""2024-11-13T16:08:57.037Z""","null","+","null","","","","","","",""
"","","","","","image-keyboard-response","111","210917","0.0-13.0-2.3-1.7","nrsrnfaqdl","","nrsrnfaqdl","""2024-11-13T16:08:57.037Z""","749","materials/imgs/D79.png","arrowright","","[""materials/imgs/D51.png"",""materials/imgs/D64.png""]","false","validation","","",""
"","","","","","html-keyboard-response","112","211419","0.0-13.0-0.4-0.28","nrsrnfaqdl","","nrsrnfaqdl","""2024-11-13T16:08:57.037Z""","null","+","null","","","","","","",""
"","","","","","image-keyboard-response","113","212216","0.0-13.0-0.4-1.28","nrsrnfaqdl","","nrsrnfaqdl","""2024-11-13T16:08:57.037Z""","797","materials/imgs/D79.png","arrowright","","[""materials/imgs/D52.png"",""materials/imgs/D16.png""]","false","random","","",""
"","","","","","html-keyboard-response","114","212718","0.0-13.0-0.4-0.29","nrsrnfaqdl","","nrsrnfaqdl","""2024-11-13T16:08:57.037Z""","null","+","null","","","","","","",""
"","","","","","image-keyboard-response","115","213464","0.0-13.0-0.4-1.29","nrsrnfaqdl","","nrsrnfaqdl","""2024-11-13T16:08:57.037Z""","745","materials/imgs/D111.png","arrowright","","[""materials/imgs/D8.png"",""materials/imgs/D29.png""]","false","random","","",""
"","","","","","html-keyboard-response","116","213965","0.0-13.0-0.4-0.30","nrsrnfaqdl","","nrsrnfaqdl","""2024-11-13T16:08:57.037Z""","null","+","null","","","","","","",""
"","","","","","image-keyboard-response","117","214721","0.0-13.0-0.4-1.30","nrsrnfaqdl","","nrsrnfaqdl","""2024-11-13T16:08:57.037Z""","754","materials/imgs/D81.png","arrowright","","[""materials/imgs/D65.png"",""materials/imgs/D92.png""]","false","random","","",""
"","","","","","html-keyboard-response","118","215222","0.0-13.0-0.4-0.31","nrsrnfaqdl","","nrsrnfaqdl","""2024-11-13T16:08:57.037Z""","null","+","null","","","","","","",""
"","","","","","image-keyboard-response","119","215812","0.0-13.0-0.4-1.31","nrsrnfaqdl","","nrsrnfaqdl","""2024-11-13T16:08:57.037Z""","589","materials/imgs/D9.png","arrowleft","","[""materials/imgs/D80.png"",""materials/imgs/D37.png""]","false","random","","",""
"","","","","","html-keyboard-response","120","216314","0.0-13.0-0.4-0.32","nrsrnfaqdl","","nrsrnfaqdl","""2024-11-13T16:08:57.037Z""","null","+","null","","","","","","",""
"","","","","","image-keyboard-response","121","217182","0.0-13.0-0.4-1.32","nrsrnfaqdl","","nrsrnfaqdl","""2024-11-13T16:08:57.037Z""","867","materials/imgs/D64.png","arrowleft","","[""materials/imgs/D19.png"",""materials/imgs/D83.png""]","false","random","","",""
"","","","","","html-keyboard-response","122","217684","0.0-13.0-0.4-0.33","nrsrnfaqdl","","nrsrnfaqdl","""2024-11-13T16:08:57.037Z""","null","+","null","","","","","","",""
"","","","","","image-keyboard-response","123","218673","0.0-13.0-0.4-1.33","nrsrnfaqdl","","nrsrnfaqdl","""2024-11-13T16:08:57.037Z""","988","materials/imgs/D83.png","arrowleft","","[""materials/imgs/D55.png"",""materials/imgs/D84.png""]","false","random","","",""
"","","","","","html-keyboard-response","124","219173","0.0-13.0-0.4-0.34","nrsrnfaqdl","","nrsrnfaqdl","""2024-11-13T16:08:57.037Z""","null","+","null","","","","","","",""
"","","","","","image-keyboard-response","125","219994","0.0-13.0-0.4-1.34","nrsrnfaqdl","","nrsrnfaqdl","""2024-11-13T16:08:57.037Z""","820","materials/imgs/D34.png","arrowleft","","[""materials/imgs/D22.png"",""materials/imgs/D92.png""]","false","random","","",""
"","","","","","html-keyboard-response","126","220496","0.0-13.0-1.4-0.4","nrsrnfaqdl","","nrsrnfaqdl","""2024-11-13T16:08:57.037Z""","null","+","null","","","","","","",""
"","","","","","image-keyboard-response","127","220993","0.0-13.0-1.4-1.4","nrsrnfaqdl","","nrsrnfaqdl","""2024-11-13T16:08:57.037Z""","497","materials/imgs/D101.png","arrowright","","[""materials/imgs/D106.png"",""materials/imgs/D101.png""]","","check","materials/imgs/D101.png","1","true"
"","","","","","html-keyboard-response","128","221495","0.0-13.0-2.4-0.8","nrsrnfaqdl","","nrsrnfaqdl","""2024-11-13T16:08:57.037Z""","null","+","null","","","","","","",""
"","","","","","image-keyboard-response","129","222645","0.0-13.0-2.4-1.8","nrsrnfaqdl","","nrsrnfaqdl","""2024-11-13T16:08:57.037Z""","1149","materials/imgs/D16.png","arrowleft","","[""materials/imgs/D52.png"",""materials/imgs/D25.png""]","false","validation","","",""
"","","","","","html-keyboard-response","130","223147","0.0-13.0-2.4-0.9","nrsrnfaqdl","","nrsrnfaqdl","""2024-11-13T16:08:57.037Z""","null","+","null","","","","","","",""
"","","","","","image-keyboard-response","131","223808","0.0-13.0-2.4-1.9","nrsrnfaqdl","","nrsrnfaqdl","""2024-11-13T16:08:57.037Z""","661","materials/imgs/D32.png","arrowleft","","[""materials/imgs/D68.png"",""materials/imgs/D96.png""]","false","validation","","",""
"","","","","","html-button-response","132","226357","0.0-14.0","nrsrnfaqdl","","nrsrnfaqdl","""2024-11-13T16:08:57.037Z""","2548","You have completed 25% of the trials. Please click 'Continue' when you are ready proceed.","0","","","","","","",""
"","","","","","html-keyboard-response","133","226858","0.0-15.0-0.0-0.0","nrsrnfaqdl","","nrsrnfaqdl","""2024-11-13T16:08:57.037Z""","null","+","null","","","","","","",""
"","","","","","image-keyboard-response","134","227802","0.0-15.0-0.0-1.0","nrsrnfaqdl","","nrsrnfaqdl","""2024-11-13T16:08:57.037Z""","943","materials/imgs/D83.png","arrowleft","","[""materials/imgs/D11.png"",""materials/imgs/D111.png""]","false","random","","",""
"","","","","","html-keyboard-response","135","228303","0.0-15.0-0.0-0.1","nrsrnfaqdl","","nrsrnfaqdl","""2024-11-13T16:08:57.037Z""","null","+","null","","","","","","",""
"","","","","","image-keyboard-response","136","229171","0.0-15.0-0.0-1.1","nrsrnfaqdl","","nrsrnfaqdl","""2024-11-13T16:08:57.037Z""","867","materials/imgs/D87.png","arrowright","","[""materials/imgs/D94.png"",""materials/imgs/D105.png""]","false","random","","",""
"","","","","","html-keyboard-response","137","229673","0.0-15.0-0.0-0.2","nrsrnfaqdl","","nrsrnfaqdl","""2024-11-13T16:08:57.037Z""","null","+","null","","","","","","",""
"","","","","","image-keyboard-response","138","230548","0.0-15.0-0.0-1.2","nrsrnfaqdl","","nrsrnfaqdl","""2024-11-13T16:08:57.037Z""","874","materials/imgs/D53.png","arrowleft","","[""materials/imgs/D76.png"",""materials/imgs/D80.png""]","false","random","","",""
"","","","","","html-keyboard-response","139","231049","0.0-15.0-0.0-0.3","nrsrnfaqdl","","nrsrnfaqdl","""2024-11-13T16:08:57.037Z""","null","+","null","","","","","","",""
"","","","","","image-keyboard-response","140","231990","0.0-15.0-0.0-1.3","nrsrnfaqdl","","nrsrnfaqdl","""2024-11-13T16:08:57.037Z""","939","materials/imgs/D94.png","arrowright","","[""materials/imgs/D85.png"",""materials/imgs/D3.png""]","false","random","","",""
"","","","","","html-keyboard-response","141","232491","0.0-15.0-0.0-0.4","nrsrnfaqdl","","nrsrnfaqdl","""2024-11-13T16:08:57.037Z""","null","+","null","","","","","","",""
"","","","","","image-keyboard-response","142","233388","0.0-15.0-0.0-1.4","nrsrnfaqdl","","nrsrnfaqdl","""2024-11-13T16:08:57.037Z""","896","materials/imgs/D106.png","arrowleft","","[""materials/imgs/D36.png"",""materials/imgs/D16.png""]","false","random","","",""
"","","","","","html-keyboard-response","143","233889","0.0-15.0-0.0-0.5","nrsrnfaqdl","","nrsrnfaqdl","""2024-11-13T16:08:57.037Z""","null","+","null","","","","","","",""
"","","","","","image-keyboard-response","144","234760","0.0-15.0-0.0-1.5","nrsrnfaqdl","","nrsrnfaqdl","""2024-11-13T16:08:57.037Z""","870","materials/imgs/D96.png","arrowleft","","[""materials/imgs/D36.png"",""materials/imgs/D92.png""]","false","random","","",""
"","","","","","html-keyboard-response","145","235261","0.0-15.0-0.0-0.6","nrsrnfaqdl","","nrsrnfaqdl","""2024-11-13T16:08:57.037Z""","null","+","null","","","","","","",""
"","","","","","image-keyboard-response","146","235819","0.0-15.0-0.0-1.6","nrsrnfaqdl","","nrsrnfaqdl","""2024-11-13T16:08:57.037Z""","556","materials/imgs/D65.png","arrowleft","","[""materials/imgs/D66.png"",""materials/imgs/D6.png""]","false","random","","",""
"","","","","","html-keyboard-response","147","236321","0.0-15.0-1.0-0.0","nrsrnfaqdl","","nrsrnfaqdl","""2024-11-13T16:08:57.037Z""","null","+","null","","","","","","",""
"","","","","","image-keyboard-response","148","236863","0.0-15.0-1.0-1.0","nrsrnfaqdl","","nrsrnfaqdl","""2024-11-13T16:08:57.037Z""","542","materials/imgs/D106.png","arrowleft","","[""materials/imgs/D106.png"",""materials/imgs/D101.png""]","","check","materials/imgs/D106.png","0","true"
"","","","","","html-keyboard-response","149","237365","0.0-15.0-2.0-0.0","nrsrnfaqdl","","nrsrnfaqdl","""2024-11-13T16:08:57.037Z""","null","+","null","","","","","","",""
"","","","","","image-keyboard-response","150","238525","0.0-15.0-2.0-1.0","nrsrnfaqdl","","nrsrnfaqdl","""2024-11-13T16:08:57.037Z""","1159","materials/imgs/D103.png","arrowright","","[""materials/imgs/D76.png"",""materials/imgs/D106.png""]","false","validation","","",""
"","","","","","html-keyboard-response","151","239026","0.0-15.0-2.0-0.1","nrsrnfaqdl","","nrsrnfaqdl","""2024-11-13T16:08:57.037Z""","null","+","null","","","","","","",""
"","","","","","image-keyboard-response","152","239909","0.0-15.0-2.0-1.1","nrsrnfaqdl","","nrsrnfaqdl","""2024-11-13T16:08:57.037Z""","882","materials/imgs/D102.png","arrowright","","[""materials/imgs/D32.png"",""materials/imgs/D111.png""]","false","validation","","",""
"","","","","","html-keyboard-response","153","240411","0.0-15.0-0.1-0.7","nrsrnfaqdl","","nrsrnfaqdl","""2024-11-13T16:08:57.037Z""","null","+","null","","","","","","",""
"","","","","","image-keyboard-response","154","241218","0.0-15.0-0.1-1.7","nrsrnfaqdl","","nrsrnfaqdl","""2024-11-13T16:08:57.037Z""","807","materials/imgs/D79.png","arrowleft","","[""materials/imgs/D106.png"",""materials/imgs/D14.png""]","false","random","","",""
"","","","","","html-keyboard-response","155","241719","0.0-15.0-0.1-0.8","nrsrnfaqdl","","nrsrnfaqdl","""2024-11-13T16:08:57.037Z""","null","+","null","","","","","","",""
"","","","","","image-keyboard-response","156","243014","0.0-15.0-0.1-1.8","nrsrnfaqdl","","nrsrnfaqdl","""2024-11-13T16:08:57.037Z""","1294","materials/imgs/D84.png","arrowleft","","[""materials/imgs/D16.png"",""materials/imgs/D22.png""]","false","random","","",""
"","","","","","html-keyboard-response","157","243515","0.0-15.0-0.1-0.9","nrsrnfaqdl","","nrsrnfaqdl","""2024-11-13T16:08:57.037Z""","null","+","null","","","","","","",""
"","","","","","image-keyboard-response","158","244748","0.0-15.0-0.1-1.9","nrsrnfaqdl","","nrsrnfaqdl","""2024-11-13T16:08:57.037Z""","1232","materials/imgs/D22.png","arrowright","","[""materials/imgs/D46.png"",""materials/imgs/D34.png""]","false","random","","",""
"","","","","","html-keyboard-response","159","245250","0.0-15.0-0.1-0.10","nrsrnfaqdl","","nrsrnfaqdl","""2024-11-13T16:08:57.037Z""","null","+","null","","","","","","",""
"","","","","","image-keyboard-response","160","246659","0.0-15.0-0.1-1.10","nrsrnfaqdl","","nrsrnfaqdl","""2024-11-13T16:08:57.037Z""","1408","materials/imgs/D85.png","arrowright","","[""materials/imgs/D111.png"",""materials/imgs/D66.png""]","false","random","","",""
"","","","","","html-keyboard-response","161","247160","0.0-15.0-0.1-0.11","nrsrnfaqdl","","nrsrnfaqdl","""2024-11-13T16:08:57.037Z""","null","+","null","","","","","","",""
"","","","","","image-keyboard-response","162","248284","0.0-15.0-0.1-1.11","nrsrnfaqdl","","nrsrnfaqdl","""2024-11-13T16:08:57.037Z""","1123","materials/imgs/D82.png","arrowright","","[""materials/imgs/D76.png"",""materials/imgs/D52.png""]","false","random","","",""
"","","","","","html-keyboard-response","163","248785","0.0-15.0-0.1-0.12","nrsrnfaqdl","","nrsrnfaqdl","""2024-11-13T16:08:57.037Z""","null","+","null","","","","","","",""
"","","","","","image-keyboard-response","164","250515","0.0-15.0-0.1-1.12","nrsrnfaqdl","","nrsrnfaqdl","""2024-11-13T16:08:57.037Z""","1728","materials/imgs/D11.png","arrowleft","","[""materials/imgs/D101.png"",""materials/imgs/D9.png""]","false","random","","",""
"","","","","","html-keyboard-response","165","251017","0.0-15.0-0.1-0.13","nrsrnfaqdl","","nrsrnfaqdl","""2024-11-13T16:08:57.037Z""","null","+","null","","","","","","",""
"","","","","","image-keyboard-response","166","252010","0.0-15.0-0.1-1.13","nrsrnfaqdl","","nrsrnfaqdl","""2024-11-13T16:08:57.037Z""","992","materials/imgs/D82.png","arrowleft","","[""materials/imgs/D101.png"",""materials/imgs/D49.png""]","false","random","","",""
"","","","","","html-keyboard-response","167","252512","0.0-15.0-1.1-0.1","nrsrnfaqdl","","nrsrnfaqdl","""2024-11-13T16:08:57.037Z""","null","+","null","","","","","","",""
"","","","","","image-keyboard-response","168","253070","0.0-15.0-1.1-1.1","nrsrnfaqdl","","nrsrnfaqdl","""2024-11-13T16:08:57.037Z""","557","materials/imgs/D101.png","arrowright","","[""materials/imgs/D106.png"",""materials/imgs/D101.png""]","","check","materials/imgs/D101.png","1","true"
"","","","","","html-keyboard-response","169","253572","0.0-15.0-2.1-0.2","nrsrnfaqdl","","nrsrnfaqdl","""2024-11-13T16:08:57.037Z""","null","+","null","","","","","","",""
"","","","","","image-keyboard-response","170","254818","0.0-15.0-2.1-1.2","nrsrnfaqdl","","nrsrnfaqdl","""2024-11-13T16:08:57.037Z""","1241","materials/imgs/D82.png","arrowleft","","[""materials/imgs/D83.png"",""materials/imgs/D22.png""]","false","validation","","",""
"","","","","","html-keyboard-response","171","255319","0.0-15.0-2.1-0.3","nrsrnfaqdl","","nrsrnfaqdl","""2024-11-13T16:08:57.037Z""","null","+","null","","","","","","",""
"","","","","","image-keyboard-response","172","256147","0.0-15.0-2.1-1.3","nrsrnfaqdl","","nrsrnfaqdl","""2024-11-13T16:08:57.037Z""","827","materials/imgs/D36.png","arrowright","","[""materials/imgs/D47.png"",""materials/imgs/D49.png""]","false","validation","","",""
"","","","","","html-keyboard-response","173","256647","0.0-15.0-0.2-0.14","nrsrnfaqdl","","nrsrnfaqdl","""2024-11-13T16:08:57.037Z""","null","+","null","","","","","","",""
"","","","","","image-keyboard-response","174","257398","0.0-15.0-0.2-1.14","nrsrnfaqdl","","nrsrnfaqdl","""2024-11-13T16:08:57.037Z""","750","materials/imgs/D82.png","arrowright","","[""materials/imgs/D77.png"",""materials/imgs/D53.png""]","false","random","","",""
"","","","","","html-keyboard-response","175","257900","0.0-15.0-0.2-0.15","nrsrnfaqdl","","nrsrnfaqdl","""2024-11-13T16:08:57.037Z""","null","+","null","","","","","","",""
"","","","","","image-keyboard-response","176","258975","0.0-15.0-0.2-1.15","nrsrnfaqdl","","nrsrnfaqdl","""2024-11-13T16:08:57.037Z""","1073","materials/imgs/D36.png","arrowleft","","[""materials/imgs/D34.png"",""materials/imgs/D52.png""]","false","random","","",""
"","","","","","html-keyboard-response","177","259477","0.0-15.0-0.2-0.16","nrsrnfaqdl","","nrsrnfaqdl","""2024-11-13T16:08:57.037Z""","null","+","null","","","","","","",""
"","","","","","image-keyboard-response","178","260420","0.0-15.0-0.2-1.16","nrsrnfaqdl","","nrsrnfaqdl","""2024-11-13T16:08:57.037Z""","942","materials/imgs/D24.png","arrowleft","","[""materials/imgs/D52.png"",""materials/imgs/D22.png""]","false","random","","",""
"","","","","","html-keyboard-response","179","260922","0.0-15.0-0.2-0.17","nrsrnfaqdl","","nrsrnfaqdl","""2024-11-13T16:08:57.037Z""","null","+","null","","","","","","",""
"","","","","","image-keyboard-response","180","261666","0.0-15.0-0.2-1.17","nrsrnfaqdl","","nrsrnfaqdl","""2024-11-13T16:08:57.037Z""","743","materials/imgs/D77.png","arrowright","","[""materials/imgs/D82.png"",""materials/imgs/D105.png""]","false","random","","",""
"","","","","","html-keyboard-response","181","262168","0.0-15.0-0.2-0.18","nrsrnfaqdl","","nrsrnfaqdl","""2024-11-13T16:08:57.037Z""","null","+","null","","","","","","",""
"","","","","","image-keyboard-response","182","263104","0.0-15.0-0.2-1.18","nrsrnfaqdl","","nrsrnfaqdl","""2024-11-13T16:08:57.037Z""","935","materials/imgs/D102.png","arrowright","","[""materials/imgs/D32.png"",""materials/imgs/D65.png""]","false","random","","",""
"","","","","","html-keyboard-response","183","263605","0.0-15.0-0.2-0.19","nrsrnfaqdl","","nrsrnfaqdl","""2024-11-13T16:08:57.037Z""","null","+","null","","","","","","",""
"","","","","","image-keyboard-response","184","264247","0.0-15.0-0.2-1.19","nrsrnfaqdl","","nrsrnfaqdl","""2024-11-13T16:08:57.037Z""","640","materials/imgs/D19.png","arrowleft","","[""materials/imgs/D9.png"",""materials/imgs/D66.png""]","false","random","","",""
"","","","","","html-keyboard-response","185","264748","0.0-15.0-0.2-0.20","nrsrnfaqdl","","nrsrnfaqdl","""2024-11-13T16:08:57.037Z""","null","+","null","","","","","","",""
"","","","","","image-keyboard-response","186","265571","0.0-15.0-0.2-1.20","nrsrnfaqdl","","nrsrnfaqdl","""2024-11-13T16:08:57.037Z""","822","materials/imgs/D81.png","arrowleft","","[""materials/imgs/D64.png"",""materials/imgs/D37.png""]","false","random","","",""
"","","","","","html-keyboard-response","187","266073","0.0-15.0-1.2-0.2","nrsrnfaqdl","","nrsrnfaqdl","""2024-11-13T16:08:57.037Z""","null","+","null","","","","","","",""
"","","","","","image-keyboard-response","188","266621","0.0-15.0-1.2-1.2","nrsrnfaqdl","","nrsrnfaqdl","""2024-11-13T16:08:57.037Z""","547","materials/imgs/D78.png","arrowright","","[""materials/imgs/D76.png"",""materials/imgs/D78.png""]","","check","materials/imgs/D78.png","1","true"
"","","","","","html-keyboard-response","189","267123","0.0-15.0-2.2-0.4","nrsrnfaqdl","","nrsrnfaqdl","""2024-11-13T16:08:57.037Z""","null","+","null","","","","","","",""
"","","","","","image-keyboard-response","190","267832","0.0-15.0-2.2-1.4","nrsrnfaqdl","","nrsrnfaqdl","""2024-11-13T16:08:57.037Z""","708","materials/imgs/D111.png","arrowleft","","[""materials/imgs/D82.png"",""materials/imgs/D95.png""]","false","validation","","",""
"","","","","","html-keyboard-response","191","268332","0.0-15.0-2.2-0.5","nrsrnfaqdl","","nrsrnfaqdl","""2024-11-13T16:08:57.037Z""","null","+","null","","","","","","",""
"","","","","","image-keyboard-response","192","269768","0.0-15.0-2.2-1.5","nrsrnfaqdl","","nrsrnfaqdl","""2024-11-13T16:08:57.037Z""","1434","materials/imgs/D26.png","arrowright","","[""materials/imgs/D36.png"",""materials/imgs/D92.png""]","false","validation","","",""
"","","","","","html-keyboard-response","193","270269","0.0-15.0-0.3-0.21","nrsrnfaqdl","","nrsrnfaqdl","""2024-11-13T16:08:57.037Z""","null","+","null","","","","","","",""
"","","","","","image-keyboard-response","194","271539","0.0-15.0-0.3-1.21","nrsrnfaqdl","","nrsrnfaqdl","""2024-11-13T16:08:57.037Z""","1269","materials/imgs/D32.png","arrowleft","","[""materials/imgs/D35.png"",""materials/imgs/D47.png""]","false","random","","",""
"","","","","","html-keyboard-response","195","272041","0.0-15.0-0.3-0.22","nrsrnfaqdl","","nrsrnfaqdl","""2024-11-13T16:08:57.037Z""","null","+","null","","","","","","",""
"","","","","","image-keyboard-response","196","273356","0.0-15.0-0.3-1.22","nrsrnfaqdl","","nrsrnfaqdl","""2024-11-13T16:08:57.037Z""","1314","materials/imgs/D21.png","arrowleft","","[""materials/imgs/D32.png"",""materials/imgs/D92.png""]","false","random","","",""
"","","","","","html-keyboard-response","197","273857","0.0-15.0-0.3-0.23","nrsrnfaqdl","","nrsrnfaqdl","""2024-11-13T16:08:57.037Z""","null","+","null","","","","","","",""
"","","","","","image-keyboard-response","198","274866","0.0-15.0-0.3-1.23","nrsrnfaqdl","","nrsrnfaqdl","""2024-11-13T16:08:57.037Z""","1008","materials/imgs/D1.png","arrowright","","[""materials/imgs/D85.png"",""materials/imgs/D25.png""]","false","random","","",""
"","","","","","html-keyboard-response","199","275368","0.0-15.0-0.3-0.24","nrsrnfaqdl","","nrsrnfaqdl","""2024-11-13T16:08:57.037Z""","null","+","null","","","","","","",""
"","","","","","image-keyboard-response","200","276214","0.0-15.0-0.3-1.24","nrsrnfaqdl","","nrsrnfaqdl","""2024-11-13T16:08:57.037Z""","846","materials/imgs/D75.png","arrowright","","[""materials/imgs/D94.png"",""materials/imgs/D14.png""]","false","random","","",""
"","","","","","html-keyboard-response","201","276715","0.0-15.0-0.3-0.25","nrsrnfaqdl","","nrsrnfaqdl","""2024-11-13T16:08:57.037Z""","null","+","null","","","","","","",""
"","","","","","image-keyboard-response","202","277968","0.0-15.0-0.3-1.25","nrsrnfaqdl","","nrsrnfaqdl","""2024-11-13T16:08:57.037Z""","1252","materials/imgs/D29.png","arrowleft","","[""materials/imgs/D26.png"",""materials/imgs/D25.png""]","false","random","","",""
"","","","","","html-keyboard-response","203","278470","0.0-15.0-0.3-0.26","nrsrnfaqdl","","nrsrnfaqdl","""2024-11-13T16:08:57.037Z""","null","+","null","","","","","","",""
"","","","","","image-keyboard-response","204","279901","0.0-15.0-0.3-1.26","nrsrnfaqdl","","nrsrnfaqdl","""2024-11-13T16:08:57.037Z""","1430","materials/imgs/D36.png","arrowleft","","[""materials/imgs/D11.png"",""materials/imgs/D18.png""]","false","random","","",""
"","","","","","html-keyboard-response","205","280403","0.0-15.0-0.3-0.27","nrsrnfaqdl","","nrsrnfaqdl","""2024-11-13T16:08:57.037Z""","null","+","null","","","","","","",""
"","","","","","image-keyboard-response","206","281430","0.0-15.0-0.3-1.27","nrsrnfaqdl","","nrsrnfaqdl","""2024-11-13T16:08:57.037Z""","1026","materials/imgs/D74.png","arrowleft","","[""materials/imgs/D29.png"",""materials/imgs/D92.png""]","false","random","","",""
"","","","","","html-keyboard-response","207","281932","0.0-15.0-1.3-0.3","nrsrnfaqdl","","nrsrnfaqdl","""2024-11-13T16:08:57.037Z""","null","+","null","","","","","","",""
"","","","","","image-keyboard-response","208","282710","0.0-15.0-1.3-1.3","nrsrnfaqdl","","nrsrnfaqdl","""2024-11-13T16:08:57.037Z""","777","materials/imgs/D46.png","arrowleft","","[""materials/imgs/D46.png"",""materials/imgs/D26.png""]","","check","materials/imgs/D46.png","0","true"
"","","","","","html-keyboard-response","209","283211","0.0-15.0-2.3-0.6","nrsrnfaqdl","","nrsrnfaqdl","""2024-11-13T16:08:57.037Z""","null","+","null","","","","","","",""
"","","","","","image-keyboard-response","210","284106","0.0-15.0-2.3-1.6","nrsrnfaqdl","","nrsrnfaqdl","""2024-11-13T16:08:57.037Z""","894","materials/imgs/D96.png","arrowleft","","[""materials/imgs/D46.png"",""materials/imgs/D18.png""]","false","validation","","",""
"","","","","","html-keyboard-response","211","284608","0.0-15.0-2.3-0.7","nrsrnfaqdl","","nrsrnfaqdl","""2024-11-13T16:08:57.037Z""","null","+","null","","","","","","",""
"","","","","","image-keyboard-response","212","285971","0.0-15.0-2.3-1.7","nrsrnfaqdl","","nrsrnfaqdl","""2024-11-13T16:08:57.037Z""","1362","materials/imgs/D3.png","arrowleft","","[""materials/imgs/D79.png"",""materials/imgs/D48.png""]","false","validation","","",""
"","","","","","html-keyboard-response","213","286472","0.0-15.0-0.4-0.28","nrsrnfaqdl","","nrsrnfaqdl","""2024-11-13T16:08:57.037Z""","null","+","null","","","","","","",""
"","","","","","image-keyboard-response","214","287189","0.0-15.0-0.4-1.28","nrsrnfaqdl","","nrsrnfaqdl","""2024-11-13T16:08:57.037Z""","716","materials/imgs/D111.png","arrowright","","[""materials/imgs/D85.png"",""materials/imgs/D24.png""]","false","random","","",""
"","","","","","html-keyboard-response","215","287690","0.0-15.0-0.4-0.29","nrsrnfaqdl","","nrsrnfaqdl","""2024-11-13T16:08:57.037Z""","null","+","null","","","","","","",""
"","","","","","image-keyboard-response","216","288338","0.0-15.0-0.4-1.29","nrsrnfaqdl","","nrsrnfaqdl","""2024-11-13T16:08:57.037Z""","646","materials/imgs/D87.png","arrowright","","[""materials/imgs/D101.png"",""materials/imgs/D32.png""]","false","random","","",""
"","","","","","html-keyboard-response","217","288839","0.0-15.0-0.4-0.30","nrsrnfaqdl","","nrsrnfaqdl","""2024-11-13T16:08:57.037Z""","null","+","null","","","","","","",""
"","","","","","image-keyboard-response","218","289966","0.0-15.0-0.4-1.30","nrsrnfaqdl","","nrsrnfaqdl","""2024-11-13T16:08:57.037Z""","1126","materials/imgs/D35.png","arrowleft","","[""materials/imgs/D14.png"",""materials/imgs/D101.png""]","false","random","","",""
"","","","","","html-keyboard-response","219","290467","0.0-15.0-0.4-0.31","nrsrnfaqdl","","nrsrnfaqdl","""2024-11-13T16:08:57.037Z""","null","+","null","","","","","","",""
"","","","","","image-keyboard-response","220","291672","0.0-15.0-0.4-1.31","nrsrnfaqdl","","nrsrnfaqdl","""2024-11-13T16:08:57.037Z""","1204","materials/imgs/D101.png","arrowleft","","[""materials/imgs/D24.png"",""materials/imgs/D34.png""]","false","random","","",""
"","","","","","html-keyboard-response","221","292173","0.0-15.0-0.4-0.32","nrsrnfaqdl","","nrsrnfaqdl","""2024-11-13T16:08:57.037Z""","null","+","null","","","","","","",""
"","","","","","image-keyboard-response","222","293109","0.0-15.0-0.4-1.32","nrsrnfaqdl","","nrsrnfaqdl","""2024-11-13T16:08:57.037Z""","934","materials/imgs/D3.png","arrowright","","[""materials/imgs/D74.png"",""materials/imgs/D103.png""]","false","random","","",""
"","","","","","html-keyboard-response","223","293610","0.0-15.0-0.4-0.33","nrsrnfaqdl","","nrsrnfaqdl","""2024-11-13T16:08:57.037Z""","null","+","null","","","","","","",""
"","","","","","image-keyboard-response","224","294400","0.0-15.0-0.4-1.33","nrsrnfaqdl","","nrsrnfaqdl","""2024-11-13T16:08:57.037Z""","789","materials/imgs/D6.png","arrowright","","[""materials/imgs/D16.png"",""materials/imgs/D52.png""]","false","random","","",""
"","","","","","html-keyboard-response","225","294901","0.0-15.0-0.4-0.34","nrsrnfaqdl","","nrsrnfaqdl","""2024-11-13T16:08:57.037Z""","null","+","null","","","","","","",""
"","","","","","image-keyboard-response","226","295725","0.0-15.0-0.4-1.34","nrsrnfaqdl","","nrsrnfaqdl","""2024-11-13T16:08:57.037Z""","822","materials/imgs/D26.png","arrowright","","[""materials/imgs/D11.png"",""materials/imgs/D81.png""]","false","random","","",""
"","","","","","html-keyboard-response","227","296226","0.0-15.0-1.4-0.4","nrsrnfaqdl","","nrsrnfaqdl","""2024-11-13T16:08:57.037Z""","null","+","null","","","","","","",""
"","","","","","image-keyboard-response","228","296785","0.0-15.0-1.4-1.4","nrsrnfaqdl","","nrsrnfaqdl","""2024-11-13T16:08:57.037Z""","558","materials/imgs/D18.png","arrowright","","[""materials/imgs/D8.png"",""materials/imgs/D18.png""]","","check","materials/imgs/D18.png","1","true"
"","","","","","html-keyboard-response","229","297286","0.0-15.0-2.4-0.8","nrsrnfaqdl","","nrsrnfaqdl","""2024-11-13T16:08:57.037Z""","null","+","null","","","","","","",""
"","","","","","image-keyboard-response","230","298675","0.0-15.0-2.4-1.8","nrsrnfaqdl","","nrsrnfaqdl","""2024-11-13T16:08:57.037Z""","1387","materials/imgs/D18.png","arrowleft","","[""materials/imgs/D32.png"",""materials/imgs/D57.png""]","false","validation","","",""
"","","","","","html-keyboard-response","231","299176","0.0-15.0-2.4-0.9","nrsrnfaqdl","","nrsrnfaqdl","""2024-11-13T16:08:57.037Z""","null","+","null","","","","","","",""
"","","","","","image-keyboard-response","232","299951","0.0-15.0-2.4-1.9","nrsrnfaqdl","","nrsrnfaqdl","""2024-11-13T16:08:57.037Z""","774","materials/imgs/D84.png","arrowleft","","[""materials/imgs/D106.png"",""materials/imgs/D37.png""]","false","validation","","",""
"","","","","","html-button-response","233","301430","0.0-16.0","nrsrnfaqdl","","nrsrnfaqdl","""2024-11-13T16:08:57.037Z""","1479","You have completed 50% of the trials. Please click 'Continue' when you are ready proceed.","0","","","","","","",""
"","","","","","html-keyboard-response","234","301931","0.0-17.0-0.0-0.0","nrsrnfaqdl","","nrsrnfaqdl","""2024-11-13T16:08:57.037Z""","null","+","null","","","","","","",""
"","","","","","image-keyboard-response","235","302789","0.0-17.0-0.0-1.0","nrsrnfaqdl","","nrsrnfaqdl","""2024-11-13T16:08:57.037Z""","857","materials/imgs/D94.png","arrowright","","[""materials/imgs/D11.png"",""materials/imgs/D64.png""]","false","random","","",""
"","","","","","html-keyboard-response","236","303290","0.0-17.0-0.0-0.1","nrsrnfaqdl","","nrsrnfaqdl","""2024-11-13T16:08:57.037Z""","null","+","null","","","","","","",""
"","","","","","image-keyboard-response","237","303838","0.0-17.0-0.0-1.1","nrsrnfaqdl","","nrsrnfaqdl","""2024-11-13T16:08:57.037Z""","546","materials/imgs/D95.png","arrowleft","","[""materials/imgs/D1.png"",""materials/imgs/D8.png""]","false","random","","",""
"","","","","","html-keyboard-response","238","304339","0.0-17.0-0.0-0.2","nrsrnfaqdl","","nrsrnfaqdl","""2024-11-13T16:08:57.037Z""","null","+","null","","","","","","",""
"","","","","","image-keyboard-response","239","305280","0.0-17.0-0.0-1.2","nrsrnfaqdl","","nrsrnfaqdl","""2024-11-13T16:08:57.037Z""","940","materials/imgs/D57.png","arrowleft","","[""materials/imgs/D3.png"",""materials/imgs/D52.png""]","false","random","","",""
"","","","","","html-keyboard-response","240","305781","0.0-17.0-0.0-0.3","nrsrnfaqdl","","nrsrnfaqdl","""2024-11-13T16:08:57.037Z""","null","+","null","","","","","","",""
"","","","","","image-keyboard-response","241","306407","0.0-17.0-0.0-1.3","nrsrnfaqdl","","nrsrnfaqdl","""2024-11-13T16:08:57.037Z""","625","materials/imgs/D36.png","arrowleft","","[""materials/imgs/D25.png"",""materials/imgs/D77.png""]","false","random","","",""
"","","","","","html-keyboard-response","242","306908","0.0-17.0-0.0-0.4","nrsrnfaqdl","","nrsrnfaqdl","""2024-11-13T16:08:57.037Z""","null","+","null","","","","","","",""
"","","","","","image-keyboard-response","243","308120","0.0-17.0-0.0-1.4","nrsrnfaqdl","","nrsrnfaqdl","""2024-11-13T16:08:57.037Z""","1210","materials/imgs/D76.png","arrowright","","[""materials/imgs/D53.png"",""materials/imgs/D36.png""]","false","random","","",""
"","","","","","html-keyboard-response","244","308621","0.0-17.0-0.0-0.5","nrsrnfaqdl","","nrsrnfaqdl","""2024-11-13T16:08:57.037Z""","null","+","null","","","","","","",""
"","","","","","image-keyboard-response","245","309626","0.0-17.0-0.0-1.5","nrsrnfaqdl","","nrsrnfaqdl","""2024-11-13T16:08:57.037Z""","1004","materials/imgs/D83.png","arrowleft","","[""materials/imgs/D32.png"",""materials/imgs/D26.png""]","false","random","","",""
"","","","","","html-keyboard-response","246","310127","0.0-17.0-0.0-0.6","nrsrnfaqdl","","nrsrnfaqdl","""2024-11-13T16:08:57.037Z""","null","+","null","","","","","","",""
"","","","","","image-keyboard-response","247","310741","0.0-17.0-0.0-1.6","nrsrnfaqdl","","nrsrnfaqdl","""2024-11-13T16:08:57.037Z""","613","materials/imgs/D57.png","arrowright","","[""materials/imgs/D53.png"",""materials/imgs/D24.png""]","false","random","","",""
"","","","","","html-keyboard-response","248","311243","0.0-17.0-1.0-0.0","nrsrnfaqdl","","nrsrnfaqdl","""2024-11-13T16:08:57.037Z""","null","+","null","","","","","","",""
"","","","","","image-keyboard-response","249","311793","0.0-17.0-1.0-1.0","nrsrnfaqdl","","nrsrnfaqdl","""2024-11-13T16:08:57.037Z""","549","materials/imgs/D78.png","arrowright","","[""materials/imgs/D76.png"",""materials/imgs/D78.png""]","","check","materials/imgs/D78.png","1","true"
"","","","","","html-keyboard-response","250","312294","0.0-17.0-2.0-0.0","nrsrnfaqdl","","nrsrnfaqdl","""2024-11-13T16:08:57.037Z""","null","+","null","","","","","","",""
"","","","","","image-keyboard-response","251","313174","0.0-17.0-2.0-1.0","nrsrnfaqdl","","nrsrnfaqdl","""2024-11-13T16:08:57.037Z""","879","materials/imgs/D47.png","arrowleft","","[""materials/imgs/D1.png"",""materials/imgs/D52.png""]","false","validation","","",""
"","","","","","html-keyboard-response","252","313675","0.0-17.0-2.0-0.1","nrsrnfaqdl","","nrsrnfaqdl","""2024-11-13T16:08:57.037Z""","null","+","null","","","","","","",""
"","","","","","image-keyboard-response","253","314519","0.0-17.0-2.0-1.1","nrsrnfaqdl","","nrsrnfaqdl","""2024-11-13T16:08:57.037Z""","842","materials/imgs/D8.png","arrowleft","","[""materials/imgs/D101.png"",""materials/imgs/D52.png""]","false","validation","","",""
"","","","","","html-keyboard-response","254","315020","0.0-17.0-0.1-0.7","nrsrnfaqdl","","nrsrnfaqdl","""2024-11-13T16:08:57.037Z""","null","+","null","","","","","","",""
"","","","","","image-keyboard-response","255","316435","0.0-17.0-0.1-1.7","nrsrnfaqdl","","nrsrnfaqdl","""2024-11-13T16:08:57.037Z""","1414","materials/imgs/D47.png","arrowleft","","[""materials/imgs/D3.png"",""materials/imgs/D92.png""]","false","random","","",""
"","","","","","html-keyboard-response","256","316936","0.0-17.0-0.1-0.8","nrsrnfaqdl","","nrsrnfaqdl","""2024-11-13T16:08:57.037Z""","null","+","null","","","","","","",""
"","","","","","image-keyboard-response","257","317811","0.0-17.0-0.1-1.8","nrsrnfaqdl","","nrsrnfaqdl","""2024-11-13T16:08:57.037Z""","873","materials/imgs/D105.png","arrowright","","[""materials/imgs/D36.png"",""materials/imgs/D9.png""]","false","random","","",""
"","","","","","html-keyboard-response","258","318313","0.0-17.0-0.1-0.9","nrsrnfaqdl","","nrsrnfaqdl","""2024-11-13T16:08:57.037Z""","null","+","null","","","","","","",""
"","","","","","image-keyboard-response","259","319517","0.0-17.0-0.1-1.9","nrsrnfaqdl","","nrsrnfaqdl","""2024-11-13T16:08:57.037Z""","1203","materials/imgs/D21.png","arrowleft","","[""materials/imgs/D46.png"",""materials/imgs/D75.png""]","false","random","","",""
"","","","","","html-keyboard-response","260","320018","0.0-17.0-0.1-0.10","nrsrnfaqdl","","nrsrnfaqdl","""2024-11-13T16:08:57.037Z""","null","+","null","","","","","","",""
"","","","","","image-keyboard-response","261","320504","0.0-17.0-0.1-1.10","nrsrnfaqdl","","nrsrnfaqdl","""2024-11-13T16:08:57.037Z""","485","materials/imgs/D81.png","arrowleft","","[""materials/imgs/D80.png"",""materials/imgs/D51.png""]","true","random","","",""
"","","","","","html-keyboard-response","262","326404","0.0-17.0-0.1-2.10-0.10","nrsrnfaqdl","","nrsrnfaqdl","""2024-11-13T16:08:57.037Z""","5900","<p><strong>You're going too fast.</strong><p>Please slow down and assess each triplet.<p>Press 'y' to continue.</p></p>","y","","","","","","",""
"","","","","","html-keyboard-response","263","326905","0.0-17.0-0.1-0.11","nrsrnfaqdl","","nrsrnfaqdl","""2024-11-13T16:08:57.037Z""","null","+","null","","","","","","",""
"","","","","","image-keyboard-response","264","328472","0.0-17.0-0.1-1.11","nrsrnfaqdl","","nrsrnfaqdl","""2024-11-13T16:08:57.037Z""","1566","materials/imgs/D37.png","arrowleft","","[""materials/imgs/D68.png"",""materials/imgs/D36.png""]","false","random","","",""
"","","","","","html-keyboard-response","265","328973","0.0-17.0-0.1-0.12","nrsrnfaqdl","","nrsrnfaqdl","""2024-11-13T16:08:57.037Z""","null","+","null","","","","","","",""
"","","","","","image-keyboard-response","266","329848","0.0-17.0-0.1-1.12","nrsrnfaqdl","","nrsrnfaqdl","""2024-11-13T16:08:57.037Z""","874","materials/imgs/D96.png","arrowright","","[""materials/imgs/D6.png"",""materials/imgs/D1.png""]","false","random","","",""
"","","","","","html-keyboard-response","267","330350","0.0-17.0-0.1-0.13","nrsrnfaqdl","","nrsrnfaqdl","""2024-11-13T16:08:57.037Z""","null","+","null","","","","","","",""
"","","","","","image-keyboard-response","268","331134","0.0-17.0-0.1-1.13","nrsrnfaqdl","","nrsrnfaqdl","""2024-11-13T16:08:57.037Z""","783","materials/imgs/D9.png","arrowleft","","[""materials/imgs/D80.png"",""materials/imgs/D102.png""]","false","random","","",""
"","","","","","html-keyboard-response","269","331635","0.0-17.0-1.1-0.1","nrsrnfaqdl","","nrsrnfaqdl","""2024-11-13T16:08:57.037Z""","null","+","null","","","","","","",""
"","","","","","image-keyboard-response","270","332473","0.0-17.0-1.1-1.1","nrsrnfaqdl","","nrsrnfaqdl","""2024-11-13T16:08:57.037Z""","837","materials/imgs/D64.png","arrowleft","","[""materials/imgs/D64.png"",""materials/imgs/D53.png""]","","check","materials/imgs/D64.png","0","true"
"","","","","","html-keyboard-response","271","332975","0.0-17.0-2.1-0.2","nrsrnfaqdl","","nrsrnfaqdl","""2024-11-13T16:08:57.037Z""","null","+","null","","","","","","",""
"","","","","","image-keyboard-response","272","335097","0.0-17.0-2.1-1.2","nrsrnfaqdl","","nrsrnfaqdl","""2024-11-13T16:08:57.037Z""","2121","materials/imgs/D68.png","arrowright","","[""materials/imgs/D96.png"",""materials/imgs/D48.png""]","false","validation","","",""
"","","","","","html-keyboard-response","273","335599","0.0-17.0-2.1-0.3","nrsrnfaqdl","","nrsrnfaqdl","""2024-11-13T16:08:57.037Z""","null","+","null","","","","","","",""
"","","","","","image-keyboard-response","274","336860","0.0-17.0-2.1-1.3","nrsrnfaqdl","","nrsrnfaqdl","""2024-11-13T16:08:57.037Z""","1260","materials/imgs/D24.png","arrowleft","","[""materials/imgs/D36.png"",""materials/imgs/D8.png""]","false","validation","","",""
"","","","","","html-keyboard-response","275","337361","0.0-17.0-0.2-0.14","nrsrnfaqdl","","nrsrnfaqdl","""2024-11-13T16:08:57.037Z""","null","+","null","","","","","","",""
"","","","","","image-keyboard-response","276","338968","0.0-17.0-0.2-1.14","nrsrnfaqdl","","nrsrnfaqdl","""2024-11-13T16:08:57.037Z""","1605","materials/imgs/D52.png","arrowleft","","[""materials/imgs/D19.png"",""materials/imgs/D34.png""]","false","random","","",""
"","","","","","html-keyboard-response","277","339469","0.0-17.0-0.2-0.15","nrsrnfaqdl","","nrsrnfaqdl","""2024-11-13T16:08:57.037Z""","null","+","null","","","","","","",""
"","","","","","image-keyboard-response","278","340728","0.0-17.0-0.2-1.15","nrsrnfaqdl","","nrsrnfaqdl","""2024-11-13T16:08:57.037Z""","1258","materials/imgs/D64.png","arrowright","","[""materials/imgs/D78.png"",""materials/imgs/D103.png""]","false","random","","",""
"","","","","","html-keyboard-response","279","341230","0.0-17.0-0.2-0.16","nrsrnfaqdl","","nrsrnfaqdl","""2024-11-13T16:08:57.037Z""","null","+","null","","","","","","",""
"","","","","","image-keyboard-response","280","342449","0.0-17.0-0.2-1.16","nrsrnfaqdl","","nrsrnfaqdl","""2024-11-13T16:08:57.037Z""","1218","materials/imgs/D103.png","arrowleft","","[""materials/imgs/D84.png"",""materials/imgs/D49.png""]","false","random","","",""
"","","","","","html-keyboard-response","281","342951","0.0-17.0-0.2-0.17","nrsrnfaqdl","","nrsrnfaqdl","""2024-11-13T16:08:57.037Z""","null","+","null","","","","","","",""
"","","","","","image-keyboard-response","282","344129","0.0-17.0-0.2-1.17","nrsrnfaqdl","","nrsrnfaqdl","""2024-11-13T16:08:57.037Z""","1177","materials/imgs/D8.png","arrowright","","[""materials/imgs/D26.png"",""materials/imgs/D101.png""]","false","random","","",""
"","","","","","html-keyboard-response","283","344630","0.0-17.0-0.2-0.18","nrsrnfaqdl","","nrsrnfaqdl","""2024-11-13T16:08:57.037Z""","null","+","null","","","","","","",""
"","","","","","image-keyboard-response","284","345596","0.0-17.0-0.2-1.18","nrsrnfaqdl","","nrsrnfaqdl","""2024-11-13T16:08:57.037Z""","964","materials/imgs/D111.png","arrowleft","","[""materials/imgs/D106.png"",""materials/imgs/D20.png""]","false","random","","",""
"","","","","","html-keyboard-response","285","346097","0.0-17.0-0.2-0.19","nrsrnfaqdl","","nrsrnfaqdl","""2024-11-13T16:08:57.037Z""","null","+","null","","","","","","",""
"","","","","","image-keyboard-response","286","348242","0.0-17.0-0.2-1.19","nrsrnfaqdl","","nrsrnfaqdl","""2024-11-13T16:08:57.037Z""","2143","materials/imgs/D105.png","arrowleft","","[""materials/imgs/D1.png"",""materials/imgs/D74.png""]","false","random","","",""
"","","","","","html-keyboard-response","287","348743","0.0-17.0-0.2-0.20","nrsrnfaqdl","","nrsrnfaqdl","""2024-11-13T16:08:57.037Z""","null","+","null","","","","","","",""
"","","","","","image-keyboard-response","288","349954","0.0-17.0-0.2-1.20","nrsrnfaqdl","","nrsrnfaqdl","""2024-11-13T16:08:57.037Z""","1210","materials/imgs/D8.png","arrowleft","","[""materials/imgs/D6.png"",""materials/imgs/D74.png""]","false","random","","",""
"","","","","","html-keyboard-response","289","350454","0.0-17.0-1.2-0.2","nrsrnfaqdl","","nrsrnfaqdl","""2024-11-13T16:08:57.037Z""","null","+","null","","","","","","",""
"","","","","","image-keyboard-response","290","351036","0.0-17.0-1.2-1.2","nrsrnfaqdl","","nrsrnfaqdl","""2024-11-13T16:08:57.037Z""","581","materials/imgs/D46.png","arrowleft","","[""materials/imgs/D46.png"",""materials/imgs/D26.png""]","","check","materials/imgs/D46.png","0","true"
"","","","","","html-keyboard-response","291","351537","0.0-17.0-2.2-0.4","nrsrnfaqdl","","nrsrnfaqdl","""2024-11-13T16:08:57.037Z""","null","+","null","","","","","","",""
"","","","","","image-keyboard-response","292","352884","0.0-17.0-2.2-1.4","nrsrnfaqdl","","nrsrnfaqdl","""2024-11-13T16:08:57.037Z""","1346","materials/imgs/D51.png","arrowright","","[""materials/imgs/D92.png"",""materials/imgs/D20.png""]","false","validation","","",""
"","","","","","html-keyboard-response","293","353385","0.0-17.0-2.2-0.5","nrsrnfaqdl","","nrsrnfaqdl","""2024-11-13T16:08:57.037Z""","null","+","null","","","","","","",""
"","","","","","image-keyboard-response","294","354618","0.0-17.0-2.2-1.5","nrsrnfaqdl","","nrsrnfaqdl","""2024-11-13T16:08:57.037Z""","1232","materials/imgs/D76.png","arrowleft","","[""materials/imgs/D83.png"",""materials/imgs/D6.png""]","false","validation","","",""
"","","","","","html-keyboard-response","295","355119","0.0-17.0-0.3-0.21","nrsrnfaqdl","","nrsrnfaqdl","""2024-11-13T16:08:57.037Z""","null","+","null","","","","","","",""
"","","","","","image-keyboard-response","296","356302","0.0-17.0-0.3-1.21","nrsrnfaqdl","","nrsrnfaqdl","""2024-11-13T16:08:57.037Z""","1182","materials/imgs/D79.png","arrowright","","[""materials/imgs/D49.png"",""materials/imgs/D24.png""]","false","random","","",""
"","","","","","html-keyboard-response","297","356803","0.0-17.0-0.3-0.22","nrsrnfaqdl","","nrsrnfaqdl","""2024-11-13T16:08:57.037Z""","null","+","null","","","","","","",""
"","","","","","image-keyboard-response","298","358775","0.0-17.0-0.3-1.22","nrsrnfaqdl","","nrsrnfaqdl","""2024-11-13T16:08:57.037Z""","1966","materials/imgs/D85.png","arrowright","","[""materials/imgs/D78.png"",""materials/imgs/D17.png""]","false","random","","",""
"","","","","","html-keyboard-response","299","359276","0.0-17.0-0.3-0.23","nrsrnfaqdl","","nrsrnfaqdl","""2024-11-13T16:08:57.037Z""","null","+","null","","","","","","",""
"","","","","","image-keyboard-response","300","361075","0.0-17.0-0.3-1.23","nrsrnfaqdl","","nrsrnfaqdl","""2024-11-13T16:08:57.037Z""","1798","materials/imgs/D6.png","arrowright","","[""materials/imgs/D65.png"",""materials/imgs/D26.png""]","false","random","","",""
"","","","","","html-keyboard-response","301","361577","0.0-17.0-0.3-0.24","nrsrnfaqdl","","nrsrnfaqdl","""2024-11-13T16:08:57.037Z""","null","+","null","","","","","","",""
"","","","","","image-keyboard-response","302","362650","0.0-17.0-0.3-1.24","nrsrnfaqdl","","nrsrnfaqdl","""2024-11-13T16:08:57.037Z""","1071","materials/imgs/D80.png","arrowleft","","[""materials/imgs/D55.png"",""materials/imgs/D68.png""]","false","random","","",""
"","","","","","html-keyboard-response","303","363151","0.0-17.0-0.3-0.25","nrsrnfaqdl","","nrsrnfaqdl","""2024-11-13T16:08:57.037Z""","null","+","null","","","","","","",""
"","","","","","image-keyboard-response","304","363821","0.0-17.0-0.3-1.25","nrsrnfaqdl","","nrsrnfaqdl","""2024-11-13T16:08:57.037Z""","669","materials/imgs/D105.png","arrowright","","[""materials/imgs/D96.png"",""materials/imgs/D78.png""]","false","random","","",""
"","","","","","html-keyboard-response","305","364322","0.0-17.0-0.3-0.26","nrsrnfaqdl","","nrsrnfaqdl","""2024-11-13T16:08:57.037Z""","null","+","null","","","","","","",""
"","","","","","image-keyboard-response","306","365676","0.0-17.0-0.3-1.26","nrsrnfaqdl","","nrsrnfaqdl","""2024-11-13T16:08:57.037Z""","1352","materials/imgs/D25.png","arrowleft","","[""materials/imgs/D92.png"",""materials/imgs/D74.png""]","false","random","","",""
"","","","","","html-keyboard-response","307","366177","0.0-17.0-0.3-0.27","nrsrnfaqdl","","nrsrnfaqdl","""2024-11-13T16:08:57.037Z""","null","+","null","","","","","","",""
"","","","","","image-keyboard-response","308","367250","0.0-17.0-0.3-1.27","nrsrnfaqdl","","nrsrnfaqdl","""2024-11-13T16:08:57.037Z""","1072","materials/imgs/D55.png","arrowleft","","[""materials/imgs/D34.png"",""materials/imgs/D65.png""]","false","random","","",""
"","","","","","html-keyboard-response","309","367752","0.0-17.0-1.3-0.3","nrsrnfaqdl","","nrsrnfaqdl","""2024-11-13T16:08:57.037Z""","null","+","null","","","","","","",""
"","","","","","image-keyboard-response","310","368459","0.0-17.0-1.3-1.3","nrsrnfaqdl","","nrsrnfaqdl","""2024-11-13T16:08:57.037Z""","706","materials/imgs/D76.png","arrowleft","","[""materials/imgs/D76.png"",""materials/imgs/D78.png""]","","check","materials/imgs/D76.png","0","true"
"","","","","","html-keyboard-response","311","368961","0.0-17.0-2.3-0.6","nrsrnfaqdl","","nrsrnfaqdl","""2024-11-13T16:08:57.037Z""","null","+","null","","","","","","",""
"","","","","","image-keyboard-response","312","370054","0.0-17.0-2.3-1.6","nrsrnfaqdl","","nrsrnfaqdl","""2024-11-13T16:08:57.037Z""","1092","materials/imgs/D96.png","arrowright","","[""materials/imgs/D46.png"",""materials/imgs/D18.png""]","false","validation","","",""
"","","","","","html-keyboard-response","313","370554","0.0-17.0-2.3-0.7","nrsrnfaqdl","","nrsrnfaqdl","""2024-11-13T16:08:57.037Z""","null","+","null","","","","","","",""
"","","","","","image-keyboard-response","314","371408","0.0-17.0-2.3-1.7","nrsrnfaqdl","","nrsrnfaqdl","""2024-11-13T16:08:57.037Z""","852","materials/imgs/D106.png","arrowright","","[""materials/imgs/D57.png"",""materials/imgs/D18.png""]","false","validation","","",""
"","","","","","html-keyboard-response","315","371909","0.0-17.0-0.4-0.28","nrsrnfaqdl","","nrsrnfaqdl","""2024-11-13T16:08:57.037Z""","null","+","null","","","","","","",""
"","","","","","image-keyboard-response","316","372636","0.0-17.0-0.4-1.28","nrsrnfaqdl","","nrsrnfaqdl","""2024-11-13T16:08:57.037Z""","725","materials/imgs/D80.png","arrowleft","","[""materials/imgs/D3.png"",""materials/imgs/D37.png""]","false","random","","",""
"","","","","","html-keyboard-response","317","373137","0.0-17.0-0.4-0.29","nrsrnfaqdl","","nrsrnfaqdl","""2024-11-13T16:08:57.037Z""","null","+","null","","","","","","",""
"","","","","","image-keyboard-response","318","374494","0.0-17.0-0.4-1.29","nrsrnfaqdl","","nrsrnfaqdl","""2024-11-13T16:08:57.037Z""","1355","materials/imgs/D81.png","arrowleft","","[""materials/imgs/D34.png"",""materials/imgs/D35.png""]","false","random","","",""
"","","","","","html-keyboard-response","319","374994","0.0-17.0-0.4-0.30","nrsrnfaqdl","","nrsrnfaqdl","""2024-11-13T16:08:57.037Z""","null","+","null","","","","","","",""
"","","","","","image-keyboard-response","320","375884","0.0-17.0-0.4-1.30","nrsrnfaqdl","","nrsrnfaqdl","""2024-11-13T16:08:57.037Z""","889","materials/imgs/D6.png","arrowleft","","[""materials/imgs/D92.png"",""materials/imgs/D85.png""]","false","random","","",""
"","","","","","html-keyboard-response","321","376385","0.0-17.0-0.4-0.31","nrsrnfaqdl","","nrsrnfaqdl","""2024-11-13T16:08:57.037Z""","null","+","null","","","","","","",""
"","","","","","image-keyboard-response","322","377206","0.0-17.0-0.4-1.31","nrsrnfaqdl","","nrsrnfaqdl","""2024-11-13T16:08:57.037Z""","819","materials/imgs/D19.png","arrowright","","[""materials/imgs/D79.png"",""materials/imgs/D92.png""]","false","random","","",""
"","","","","","html-keyboard-response","323","377707","0.0-17.0-0.4-0.32","nrsrnfaqdl","","nrsrnfaqdl","""2024-11-13T16:08:57.037Z""","null","+","null","","","","","","",""
"","","","","","image-keyboard-response","324","378709","0.0-17.0-0.4-1.32","nrsrnfaqdl","","nrsrnfaqdl","""2024-11-13T16:08:57.037Z""","1001","materials/imgs/D53.png","arrowleft","","[""materials/imgs/D102.png"",""materials/imgs/D4.png""]","false","random","","",""
"","","","","","html-keyboard-response","325","379211","0.0-17.0-0.4-0.33","nrsrnfaqdl","","nrsrnfaqdl","""2024-11-13T16:08:57.037Z""","null","+","null","","","","","","",""
"","","","","","image-keyboard-response","326","380991","0.0-17.0-0.4-1.33","nrsrnfaqdl","","nrsrnfaqdl","""2024-11-13T16:08:57.037Z""","1779","materials/imgs/D78.png","arrowright","","[""materials/imgs/D49.png"",""materials/imgs/D35.png""]","false","random","","",""
"","","","","","html-keyboard-response","327","381493","0.0-17.0-0.4-0.34","nrsrnfaqdl","","nrsrnfaqdl","""2024-11-13T16:08:57.037Z""","null","+","null","","","","","","",""
"","","","","","image-keyboard-response","328","382773","0.0-17.0-0.4-1.34","nrsrnfaqdl","","nrsrnfaqdl","""2024-11-13T16:08:57.037Z""","1279","materials/imgs/D1.png","arrowleft","","[""materials/imgs/D8.png"",""materials/imgs/D111.png""]","false","random","","",""
"","","","","","html-keyboard-response","329","383274","0.0-17.0-1.4-0.4","nrsrnfaqdl","","nrsrnfaqdl","""2024-11-13T16:08:57.037Z""","null","+","null","","","","","","",""
"","","","","","image-keyboard-response","330","383826","0.0-17.0-1.4-1.4","nrsrnfaqdl","","nrsrnfaqdl","""2024-11-13T16:08:57.037Z""","551","materials/imgs/D101.png","arrowright","","[""materials/imgs/D106.png"",""materials/imgs/D101.png""]","","check","materials/imgs/D101.png","1","true"
"","","","","","html-keyboard-response","331","384327","0.0-17.0-2.4-0.8","nrsrnfaqdl","","nrsrnfaqdl","""2024-11-13T16:08:57.037Z""","null","+","null","","","","","","",""
"","","","","","image-keyboard-response","332","385024","0.0-17.0-2.4-1.8","nrsrnfaqdl","","nrsrnfaqdl","""2024-11-13T16:08:57.037Z""","696","materials/imgs/D19.png","arrowleft","","[""materials/imgs/D111.png"",""materials/imgs/D56.png""]","false","validation","","",""
"","","","","","html-keyboard-response","333","385525","0.0-17.0-2.4-0.9","nrsrnfaqdl","","nrsrnfaqdl","""2024-11-13T16:08:57.037Z""","null","+","null","","","","","","",""
"","","","","","image-keyboard-response","334","386281","0.0-17.0-2.4-1.9","nrsrnfaqdl","","nrsrnfaqdl","""2024-11-13T16:08:57.037Z""","755","materials/imgs/D102.png","arrowleft","","[""materials/imgs/D32.png"",""materials/imgs/D111.png""]","false","validation","","",""
"","","","","","html-button-response","335","387644","0.0-18.0","nrsrnfaqdl","","nrsrnfaqdl","""2024-11-13T16:08:57.037Z""","1362","You have completed 75% of the trials. Please click 'Continue' when you are ready proceed.","0","","","","","","",""
"","","","","","html-keyboard-response","336","388145","0.0-19.0-0.0-0.0","nrsrnfaqdl","","nrsrnfaqdl","""2024-11-13T16:08:57.037Z""","null","+","null","","","","","","",""
"","","","","","image-keyboard-response","337","389550","0.0-19.0-0.0-1.0","nrsrnfaqdl","","nrsrnfaqdl","""2024-11-13T16:08:57.037Z""","1403","materials/imgs/D34.png","arrowright","","[""materials/imgs/D47.png"",""materials/imgs/D3.png""]","false","random","","",""
"","","","","","html-keyboard-response","338","390051","0.0-19.0-0.0-0.1","nrsrnfaqdl","","nrsrnfaqdl","""2024-11-13T16:08:57.037Z""","null","+","null","","","","","","",""
"","","","","","image-keyboard-response","339","390803","0.0-19.0-0.0-1.1","nrsrnfaqdl","","nrsrnfaqdl","""2024-11-13T16:08:57.037Z""","751","materials/imgs/D11.png","arrowright","","[""materials/imgs/D52.png"",""materials/imgs/D32.png""]","false","random","","",""
"","","","","","html-keyboard-response","340","391304","0.0-19.0-0.0-0.2","nrsrnfaqdl","","nrsrnfaqdl","""2024-11-13T16:08:57.037Z""","null","+","null","","","","","","",""
"","","","","","image-keyboard-response","341","392864","0.0-19.0-0.0-1.2","nrsrnfaqdl","","nrsrnfaqdl","""2024-11-13T16:08:57.037Z""","1559","materials/imgs/D64.png","arrowleft","","[""materials/imgs/D1.png"",""materials/imgs/D37.png""]","false","random","","",""
"","","","","","html-keyboard-response","342","393365","0.0-19.0-0.0-0.3","nrsrnfaqdl","","nrsrnfaqdl","""2024-11-13T16:08:57.037Z""","null","+","null","","","","","","",""
"","","","","","image-keyboard-response","343","394328","0.0-19.0-0.0-1.3","nrsrnfaqdl","","nrsrnfaqdl","""2024-11-13T16:08:57.037Z""","962","materials/imgs/D78.png","arrowright","","[""materials/imgs/D18.png"",""materials/imgs/D103.png""]","false","random","","",""
"","","","","","html-keyboard-response","344","394830","0.0-19.0-0.0-0.4","nrsrnfaqdl","","nrsrnfaqdl","""2024-11-13T16:08:57.037Z""","null","+","null","","","","","","",""
"","","","","","image-keyboard-response","345","395635","0.0-19.0-0.0-1.4","nrsrnfaqdl","","nrsrnfaqdl","""2024-11-13T16:08:57.037Z""","803","materials/imgs/D105.png","arrowright","","[""materials/imgs/D64.png"",""materials/imgs/D21.png""]","false","random","","",""
"","","","","","html-keyboard-response","346","396136","0.0-19.0-0.0-0.5","nrsrnfaqdl","","nrsrnfaqdl","""2024-11-13T16:08:57.037Z""","null","+","null","","","","","","",""
"","","","","","image-keyboard-response","347","397593","0.0-19.0-0.0-1.5","nrsrnfaqdl","","nrsrnfaqdl","""2024-11-13T16:08:57.037Z""","1455","materials/imgs/D103.png","arrowleft","","[""materials/imgs/D87.png"",""materials/imgs/D37.png""]","false","random","","",""
"","","","","","html-keyboard-response","348","398095","0.0-19.0-0.0-0.6","nrsrnfaqdl","","nrsrnfaqdl","""2024-11-13T16:08:57.037Z""","null","+","null","","","","","","",""
"","","","","","image-keyboard-response","349","399038","0.0-19.0-0.0-1.6","nrsrnfaqdl","","nrsrnfaqdl","""2024-11-13T16:08:57.037Z""","942","materials/imgs/D64.png","arrowleft","","[""materials/imgs/D37.png"",""materials/imgs/D34.png""]","false","random","","",""
"","","","","","html-keyboard-response","350","399540","0.0-19.0-1.0-0.0","nrsrnfaqdl","","nrsrnfaqdl","""2024-11-13T16:08:57.037Z""","null","+","null","","","","","","",""
"","","","","","image-keyboard-response","351","400130","0.0-19.0-1.0-1.0","nrsrnfaqdl","","nrsrnfaqdl","""2024-11-13T16:08:57.037Z""","589","materials/imgs/D78.png","arrowright","","[""materials/imgs/D76.png"",""materials/imgs/D78.png""]","","check","materials/imgs/D78.png","1","true"
"","","","","","html-keyboard-response","352","400631","0.0-19.0-2.0-0.0","nrsrnfaqdl","","nrsrnfaqdl","""2024-11-13T16:08:57.037Z""","null","+","null","","","","","","",""
"","","","","","image-keyboard-response","353","401762","0.0-19.0-2.0-1.0","nrsrnfaqdl","","nrsrnfaqdl","""2024-11-13T16:08:57.037Z""","1130","materials/imgs/D65.png","arrowleft","","[""materials/imgs/D4.png"",""materials/imgs/D16.png""]","false","validation","","",""
"","","","","","html-keyboard-response","354","402263","0.0-19.0-2.0-0.1","nrsrnfaqdl","","nrsrnfaqdl","""2024-11-13T16:08:57.037Z""","null","+","null","","","","","","",""
"","","","","","image-keyboard-response","355","403918","0.0-19.0-2.0-1.1","nrsrnfaqdl","","nrsrnfaqdl","""2024-11-13T16:08:57.037Z""","1654","materials/imgs/D83.png","arrowleft","","[""materials/imgs/D24.png"",""materials/imgs/D8.png""]","false","validation","","",""
"","","","","","html-keyboard-response","356","404420","0.0-19.0-0.1-0.7","nrsrnfaqdl","","nrsrnfaqdl","""2024-11-13T16:08:57.037Z""","null","+","null","","","","","","",""
"","","","","","image-keyboard-response","357","405651","0.0-19.0-0.1-1.7","nrsrnfaqdl","","nrsrnfaqdl","""2024-11-13T16:08:57.037Z""","1230","materials/imgs/D83.png","arrowleft","","[""materials/imgs/D51.png"",""materials/imgs/D14.png""]","false","random","","",""
"","","","","","html-keyboard-response","358","406152","0.0-19.0-0.1-0.8","nrsrnfaqdl","","nrsrnfaqdl","""2024-11-13T16:08:57.037Z""","null","+","null","","","","","","",""
"","","","","","image-keyboard-response","359","407671","0.0-19.0-0.1-1.8","nrsrnfaqdl","","nrsrnfaqdl","""2024-11-13T16:08:57.037Z""","1518","materials/imgs/D3.png","arrowright","","[""materials/imgs/D96.png"",""materials/imgs/D87.png""]","false","random","","",""
"","","","","","html-keyboard-response","360","408172","0.0-19.0-0.1-0.9","nrsrnfaqdl","","nrsrnfaqdl","""2024-11-13T16:08:57.037Z""","null","+","null","","","","","","",""
"","","","","","image-keyboard-response","361","409358","0.0-19.0-0.1-1.9","nrsrnfaqdl","","nrsrnfaqdl","""2024-11-13T16:08:57.037Z""","1184","materials/imgs/D64.png","arrowright","","[""materials/imgs/D77.png"",""materials/imgs/D17.png""]","false","random","","",""
"","","","","","html-keyboard-response","362","409859","0.0-19.0-0.1-0.10","nrsrnfaqdl","","nrsrnfaqdl","""2024-11-13T16:08:57.037Z""","null","+","null","","","","","","",""
"","","","","","image-keyboard-response","363","411293","0.0-19.0-0.1-1.10","nrsrnfaqdl","","nrsrnfaqdl","""2024-11-13T16:08:57.037Z""","1433","materials/imgs/D80.png","arrowleft","","[""materials/imgs/D49.png"",""materials/imgs/D101.png""]","false","random","","",""
"","","","","","html-keyboard-response","364","411794","0.0-19.0-0.1-0.11","nrsrnfaqdl","","nrsrnfaqdl","""2024-11-13T16:08:57.037Z""","null","+","null","","","","","","",""
"","","","","","image-keyboard-response","365","413030","0.0-19.0-0.1-1.11","nrsrnfaqdl","","nrsrnfaqdl","""2024-11-13T16:08:57.037Z""","1234","materials/imgs/D92.png","arrowright","","[""materials/imgs/D53.png"",""materials/imgs/D95.png""]","false","random","","",""
"","","","","","html-keyboard-response","366","413531","0.0-19.0-0.1-0.12","nrsrnfaqdl","","nrsrnfaqdl","""2024-11-13T16:08:57.037Z""","null","+","null","","","","","","",""
"","","","","","image-keyboard-response","367","414553","0.0-19.0-0.1-1.12","nrsrnfaqdl","","nrsrnfaqdl","""2024-11-13T16:08:57.037Z""","1020","materials/imgs/D9.png","arrowleft","","[""materials/imgs/D16.png"",""materials/imgs/D75.png""]","false","random","","",""
"","","","","","html-keyboard-response","368","415053","0.0-19.0-0.1-0.13","nrsrnfaqdl","","nrsrnfaqdl","""2024-11-13T16:08:57.037Z""","null","+","null","","","","","","",""
"","","","","","image-keyboard-response","369","416548","0.0-19.0-0.1-1.13","nrsrnfaqdl","","nrsrnfaqdl","""2024-11-13T16:08:57.037Z""","1494","materials/imgs/D21.png","arrowright","","[""materials/imgs/D102.png"",""materials/imgs/D47.png""]","false","random","","",""
"","","","","","html-keyboard-response","370","417050","0.0-19.0-1.1-0.1","nrsrnfaqdl","","nrsrnfaqdl","""2024-11-13T16:08:57.037Z""","null","+","null","","","","","","",""
"","","","","","image-keyboard-response","371","417895","0.0-19.0-1.1-1.1","nrsrnfaqdl","","nrsrnfaqdl","""2024-11-13T16:08:57.037Z""","844","materials/imgs/D106.png","arrowleft","","[""materials/imgs/D106.png"",""materials/imgs/D101.png""]","","check","materials/imgs/D106.png","0","true"
"","","","","","html-keyboard-response","372","418396","0.0-19.0-2.1-0.2","nrsrnfaqdl","","nrsrnfaqdl","""2024-11-13T16:08:57.037Z""","null","+","null","","","","","","",""
"","","","","","image-keyboard-response","373","419483","0.0-19.0-2.1-1.2","nrsrnfaqdl","","nrsrnfaqdl","""2024-11-13T16:08:57.037Z""","1087","materials/imgs/D51.png","arrowright","","[""materials/imgs/D92.png"",""materials/imgs/D20.png""]","false","validation","","",""
"","","","","","html-keyboard-response","374","419985","0.0-19.0-2.1-0.3","nrsrnfaqdl","","nrsrnfaqdl","""2024-11-13T16:08:57.037Z""","null","+","null","","","","","","",""
"","","","","","image-keyboard-response","375","421640","0.0-19.0-2.1-1.3","nrsrnfaqdl","","nrsrnfaqdl","""2024-11-13T16:08:57.037Z""","1654","materials/imgs/D4.png","arrowleft","","[""materials/imgs/D52.png"",""materials/imgs/D83.png""]","false","validation","","",""
"","","","","","html-keyboard-response","376","422141","0.0-19.0-0.2-0.14","nrsrnfaqdl","","nrsrnfaqdl","""2024-11-13T16:08:57.037Z""","null","+","null","","","","","","",""
"","","","","","image-keyboard-response","377","423506","0.0-19.0-0.2-1.14","nrsrnfaqdl","","nrsrnfaqdl","""2024-11-13T16:08:57.037Z""","1364","materials/imgs/D55.png","arrowright","","[""materials/imgs/D78.png"",""materials/imgs/D4.png""]","false","random","","",""
"","","","","","html-keyboard-response","378","424007","0.0-19.0-0.2-0.15","nrsrnfaqdl","","nrsrnfaqdl","""2024-11-13T16:08:57.037Z""","null","+","null","","","","","","",""
"","","","","","image-keyboard-response","379","425028","0.0-19.0-0.2-1.15","nrsrnfaqdl","","nrsrnfaqdl","""2024-11-13T16:08:57.037Z""","1020","materials/imgs/D35.png","arrowleft","","[""materials/imgs/D17.png"",""materials/imgs/D49.png""]","false","random","","",""
"","","","","","html-keyboard-response","380","425529","0.0-19.0-0.2-0.16","nrsrnfaqdl","","nrsrnfaqdl","""2024-11-13T16:08:57.037Z""","null","+","null","","","","","","",""
"","","","","","image-keyboard-response","381","426699","0.0-19.0-0.2-1.16","nrsrnfaqdl","","nrsrnfaqdl","""2024-11-13T16:08:57.037Z""","1168","materials/imgs/D35.png","arrowright","","[""materials/imgs/D102.png"",""materials/imgs/D34.png""]","false","random","","",""
"","","","","","html-keyboard-response","382","427200","0.0-19.0-0.2-0.17","nrsrnfaqdl","","nrsrnfaqdl","""2024-11-13T16:08:57.037Z""","null","+","null","","","","","","",""
"","","","","","image-keyboard-response","383","428212","0.0-19.0-0.2-1.17","nrsrnfaqdl","","nrsrnfaqdl","""2024-11-13T16:08:57.037Z""","1010","materials/imgs/D76.png","arrowleft","","[""materials/imgs/D55.png"",""materials/imgs/D83.png""]","false","random","","",""
"","","","","","html-keyboard-response","384","428713","0.0-19.0-0.2-0.18","nrsrnfaqdl","","nrsrnfaqdl","""2024-11-13T16:08:57.037Z""","null","+","null","","","","","","",""
"","","","","","image-keyboard-response","385","429795","0.0-19.0-0.2-1.18","nrsrnfaqdl","","nrsrnfaqdl","""2024-11-13T16:08:57.037Z""","1080","materials/imgs/D104.png","arrowright","","[""materials/imgs/D51.png"",""materials/imgs/D3.png""]","false","random","","",""
"","","","","","html-keyboard-response","386","430296","0.0-19.0-0.2-0.19","nrsrnfaqdl","","nrsrnfaqdl","""2024-11-13T16:08:57.037Z""","null","+","null","","","","","","",""
"","","","","","image-keyboard-response","387","431030","0.0-19.0-0.2-1.19","nrsrnfaqdl","","nrsrnfaqdl","""2024-11-13T16:08:57.037Z""","733","materials/imgs/D57.png","arrowleft","","[""materials/imgs/D4.png"",""materials/imgs/D85.png""]","false","random","","",""
"","","","","","html-keyboard-response","388","431531","0.0-19.0-0.2-0.20","nrsrnfaqdl","","nrsrnfaqdl","""2024-11-13T16:08:57.037Z""","null","+","null","","","","","","",""
"","","","","","image-keyboard-response","389","432974","0.0-19.0-0.2-1.20","nrsrnfaqdl","","nrsrnfaqdl","""2024-11-13T16:08:57.037Z""","1441","materials/imgs/D87.png","arrowright","","[""materials/imgs/D37.png"",""materials/imgs/D95.png""]","false","random","","",""
"","","","","","html-keyboard-response","390","433476","0.0-19.0-1.2-0.2","nrsrnfaqdl","","nrsrnfaqdl","""2024-11-13T16:08:57.037Z""","null","+","null","","","","","","",""
"","","","","","image-keyboard-response","391","434057","0.0-19.0-1.2-1.2","nrsrnfaqdl","","nrsrnfaqdl","""2024-11-13T16:08:57.037Z""","581","materials/imgs/D8.png","arrowright","","[""materials/imgs/D18.png"",""materials/imgs/D8.png""]","","check","materials/imgs/D8.png","1","true"
"","","","","","html-keyboard-response","392","434559","0.0-19.0-2.2-0.4","nrsrnfaqdl","","nrsrnfaqdl","""2024-11-13T16:08:57.037Z""","null","+","null","","","","","","",""
"","","","","","image-keyboard-response","393","435464","0.0-19.0-2.2-1.4","nrsrnfaqdl","","nrsrnfaqdl","""2024-11-13T16:08:57.037Z""","904","materials/imgs/D92.png","arrowright","","[""materials/imgs/D56.png"",""materials/imgs/D77.png""]","false","validation","","",""
"","","","","","html-keyboard-response","394","435965","0.0-19.0-2.2-0.5","nrsrnfaqdl","","nrsrnfaqdl","""2024-11-13T16:08:57.037Z""","null","+","null","","","","","","",""
"","","","","","image-keyboard-response","395","437009","0.0-19.0-2.2-1.5","nrsrnfaqdl","","nrsrnfaqdl","""2024-11-13T16:08:57.037Z""","1043","materials/imgs/D36.png","arrowleft","","[""materials/imgs/D47.png"",""materials/imgs/D49.png""]","false","validation","","",""
"","","","","","html-keyboard-response","396","437511","0.0-19.0-0.3-0.21","nrsrnfaqdl","","nrsrnfaqdl","""2024-11-13T16:08:57.037Z""","null","+","null","","","","","","",""
"","","","","","image-keyboard-response","397","438458","0.0-19.0-0.3-1.21","nrsrnfaqdl","","nrsrnfaqdl","""2024-11-13T16:08:57.037Z""","946","materials/imgs/D3.png","arrowleft","","[""materials/imgs/D87.png"",""materials/imgs/D56.png""]","false","random","","",""
"","","","","","html-keyboard-response","398","438959","0.0-19.0-0.3-0.22","nrsrnfaqdl","","nrsrnfaqdl","""2024-11-13T16:08:57.037Z""","null","+","null","","","","","","",""
"","","","","","image-keyboard-response","399","439655","0.0-19.0-0.3-1.22","nrsrnfaqdl","","nrsrnfaqdl","""2024-11-13T16:08:57.037Z""","694","materials/imgs/D20.png","arrowleft","","[""materials/imgs/D95.png"",""materials/imgs/D79.png""]","false","random","","",""
"","","","","","html-keyboard-response","400","440156","0.0-19.0-0.3-0.23","nrsrnfaqdl","","nrsrnfaqdl","""2024-11-13T16:08:57.037Z""","null","+","null","","","","","","",""
"","","","","","image-keyboard-response","401","441210","0.0-19.0-0.3-1.23","nrsrnfaqdl","","nrsrnfaqdl","""2024-11-13T16:08:57.037Z""","1053","materials/imgs/D6.png","arrowright","","[""materials/imgs/D68.png"",""materials/imgs/D1.png""]","false","random","","",""
"","","","","","html-keyboard-response","402","441711","0.0-19.0-0.3-0.24","nrsrnfaqdl","","nrsrnfaqdl","""2024-11-13T16:08:57.037Z""","null","+","null","","","","","","",""
"","","","","","image-keyboard-response","403","442508","0.0-19.0-0.3-1.24","nrsrnfaqdl","","nrsrnfaqdl","""2024-11-13T16:08:57.037Z""","796","materials/imgs/D56.png","arrowright","","[""materials/imgs/D21.png"",""materials/imgs/D6.png""]","false","random","","",""
"","","","","","html-keyboard-response","404","443010","0.0-19.0-0.3-0.25","nrsrnfaqdl","","nrsrnfaqdl","""2024-11-13T16:08:57.037Z""","null","+","null","","","","","","",""
"","","","","","image-keyboard-response","405","443995","0.0-19.0-0.3-1.25","nrsrnfaqdl","","nrsrnfaqdl","""2024-11-13T16:08:57.037Z""","984","materials/imgs/D18.png","arrowright","","[""materials/imgs/D102.png"",""materials/imgs/D76.png""]","false","random","","",""
"","","","","","html-keyboard-response","406","444497","0.0-19.0-0.3-0.26","nrsrnfaqdl","","nrsrnfaqdl","""2024-11-13T16:08:57.037Z""","null","+","null","","","","","","",""
"","","","","","image-keyboard-response","407","445283","0.0-19.0-0.3-1.26","nrsrnfaqdl","","nrsrnfaqdl","""2024-11-13T16:08:57.037Z""","785","materials/imgs/D52.png","arrowleft","","[""materials/imgs/D49.png"",""materials/imgs/D25.png""]","false","random","","",""
"","","","","","html-keyboard-response","408","445784","0.0-19.0-0.3-0.27","nrsrnfaqdl","","nrsrnfaqdl","""2024-11-13T16:08:57.037Z""","null","+","null","","","","","","",""
"","","","","","image-keyboard-response","409","446801","0.0-19.0-0.3-1.27","nrsrnfaqdl","","nrsrnfaqdl","""2024-11-13T16:08:57.037Z""","1016","materials/imgs/D49.png","arrowleft","","[""materials/imgs/D19.png"",""materials/imgs/D52.png""]","false","random","","",""
"","","","","","html-keyboard-response","410","447302","0.0-19.0-1.3-0.3","nrsrnfaqdl","","nrsrnfaqdl","""2024-11-13T16:08:57.037Z""","null","+","null","","","","","","",""
"","","","","","image-keyboard-response","411","447882","0.0-19.0-1.3-1.3","nrsrnfaqdl","","nrsrnfaqdl","""2024-11-13T16:08:57.037Z""","579","materials/imgs/D8.png","arrowright","","[""materials/imgs/D18.png"",""materials/imgs/D8.png""]","","check","materials/imgs/D8.png","1","true"
"","","","","","html-keyboard-response","412","448384","0.0-19.0-2.3-0.6","nrsrnfaqdl","","nrsrnfaqdl","""2024-11-13T16:08:57.037Z""","null","+","null","","","","","","",""
"","","","","","image-keyboard-response","413","448901","0.0-19.0-2.3-1.6","nrsrnfaqdl","","nrsrnfaqdl","""2024-11-13T16:08:57.037Z""","516","materials/imgs/D105.png","arrowleft","","[""materials/imgs/D106.png"",""materials/imgs/D52.png""]","false","validation","","",""
"","","","","","html-keyboard-response","414","449402","0.0-19.0-2.3-0.7","nrsrnfaqdl","","nrsrnfaqdl","""2024-11-13T16:08:57.037Z""","null","+","null","","","","","","",""
"","","","","","image-keyboard-response","415","449897","0.0-19.0-2.3-1.7","nrsrnfaqdl","","nrsrnfaqdl","""2024-11-13T16:08:57.037Z""","494","materials/imgs/D81.png","arrowright","","[""materials/imgs/D105.png"",""materials/imgs/D24.png""]","true","validation","","",""
"","","","","","html-keyboard-response","416","452823","0.0-19.0-2.3-2.7-0.7","nrsrnfaqdl","","nrsrnfaqdl","""2024-11-13T16:08:57.037Z""","2925","<p><strong>You're going too fast.</strong><p>Please slow down and assess each triplet.<p>Press 'y' to continue.</p></p>","y","","","","","","",""
"","","","","","html-keyboard-response","417","453324","0.0-19.0-0.4-0.28","nrsrnfaqdl","","nrsrnfaqdl","""2024-11-13T16:08:57.037Z""","null","+","null","","","","","","",""
"","","","","","image-keyboard-response","418","454863","0.0-19.0-0.4-1.28","nrsrnfaqdl","","nrsrnfaqdl","""2024-11-13T16:08:57.037Z""","1538","materials/imgs/D64.png","arrowleft","","[""materials/imgs/D20.png"",""materials/imgs/D66.png""]","false","random","","",""
"","","","","","html-keyboard-response","419","455365","0.0-19.0-0.4-0.29","nrsrnfaqdl","","nrsrnfaqdl","""2024-11-13T16:08:57.037Z""","null","+","null","","","","","","",""
"","","","","","image-keyboard-response","420","456956","0.0-19.0-0.4-1.29","nrsrnfaqdl","","nrsrnfaqdl","""2024-11-13T16:08:57.037Z""","1590","materials/imgs/D53.png","arrowright","","[""materials/imgs/D56.png"",""materials/imgs/D17.png""]","false","random","","",""
"","","","","","html-keyboard-response","421","457458","0.0-19.0-0.4-0.30","nrsrnfaqdl","","nrsrnfaqdl","""2024-11-13T16:08:57.037Z""","null","+","null","","","","","","",""
"","","","","","image-keyboard-response","422","458552","0.0-19.0-0.4-1.30","nrsrnfaqdl","","nrsrnfaqdl","""2024-11-13T16:08:57.037Z""","1093","materials/imgs/D4.png","arrowright","","[""materials/imgs/D87.png"",""materials/imgs/D47.png""]","false","random","","",""
"","","","","","html-keyboard-response","423","459054","0.0-19.0-0.4-0.31","nrsrnfaqdl","","nrsrnfaqdl","""2024-11-13T16:08:57.037Z""","null","+","null","","","","","","",""
"","","","","","image-keyboard-response","424","459765","0.0-19.0-0.4-1.31","nrsrnfaqdl","","nrsrnfaqdl","""2024-11-13T16:08:57.037Z""","710","materials/imgs/D1.png","arrowleft","","[""materials/imgs/D102.png"",""materials/imgs/D48.png""]","false","random","","",""
"","","","","","html-keyboard-response","425","460267","0.0-19.0-0.4-0.32","nrsrnfaqdl","","nrsrnfaqdl","""2024-11-13T16:08:57.037Z""","null","+","null","","","","","","",""
"","","","","","image-keyboard-response","426","461453","0.0-19.0-0.4-1.32","nrsrnfaqdl","","nrsrnfaqdl","""2024-11-13T16:08:57.037Z""","1181","materials/imgs/D101.png","arrowright","","[""materials/imgs/D1.png"",""materials/imgs/D87.png""]","false","random","","",""
"","","","","","html-keyboard-response","427","461954","0.0-19.0-0.4-0.33","nrsrnfaqdl","","nrsrnfaqdl","""2024-11-13T16:08:57.037Z""","null","+","null","","","","","","",""
"","","","","","image-keyboard-response","428","463451","0.0-19.0-0.4-1.33","nrsrnfaqdl","","nrsrnfaqdl","""2024-11-13T16:08:57.037Z""","1496","materials/imgs/D18.png","arrowleft","","[""materials/imgs/D81.png"",""materials/imgs/D20.png""]","false","random","","",""
"","","","","","html-keyboard-response","429","463952","0.0-19.0-0.4-0.34","nrsrnfaqdl","","nrsrnfaqdl","""2024-11-13T16:08:57.037Z""","null","+","null","","","","","","",""
"","","","","","image-keyboard-response","430","466255","0.0-19.0-0.4-1.34","nrsrnfaqdl","","nrsrnfaqdl","""2024-11-13T16:08:57.037Z""","2301","materials/imgs/D1.png","arrowleft","","[""materials/imgs/D55.png"",""materials/imgs/D68.png""]","false","random","","",""
"","","","","","html-keyboard-response","431","466756","0.0-19.0-1.4-0.4","nrsrnfaqdl","","nrsrnfaqdl","""2024-11-13T16:08:57.037Z""","null","+","null","","","","","","",""
"","","","","","image-keyboard-response","432","467355","0.0-19.0-1.4-1.4","nrsrnfaqdl","","nrsrnfaqdl","""2024-11-13T16:08:57.037Z""","599","materials/imgs/D106.png","arrowleft","","[""materials/imgs/D106.png"",""materials/imgs/D101.png""]","","check","materials/imgs/D106.png","0","true"
"","","","","","html-keyboard-response","433","467856","0.0-19.0-2.4-0.8","nrsrnfaqdl","","nrsrnfaqdl","""2024-11-13T16:08:57.037Z""","null","+","null","","","","","","",""
"","","","","","image-keyboard-response","434","470883","0.0-19.0-2.4-1.8","nrsrnfaqdl","","nrsrnfaqdl","""2024-11-13T16:08:57.037Z""","3026","materials/imgs/D48.png","arrowright","","[""materials/imgs/D4.png"",""materials/imgs/D37.png""]","false","validation","","",""
"","","","","","html-keyboard-response","435","471384","0.0-19.0-2.4-0.9","nrsrnfaqdl","","nrsrnfaqdl","""2024-11-13T16:08:57.037Z""","null","+","null","","","","","","",""
"","","","","","image-keyboard-response","436","472585","0.0-19.0-2.4-1.9","nrsrnfaqdl","","nrsrnfaqdl","""2024-11-13T16:08:57.037Z""","1200","materials/imgs/D49.png","arrowright","","[""materials/imgs/D8.png"",""materials/imgs/D101.png""]","false","validation","","",""
