"success","timeout","failed_images","failed_audio","failed_video","trial_type","trial_index","time_elapsed","internal_node_id","subject_id","sona_id","subjectID","dateInfo","rt","stimulus","response","question_order","choices","speedy","sampleAlg","selected_image","selected_index","correct"
"true","false","[]","[]","[]","preload","0","78","0.0-0.0","ope452rjyj","","ope452rjyj","""2024-11-12T18:58:50.197Z""","","","","","","","","","",""
"true","","","","","fullscreen","1","2047","0.0-1.0","ope452rjyj","","ope452rjyj","""2024-11-12T18:58:50.197Z""","","","","","","","","","",""
"","","","","","html-keyboard-response","2","2063","0.0-2.0","ope452rjyj","","ope452rjyj","""2024-11-12T18:58:50.197Z""","null","","null","","","","","","",""
"","","","","","html-button-response","3","5634","0.0-3.0","ope452rjyj","","ope452rjyj","""2024-11-12T18:58:50.197Z""","3567","<div style='text-align:center; font-size:20px; line-height:25px; width: 1200px;'>
                Welcome to our experiment! <br>
                <br>At the bottom of this screen, you will see a button that says 'Begin Experiment.
                <br>Please only click that button when you are ready to complete the 25 minute experiment in one sitting. <br>
                <br> Once you click that button, it will not be possible to restart the experiment. <br><br>","0","","","","","","",""
"true","","","","","fullscreen","4","7682","0.0-4.0","ope452rjyj","","ope452rjyj","""2024-11-12T18:58:50.197Z""","","","","","","","","","",""
"","","","","","survey-multi-select","5","11483","0.0-5.0","ope452rjyj","","ope452rjyj","""2024-11-12T18:58:50.197Z""","3795","","{""Consent"":[""<strong>I consent</strong>""]}","[0]","","","","","",""
"","","","","","html-button-response","6","14610","0.0-6.0","ope452rjyj","","ope452rjyj","""2024-11-12T18:58:50.197Z""","3123","Welcome! <p> This experiment involves two parts: demographic information, followed by the experimental task.<p> It will take about 25 minutes to complete both parts.","0","","","","","","",""
"","","","","","survey-text","7","21936","0.0-7.0","ope452rjyj","","ope452rjyj","""2024-11-12T18:58:50.197Z""","7318","","{""Age"":""18"",""Gender"":""Female"",""Race/ethnicity"":""White""}","","","","","","",""
"","","","","","html-button-response","8","39616","0.0-8.0","ope452rjyj","","ope452rjyj","""2024-11-12T18:58:50.197Z""","17677","<div style='text-align: center;'>
      <p>In each trial of this task, you will see three texture images: one target item on top, and two choices beneath the target item.</p>
      <p><strong>Please select the item that is most like the target item.</strong></p>
      <p>To select the option on the <strong>LEFT</strong>, press the <strong>LEFT ARROW</strong> key. 
      To select the option on the <strong>RIGHT</strong>, press the <strong>RIGHT ARROW</strong> key.</p>
                  <!-- Target Image at the Top -->
      <div style='margin: 20px;'>
        <img src='materials/imgs/instruction_images/InstructionImg1D78.png' alt='Target Image' style='width:200px; height:auto;' />
        <p><em>Target Image</em></p>
      </div>

      <!-- Two Choice Images Below -->
      <div style='display: flex; justify-content: center;'>
        <div style='margin-right: 50px;'>
          <img src='materials/imgs/instruction_images/InstructionImg2D34.png' alt='Choice Image 1' style='width:150px; height:auto;' />
          <p><em><strong>LEFT ARROW</strong></em></p>
        </div>
        <div style='margin-left: 50px;'>
          <img src='materials/imgs/instruction_images/InstructionImg3D80.png' alt='Choice Image 2' style='width:150px; height:auto;' />
          <p><em><strong>RIGHT ARROW</strong></em></p>
        </div>
      </div>
    </div>

      <p>When you are ready to proceed, please click 'Continue' to begin practice.</p>","0","","","","","","",""
"","","","","","html-keyboard-response","9","42127","0.0-9.0","ope452rjyj","","ope452rjyj","""2024-11-12T18:58:50.197Z""","null","+","null","","","","","","",""
"","","","","","html-keyboard-response","10","42629","0.0-10.0-0.0-0.0","ope452rjyj","","ope452rjyj","""2024-11-12T18:58:50.197Z""","null","+","null","","","","","","",""
"","","","","","image-keyboard-response","11","45172","0.0-10.0-0.0-1.0","ope452rjyj","","ope452rjyj","""2024-11-12T18:58:50.197Z""","2531","materials/imgs/D81.png","arrowleft","","[""materials/imgs/D75.png"",""materials/imgs/D11.png""]","false","random","","",""
"","","","","","html-keyboard-response","12","45677","0.0-10.0-0.0-0.1","ope452rjyj","","ope452rjyj","""2024-11-12T18:58:50.197Z""","null","+","null","","","","","","",""
"","","","","","image-keyboard-response","13","47584","0.0-10.0-0.0-1.1","ope452rjyj","","ope452rjyj","""2024-11-12T18:58:50.197Z""","1901","materials/imgs/D75.png","arrowright","","[""materials/imgs/D102.png"",""materials/imgs/D106.png""]","false","random","","",""
"","","","","","html-keyboard-response","14","48093","0.0-10.0-0.0-0.2","ope452rjyj","","ope452rjyj","""2024-11-12T18:58:50.197Z""","null","+","null","","","","","","",""
"","","","","","image-keyboard-response","15","50856","0.0-10.0-0.0-1.2","ope452rjyj","","ope452rjyj","""2024-11-12T18:58:50.197Z""","2759","materials/imgs/D52.png","arrowleft","","[""materials/imgs/D8.png"",""materials/imgs/D46.png""]","false","random","","",""
"","","","","","html-keyboard-response","16","51367","0.0-10.0-0.0-0.3","ope452rjyj","","ope452rjyj","""2024-11-12T18:58:50.197Z""","null","+","null","","","","","","",""
"","","","","","image-keyboard-response","17","52774","0.0-10.0-0.0-1.3","ope452rjyj","","ope452rjyj","""2024-11-12T18:58:50.197Z""","1403","materials/imgs/D3.png","arrowright","","[""materials/imgs/D24.png"",""materials/imgs/D11.png""]","false","random","","",""
"","","","","","html-keyboard-response","18","53277","0.0-10.0-0.0-0.4","ope452rjyj","","ope452rjyj","""2024-11-12T18:58:50.197Z""","null","+","null","","","","","","",""
"","","","","","image-keyboard-response","19","54380","0.0-10.0-0.0-1.4","ope452rjyj","","ope452rjyj","""2024-11-12T18:58:50.197Z""","1096","materials/imgs/D3.png","arrowleft","","[""materials/imgs/D66.png"",""materials/imgs/D37.png""]","false","random","","",""
"","","","","","html-keyboard-response","20","54882","0.0-10.0-0.0-0.5","ope452rjyj","","ope452rjyj","""2024-11-12T18:58:50.197Z""","null","+","null","","","","","","",""
"","","","","","image-keyboard-response","21","56022","0.0-10.0-0.0-1.5","ope452rjyj","","ope452rjyj","""2024-11-12T18:58:50.197Z""","1132","materials/imgs/D18.png","arrowright","","[""materials/imgs/D52.png"",""materials/imgs/D1.png""]","false","random","","",""
"","","","","","html-keyboard-response","22","56533","0.0-10.0-0.0-0.6","ope452rjyj","","ope452rjyj","""2024-11-12T18:58:50.197Z""","null","+","null","","","","","","",""
"","","","","","image-keyboard-response","23","57983","0.0-10.0-0.0-1.6","ope452rjyj","","ope452rjyj","""2024-11-12T18:58:50.197Z""","1445","materials/imgs/D53.png","arrowleft","","[""materials/imgs/D84.png"",""materials/imgs/D68.png""]","false","random","","",""
"","","","","","html-keyboard-response","24","58493","0.0-10.0-0.0-0.7","ope452rjyj","","ope452rjyj","""2024-11-12T18:58:50.197Z""","null","+","null","","","","","","",""
"","","","","","image-keyboard-response","25","60061","0.0-10.0-0.0-1.7","ope452rjyj","","ope452rjyj","""2024-11-12T18:58:50.197Z""","1567","materials/imgs/D96.png","arrowleft","","[""materials/imgs/D68.png"",""materials/imgs/D16.png""]","false","random","","",""
"","","","","","html-keyboard-response","26","60565","0.0-10.0-0.0-0.8","ope452rjyj","","ope452rjyj","""2024-11-12T18:58:50.197Z""","null","+","null","","","","","","",""
"","","","","","image-keyboard-response","27","61461","0.0-10.0-0.0-1.8","ope452rjyj","","ope452rjyj","""2024-11-12T18:58:50.197Z""","892","materials/imgs/D26.png","arrowright","","[""materials/imgs/D48.png"",""materials/imgs/D74.png""]","false","random","","",""
"","","","","","html-keyboard-response","28","61973","0.0-10.0-0.0-0.9","ope452rjyj","","ope452rjyj","""2024-11-12T18:58:50.197Z""","null","+","null","","","","","","",""
"","","","","","image-keyboard-response","29","63054","0.0-10.0-0.0-1.9","ope452rjyj","","ope452rjyj","""2024-11-12T18:58:50.197Z""","1076","materials/imgs/D74.png","arrowleft","","[""materials/imgs/D29.png"",""materials/imgs/D92.png""]","false","random","","",""
"","","","","","html-button-response","30","65729","0.0-11.0","ope452rjyj","","ope452rjyj","""2024-11-12T18:58:50.197Z""","2673","<p>Great job!</p>
      <p>You are now ready to begin the experiment.</p>
      <p>There will be around 200 trials. You will have opportunities to take breaks at three stages of the trials.</p>
      <p>When you are ready to begin please click 'Continue'.</p>","0","","","","","","",""
"","","","","","html-keyboard-response","31","68240","0.0-12.0","ope452rjyj","","ope452rjyj","""2024-11-12T18:58:50.197Z""","null","+","null","","","","","","",""
"","","","","","html-keyboard-response","32","68748","0.0-13.0-0.0-0.0","ope452rjyj","","ope452rjyj","""2024-11-12T18:58:50.197Z""","null","+","null","","","","","","",""
"","","","","","image-keyboard-response","33","69888","0.0-13.0-0.0-1.0","ope452rjyj","","ope452rjyj","""2024-11-12T18:58:50.197Z""","1120","materials/imgs/D8.png","arrowright","","[""materials/imgs/D66.png"",""materials/imgs/D103.png""]","false","random","","",""
"","","","","","html-keyboard-response","34","70391","0.0-13.0-0.0-0.1","ope452rjyj","","ope452rjyj","""2024-11-12T18:58:50.197Z""","null","+","null","","","","","","",""
"","","","","","image-keyboard-response","35","72172","0.0-13.0-0.0-1.1","ope452rjyj","","ope452rjyj","""2024-11-12T18:58:50.197Z""","1777","materials/imgs/D24.png","arrowleft","","[""materials/imgs/D14.png"",""materials/imgs/D16.png""]","false","random","","",""
"","","","","","html-keyboard-response","36","72681","0.0-13.0-0.0-0.2","ope452rjyj","","ope452rjyj","""2024-11-12T18:58:50.197Z""","null","+","null","","","","","","",""
"","","","","","image-keyboard-response","37","73911","0.0-13.0-0.0-1.2","ope452rjyj","","ope452rjyj","""2024-11-12T18:58:50.197Z""","1226","materials/imgs/D79.png","arrowright","","[""materials/imgs/D82.png"",""materials/imgs/D57.png""]","false","random","","",""
"","","","","","html-keyboard-response","38","74416","0.0-13.0-0.0-0.3","ope452rjyj","","ope452rjyj","""2024-11-12T18:58:50.197Z""","null","+","null","","","","","","",""
"","","","","","image-keyboard-response","39","75302","0.0-13.0-0.0-1.3","ope452rjyj","","ope452rjyj","""2024-11-12T18:58:50.197Z""","882","materials/imgs/D22.png","arrowleft","","[""materials/imgs/D4.png"",""materials/imgs/D64.png""]","false","random","","",""
"","","","","","html-keyboard-response","40","75807","0.0-13.0-0.0-0.4","ope452rjyj","","ope452rjyj","""2024-11-12T18:58:50.197Z""","null","+","null","","","","","","",""
"","","","","","image-keyboard-response","41","76336","0.0-13.0-0.0-1.4","ope452rjyj","","ope452rjyj","""2024-11-12T18:58:50.197Z""","524","materials/imgs/D3.png","arrowright","","[""materials/imgs/D48.png"",""materials/imgs/D9.png""]","false","random","","",""
"","","","","","html-keyboard-response","42","76847","0.0-13.0-0.0-0.5","ope452rjyj","","ope452rjyj","""2024-11-12T18:58:50.197Z""","null","+","null","","","","","","",""
"","","","","","image-keyboard-response","43","77513","0.0-13.0-0.0-1.5","ope452rjyj","","ope452rjyj","""2024-11-12T18:58:50.197Z""","659","materials/imgs/D83.png","arrowright","","[""materials/imgs/D34.png"",""materials/imgs/D92.png""]","false","random","","",""
"","","","","","html-keyboard-response","44","78023","0.0-13.0-0.0-0.6","ope452rjyj","","ope452rjyj","""2024-11-12T18:58:50.197Z""","null","+","null","","","","","","",""
"","","","","","image-keyboard-response","45","78519","0.0-13.0-0.0-1.6","ope452rjyj","","ope452rjyj","""2024-11-12T18:58:50.197Z""","491","materials/imgs/D48.png","arrowright","","[""materials/imgs/D1.png"",""materials/imgs/D92.png""]","true","random","","",""
"","","","","","html-keyboard-response","46","83668","0.0-13.0-0.0-2.6-0.6","ope452rjyj","","ope452rjyj","""2024-11-12T18:58:50.197Z""","5147","<p><strong>You're going too fast.</strong><p>Please slow down and assess each triplet.<p>Press 'y' to continue.</p></p>","y","","","","","","",""
"","","","","","html-keyboard-response","47","84172","0.0-13.0-1.0-0.0","ope452rjyj","","ope452rjyj","""2024-11-12T18:58:50.197Z""","null","+","null","","","","","","",""
"","","","","","image-keyboard-response","48","86701","0.0-13.0-1.0-1.0","ope452rjyj","","ope452rjyj","""2024-11-12T18:58:50.197Z""","2525","materials/imgs/D78.png","arrowright","","[""materials/imgs/D76.png"",""materials/imgs/D78.png""]","","check","materials/imgs/D78.png","1","true"
"","","","","","html-keyboard-response","49","87212","0.0-13.0-2.0-0.0","ope452rjyj","","ope452rjyj","""2024-11-12T18:58:50.197Z""","null","+","null","","","","","","",""
"","","","","","image-keyboard-response","50","89279","0.0-13.0-2.0-1.0","ope452rjyj","","ope452rjyj","""2024-11-12T18:58:50.197Z""","2061","materials/imgs/D22.png","arrowleft","","[""materials/imgs/D4.png"",""materials/imgs/D25.png""]","false","validation","","",""
"","","","","","html-keyboard-response","51","89792","0.0-13.0-2.0-0.1","ope452rjyj","","ope452rjyj","""2024-11-12T18:58:50.197Z""","null","+","null","","","","","","",""
"","","","","","image-keyboard-response","52","91913","0.0-13.0-2.0-1.1","ope452rjyj","","ope452rjyj","""2024-11-12T18:58:50.197Z""","2115","materials/imgs/D101.png","arrowleft","","[""materials/imgs/D76.png"",""materials/imgs/D47.png""]","false","validation","","",""
"","","","","","html-keyboard-response","53","92422","0.0-13.0-0.1-0.7","ope452rjyj","","ope452rjyj","""2024-11-12T18:58:50.197Z""","null","+","null","","","","","","",""
"","","","","","image-keyboard-response","54","93618","0.0-13.0-0.1-1.7","ope452rjyj","","ope452rjyj","""2024-11-12T18:58:50.197Z""","1191","materials/imgs/D37.png","arrowleft","","[""materials/imgs/D78.png"",""materials/imgs/D14.png""]","false","random","","",""
"","","","","","html-keyboard-response","55","94122","0.0-13.0-0.1-0.8","ope452rjyj","","ope452rjyj","""2024-11-12T18:58:50.197Z""","null","+","null","","","","","","",""
"","","","","","image-keyboard-response","56","96609","0.0-13.0-0.1-1.8","ope452rjyj","","ope452rjyj","""2024-11-12T18:58:50.197Z""","2481","materials/imgs/D103.png","arrowright","","[""materials/imgs/D11.png"",""materials/imgs/D20.png""]","false","random","","",""
"","","","","","html-keyboard-response","57","97126","0.0-13.0-0.1-0.9","ope452rjyj","","ope452rjyj","""2024-11-12T18:58:50.197Z""","null","+","null","","","","","","",""
"","","","","","image-keyboard-response","58","98542","0.0-13.0-0.1-1.9","ope452rjyj","","ope452rjyj","""2024-11-12T18:58:50.197Z""","1410","materials/imgs/D111.png","arrowleft","","[""materials/imgs/D29.png"",""materials/imgs/D11.png""]","false","random","","",""
"","","","","","html-keyboard-response","59","99047","0.0-13.0-0.1-0.10","ope452rjyj","","ope452rjyj","""2024-11-12T18:58:50.197Z""","null","+","null","","","","","","",""
"","","","","","image-keyboard-response","60","100248","0.0-13.0-0.1-1.10","ope452rjyj","","ope452rjyj","""2024-11-12T18:58:50.197Z""","1196","materials/imgs/D80.png","arrowleft","","[""materials/imgs/D87.png"",""materials/imgs/D95.png""]","false","random","","",""
"","","","","","html-keyboard-response","61","100762","0.0-13.0-0.1-0.11","ope452rjyj","","ope452rjyj","""2024-11-12T18:58:50.197Z""","null","+","null","","","","","","",""
"","","","","","image-keyboard-response","62","101683","0.0-13.0-0.1-1.11","ope452rjyj","","ope452rjyj","""2024-11-12T18:58:50.197Z""","917","materials/imgs/D21.png","arrowright","","[""materials/imgs/D8.png"",""materials/imgs/D34.png""]","false","random","","",""
"","","","","","html-keyboard-response","63","102196","0.0-13.0-0.1-0.12","ope452rjyj","","ope452rjyj","""2024-11-12T18:58:50.197Z""","null","+","null","","","","","","",""
"","","","","","image-keyboard-response","64","103369","0.0-13.0-0.1-1.12","ope452rjyj","","ope452rjyj","""2024-11-12T18:58:50.197Z""","1169","materials/imgs/D11.png","arrowright","","[""materials/imgs/D51.png"",""materials/imgs/D76.png""]","false","random","","",""
"","","","","","html-keyboard-response","65","103872","0.0-13.0-0.1-0.13","ope452rjyj","","ope452rjyj","""2024-11-12T18:58:50.197Z""","null","+","null","","","","","","",""
"","","","","","image-keyboard-response","66","104671","0.0-13.0-0.1-1.13","ope452rjyj","","ope452rjyj","""2024-11-12T18:58:50.197Z""","794","materials/imgs/D14.png","arrowright","","[""materials/imgs/D34.png"",""materials/imgs/D94.png""]","false","random","","",""
"","","","","","html-keyboard-response","67","105181","0.0-13.0-1.1-0.1","ope452rjyj","","ope452rjyj","""2024-11-12T18:58:50.197Z""","null","+","null","","","","","","",""
"","","","","","image-keyboard-response","68","106326","0.0-13.0-1.1-1.1","ope452rjyj","","ope452rjyj","""2024-11-12T18:58:50.197Z""","1141","materials/imgs/D64.png","arrowleft","","[""materials/imgs/D64.png"",""materials/imgs/D53.png""]","","check","materials/imgs/D64.png","0","true"
"","","","","","html-keyboard-response","69","106838","0.0-13.0-2.1-0.2","ope452rjyj","","ope452rjyj","""2024-11-12T18:58:50.197Z""","null","+","null","","","","","","",""
"","","","","","image-keyboard-response","70","108089","0.0-13.0-2.1-1.2","ope452rjyj","","ope452rjyj","""2024-11-12T18:58:50.197Z""","1247","materials/imgs/D102.png","arrowleft","","[""materials/imgs/D32.png"",""materials/imgs/D111.png""]","false","validation","","",""
"","","","","","html-keyboard-response","71","108605","0.0-13.0-2.1-0.3","ope452rjyj","","ope452rjyj","""2024-11-12T18:58:50.197Z""","null","+","null","","","","","","",""
"","","","","","image-keyboard-response","72","110903","0.0-13.0-2.1-1.3","ope452rjyj","","ope452rjyj","""2024-11-12T18:58:50.197Z""","2294","materials/imgs/D24.png","arrowleft","","[""materials/imgs/D36.png"",""materials/imgs/D8.png""]","false","validation","","",""
"","","","","","html-keyboard-response","73","111413","0.0-13.0-0.2-0.14","ope452rjyj","","ope452rjyj","""2024-11-12T18:58:50.197Z""","null","+","null","","","","","","",""
"","","","","","image-keyboard-response","74","111851","0.0-13.0-0.2-1.14","ope452rjyj","","ope452rjyj","""2024-11-12T18:58:50.197Z""","434","materials/imgs/D74.png","arrowleft","","[""materials/imgs/D24.png"",""materials/imgs/D106.png""]","true","random","","",""
"","","","","","html-keyboard-response","75","113964","0.0-13.0-0.2-2.14-0.14","ope452rjyj","","ope452rjyj","""2024-11-12T18:58:50.197Z""","2111","<p><strong>You're going too fast.</strong><p>Please slow down and assess each triplet.<p>Press 'y' to continue.</p></p>","y","","","","","","",""
"","","","","","html-keyboard-response","76","114473","0.0-13.0-0.2-0.15","ope452rjyj","","ope452rjyj","""2024-11-12T18:58:50.197Z""","null","+","null","","","","","","",""
"","","","","","image-keyboard-response","77","115847","0.0-13.0-0.2-1.15","ope452rjyj","","ope452rjyj","""2024-11-12T18:58:50.197Z""","1370","materials/imgs/D24.png","arrowleft","","[""materials/imgs/D68.png"",""materials/imgs/D101.png""]","false","random","","",""
"","","","","","html-keyboard-response","78","116355","0.0-13.0-0.2-0.16","ope452rjyj","","ope452rjyj","""2024-11-12T18:58:50.197Z""","null","+","null","","","","","","",""
"","","","","","image-keyboard-response","79","117990","0.0-13.0-0.2-1.16","ope452rjyj","","ope452rjyj","""2024-11-12T18:58:50.197Z""","1631","materials/imgs/D32.png","arrowright","","[""materials/imgs/D65.png"",""materials/imgs/D80.png""]","false","random","","",""
"","","","","","html-keyboard-response","80","118496","0.0-13.0-0.2-0.17","ope452rjyj","","ope452rjyj","""2024-11-12T18:58:50.197Z""","null","+","null","","","","","","",""
"","","","","","image-keyboard-response","81","141510","0.0-13.0-0.2-1.17","ope452rjyj","","ope452rjyj","""2024-11-12T18:58:50.197Z""","23012","materials/imgs/D16.png","arrowright","","[""materials/imgs/D76.png"",""materials/imgs/D66.png""]","false","random","","",""
"","","","","","html-keyboard-response","82","142026","0.0-13.0-0.2-0.18","ope452rjyj","","ope452rjyj","""2024-11-12T18:58:50.197Z""","null","+","null","","","","","","",""
"","","","","","image-keyboard-response","83","142803","0.0-13.0-0.2-1.18","ope452rjyj","","ope452rjyj","""2024-11-12T18:58:50.197Z""","776","materials/imgs/D46.png","arrowleft","","[""materials/imgs/D68.png"",""materials/imgs/D18.png""]","false","random","","",""
"","","","","","html-keyboard-response","84","143303","0.0-13.0-0.2-0.19","ope452rjyj","","ope452rjyj","""2024-11-12T18:58:50.197Z""","null","+","null","","","","","","",""
"","","","","","image-keyboard-response","85","144105","0.0-13.0-0.2-1.19","ope452rjyj","","ope452rjyj","""2024-11-12T18:58:50.197Z""","799","materials/imgs/D20.png","arrowright","","[""materials/imgs/D46.png"",""materials/imgs/D36.png""]","false","random","","",""
"","","","","","html-keyboard-response","86","144620","0.0-13.0-0.2-0.20","ope452rjyj","","ope452rjyj","""2024-11-12T18:58:50.197Z""","null","+","null","","","","","","",""
"","","","","","image-keyboard-response","87","146137","0.0-13.0-0.2-1.20","ope452rjyj","","ope452rjyj","""2024-11-12T18:58:50.197Z""","1514","materials/imgs/D4.png","arrowleft","","[""materials/imgs/D51.png"",""materials/imgs/D78.png""]","false","random","","",""
"","","","","","html-keyboard-response","88","146644","0.0-13.0-1.2-0.2","ope452rjyj","","ope452rjyj","""2024-11-12T18:58:50.197Z""","null","+","null","","","","","","",""
"","","","","","image-keyboard-response","89","148266","0.0-13.0-1.2-1.2","ope452rjyj","","ope452rjyj","""2024-11-12T18:58:50.197Z""","1618","materials/imgs/D64.png","arrowleft","","[""materials/imgs/D64.png"",""materials/imgs/D53.png""]","","check","materials/imgs/D64.png","0","true"
"","","","","","html-keyboard-response","90","148769","0.0-13.0-2.2-0.4","ope452rjyj","","ope452rjyj","""2024-11-12T18:58:50.197Z""","null","+","null","","","","","","",""
"","","","","","image-keyboard-response","91","149567","0.0-13.0-2.2-1.4","ope452rjyj","","ope452rjyj","""2024-11-12T18:58:50.197Z""","796","materials/imgs/D9.png","arrowright","","[""materials/imgs/D103.png"",""materials/imgs/D4.png""]","false","validation","","",""
"","","","","","html-keyboard-response","92","150070","0.0-13.0-2.2-0.5","ope452rjyj","","ope452rjyj","""2024-11-12T18:58:50.197Z""","null","+","null","","","","","","",""
"","","","","","image-keyboard-response","93","151667","0.0-13.0-2.2-1.5","ope452rjyj","","ope452rjyj","""2024-11-12T18:58:50.197Z""","1595","materials/imgs/D95.png","arrowright","","[""materials/imgs/D36.png"",""materials/imgs/D4.png""]","false","validation","","",""
"","","","","","html-keyboard-response","94","152186","0.0-13.0-0.3-0.21","ope452rjyj","","ope452rjyj","""2024-11-12T18:58:50.197Z""","null","+","null","","","","","","",""
"","","","","","image-keyboard-response","95","153571","0.0-13.0-0.3-1.21","ope452rjyj","","ope452rjyj","""2024-11-12T18:58:50.197Z""","1381","materials/imgs/D83.png","arrowleft","","[""materials/imgs/D81.png"",""materials/imgs/D66.png""]","false","random","","",""
"","","","","","html-keyboard-response","96","154078","0.0-13.0-0.3-0.22","ope452rjyj","","ope452rjyj","""2024-11-12T18:58:50.197Z""","null","+","null","","","","","","",""
"","","","","","image-keyboard-response","97","155229","0.0-13.0-0.3-1.22","ope452rjyj","","ope452rjyj","""2024-11-12T18:58:50.197Z""","1148","materials/imgs/D106.png","arrowright","","[""materials/imgs/D8.png"",""materials/imgs/D55.png""]","false","random","","",""
"","","","","","html-keyboard-response","98","155733","0.0-13.0-0.3-0.23","ope452rjyj","","ope452rjyj","""2024-11-12T18:58:50.197Z""","null","+","null","","","","","","",""
"","","","","","image-keyboard-response","99","158741","0.0-13.0-0.3-1.23","ope452rjyj","","ope452rjyj","""2024-11-12T18:58:50.197Z""","3006","materials/imgs/D25.png","arrowleft","","[""materials/imgs/D104.png"",""materials/imgs/D68.png""]","false","random","","",""
"","","","","","html-keyboard-response","100","159252","0.0-13.0-0.3-0.24","ope452rjyj","","ope452rjyj","""2024-11-12T18:58:50.197Z""","null","+","null","","","","","","",""
"","","","","","image-keyboard-response","101","160135","0.0-13.0-0.3-1.24","ope452rjyj","","ope452rjyj","""2024-11-12T18:58:50.197Z""","878","materials/imgs/D47.png","arrowright","","[""materials/imgs/D66.png"",""materials/imgs/D22.png""]","false","random","","",""
"","","","","","html-keyboard-response","102","160644","0.0-13.0-0.3-0.25","ope452rjyj","","ope452rjyj","""2024-11-12T18:58:50.197Z""","null","+","null","","","","","","",""
"","","","","","image-keyboard-response","103","161524","0.0-13.0-0.3-1.25","ope452rjyj","","ope452rjyj","""2024-11-12T18:58:50.197Z""","876","materials/imgs/D49.png","arrowright","","[""materials/imgs/D96.png"",""materials/imgs/D3.png""]","false","random","","",""
"","","","","","html-keyboard-response","104","162027","0.0-13.0-0.3-0.26","ope452rjyj","","ope452rjyj","""2024-11-12T18:58:50.197Z""","null","+","null","","","","","","",""
"","","","","","image-keyboard-response","105","163035","0.0-13.0-0.3-1.26","ope452rjyj","","ope452rjyj","""2024-11-12T18:58:50.197Z""","1004","materials/imgs/D48.png","arrowright","","[""materials/imgs/D68.png"",""materials/imgs/D8.png""]","false","random","","",""
"","","","","","html-keyboard-response","106","163545","0.0-13.0-0.3-0.27","ope452rjyj","","ope452rjyj","""2024-11-12T18:58:50.197Z""","null","+","null","","","","","","",""
"","","","","","image-keyboard-response","107","164306","0.0-13.0-0.3-1.27","ope452rjyj","","ope452rjyj","""2024-11-12T18:58:50.197Z""","754","materials/imgs/D103.png","arrowright","","[""materials/imgs/D51.png"",""materials/imgs/D84.png""]","false","random","","",""
"","","","","","html-keyboard-response","108","164811","0.0-13.0-1.3-0.3","ope452rjyj","","ope452rjyj","""2024-11-12T18:58:50.197Z""","null","+","null","","","","","","",""
"","","","","","image-keyboard-response","109","166698","0.0-13.0-1.3-1.3","ope452rjyj","","ope452rjyj","""2024-11-12T18:58:50.197Z""","1885","materials/imgs/D101.png","arrowright","","[""materials/imgs/D106.png"",""materials/imgs/D101.png""]","","check","materials/imgs/D101.png","1","true"
"","","","","","html-keyboard-response","110","167203","0.0-13.0-2.3-0.6","ope452rjyj","","ope452rjyj","""2024-11-12T18:58:50.197Z""","null","+","null","","","","","","",""
"","","","","","image-keyboard-response","111","168755","0.0-13.0-2.3-1.6","ope452rjyj","","ope452rjyj","""2024-11-12T18:58:50.197Z""","1549","materials/imgs/D81.png","arrowright","","[""materials/imgs/D105.png"",""materials/imgs/D24.png""]","false","validation","","",""
"","","","","","html-keyboard-response","112","169271","0.0-13.0-2.3-0.7","ope452rjyj","","ope452rjyj","""2024-11-12T18:58:50.197Z""","null","+","null","","","","","","",""
"","","","","","image-keyboard-response","113","171064","0.0-13.0-2.3-1.7","ope452rjyj","","ope452rjyj","""2024-11-12T18:58:50.197Z""","1790","materials/imgs/D26.png","arrowleft","","[""materials/imgs/D36.png"",""materials/imgs/D92.png""]","false","validation","","",""
"","","","","","html-keyboard-response","114","171576","0.0-13.0-0.4-0.28","ope452rjyj","","ope452rjyj","""2024-11-12T18:58:50.197Z""","null","+","null","","","","","","",""
"","","","","","image-keyboard-response","115","173764","0.0-13.0-0.4-1.28","ope452rjyj","","ope452rjyj","""2024-11-12T18:58:50.197Z""","2185","materials/imgs/D85.png","arrowleft","","[""materials/imgs/D87.png"",""materials/imgs/D76.png""]","false","random","","",""
"","","","","","html-keyboard-response","116","174276","0.0-13.0-0.4-0.29","ope452rjyj","","ope452rjyj","""2024-11-12T18:58:50.197Z""","null","+","null","","","","","","",""
"","","","","","image-keyboard-response","117","175279","0.0-13.0-0.4-1.29","ope452rjyj","","ope452rjyj","""2024-11-12T18:58:50.197Z""","999","materials/imgs/D47.png","arrowleft","","[""materials/imgs/D35.png"",""materials/imgs/D25.png""]","false","random","","",""
"","","","","","html-keyboard-response","118","175786","0.0-13.0-0.4-0.30","ope452rjyj","","ope452rjyj","""2024-11-12T18:58:50.197Z""","null","+","null","","","","","","",""
"","","","","","image-keyboard-response","119","177616","0.0-13.0-0.4-1.30","ope452rjyj","","ope452rjyj","""2024-11-12T18:58:50.197Z""","1827","materials/imgs/D74.png","arrowright","","[""materials/imgs/D37.png"",""materials/imgs/D16.png""]","false","random","","",""
"","","","","","html-keyboard-response","120","178127","0.0-13.0-0.4-0.31","ope452rjyj","","ope452rjyj","""2024-11-12T18:58:50.197Z""","null","+","null","","","","","","",""
"","","","","","image-keyboard-response","121","178963","0.0-13.0-0.4-1.31","ope452rjyj","","ope452rjyj","""2024-11-12T18:58:50.197Z""","830","materials/imgs/D22.png","arrowleft","","[""materials/imgs/D21.png"",""materials/imgs/D47.png""]","false","random","","",""
"","","","","","html-keyboard-response","122","179472","0.0-13.0-0.4-0.32","ope452rjyj","","ope452rjyj","""2024-11-12T18:58:50.197Z""","null","+","null","","","","","","",""
"","","","","","image-keyboard-response","123","181583","0.0-13.0-0.4-1.32","ope452rjyj","","ope452rjyj","""2024-11-12T18:58:50.197Z""","2105","materials/imgs/D46.png","arrowright","","[""materials/imgs/D94.png"",""materials/imgs/D1.png""]","false","random","","",""
"","","","","","html-keyboard-response","124","182086","0.0-13.0-0.4-0.33","ope452rjyj","","ope452rjyj","""2024-11-12T18:58:50.197Z""","null","+","null","","","","","","",""
"","","","","","image-keyboard-response","125","182932","0.0-13.0-0.4-1.33","ope452rjyj","","ope452rjyj","""2024-11-12T18:58:50.197Z""","841","materials/imgs/D11.png","arrowright","","[""materials/imgs/D51.png"",""materials/imgs/D82.png""]","false","random","","",""
"","","","","","html-keyboard-response","126","183442","0.0-13.0-0.4-0.34","ope452rjyj","","ope452rjyj","""2024-11-12T18:58:50.197Z""","null","+","null","","","","","","",""
"","","","","","image-keyboard-response","127","184903","0.0-13.0-0.4-1.34","ope452rjyj","","ope452rjyj","""2024-11-12T18:58:50.197Z""","1455","materials/imgs/D34.png","arrowleft","","[""materials/imgs/D32.png"",""materials/imgs/D4.png""]","false","random","","",""
"","","","","","html-keyboard-response","128","185409","0.0-13.0-1.4-0.4","ope452rjyj","","ope452rjyj","""2024-11-12T18:58:50.197Z""","null","+","null","","","","","","",""
"","","","","","image-keyboard-response","129","186466","0.0-13.0-1.4-1.4","ope452rjyj","","ope452rjyj","""2024-11-12T18:58:50.197Z""","1053","materials/imgs/D18.png","arrowright","","[""materials/imgs/D8.png"",""materials/imgs/D18.png""]","","check","materials/imgs/D18.png","1","true"
"","","","","","html-keyboard-response","130","186968","0.0-13.0-2.4-0.8","ope452rjyj","","ope452rjyj","""2024-11-12T18:58:50.197Z""","null","+","null","","","","","","",""
"","","","","","image-keyboard-response","131","188386","0.0-13.0-2.4-1.8","ope452rjyj","","ope452rjyj","""2024-11-12T18:58:50.197Z""","1415","materials/imgs/D66.png","arrowleft","","[""materials/imgs/D85.png"",""materials/imgs/D25.png""]","false","validation","","",""
"","","","","","html-keyboard-response","132","188892","0.0-13.0-2.4-0.9","ope452rjyj","","ope452rjyj","""2024-11-12T18:58:50.197Z""","null","+","null","","","","","","",""
"","","","","","image-keyboard-response","133","189649","0.0-13.0-2.4-1.9","ope452rjyj","","ope452rjyj","""2024-11-12T18:58:50.197Z""","753","materials/imgs/D1.png","arrowleft","","[""materials/imgs/D57.png"",""materials/imgs/D76.png""]","false","validation","","",""
"","","","","","html-button-response","134","192583","0.0-14.0","ope452rjyj","","ope452rjyj","""2024-11-12T18:58:50.197Z""","2932","You have completed 25% of the trials. Please click 'Continue' when you are ready proceed.","0","","","","","","",""
"","","","","","html-keyboard-response","135","193085","0.0-15.0-0.0-0.0","ope452rjyj","","ope452rjyj","""2024-11-12T18:58:50.197Z""","null","+","null","","","","","","",""
"","","","","","image-keyboard-response","136","194368","0.0-15.0-0.0-1.0","ope452rjyj","","ope452rjyj","""2024-11-12T18:58:50.197Z""","1281","materials/imgs/D16.png","arrowright","","[""materials/imgs/D4.png"",""materials/imgs/D1.png""]","false","random","","",""
"","","","","","html-keyboard-response","137","194875","0.0-15.0-0.0-0.1","ope452rjyj","","ope452rjyj","""2024-11-12T18:58:50.197Z""","null","+","null","","","","","","",""
"","","","","","image-keyboard-response","138","195764","0.0-15.0-0.0-1.1","ope452rjyj","","ope452rjyj","""2024-11-12T18:58:50.197Z""","886","materials/imgs/D68.png","arrowright","","[""materials/imgs/D34.png"",""materials/imgs/D6.png""]","false","random","","",""
"","","","","","html-keyboard-response","139","196275","0.0-15.0-0.0-0.2","ope452rjyj","","ope452rjyj","""2024-11-12T18:58:50.197Z""","null","+","null","","","","","","",""
"","","","","","image-keyboard-response","140","197682","0.0-15.0-0.0-1.2","ope452rjyj","","ope452rjyj","""2024-11-12T18:58:50.197Z""","1404","materials/imgs/D49.png","arrowleft","","[""materials/imgs/D92.png"",""materials/imgs/D95.png""]","false","random","","",""
"","","","","","html-keyboard-response","141","198185","0.0-15.0-0.0-0.3","ope452rjyj","","ope452rjyj","""2024-11-12T18:58:50.197Z""","null","+","null","","","","","","",""
"","","","","","image-keyboard-response","142","199215","0.0-15.0-0.0-1.3","ope452rjyj","","ope452rjyj","""2024-11-12T18:58:50.197Z""","1025","materials/imgs/D17.png","arrowright","","[""materials/imgs/D102.png"",""materials/imgs/D21.png""]","false","random","","",""
"","","","","","html-keyboard-response","143","199726","0.0-15.0-0.0-0.4","ope452rjyj","","ope452rjyj","""2024-11-12T18:58:50.197Z""","null","+","null","","","","","","",""
"","","","","","image-keyboard-response","144","201106","0.0-15.0-0.0-1.4","ope452rjyj","","ope452rjyj","""2024-11-12T18:58:50.197Z""","1374","materials/imgs/D66.png","arrowleft","","[""materials/imgs/D26.png"",""materials/imgs/D94.png""]","false","random","","",""
"","","","","","html-keyboard-response","145","201609","0.0-15.0-0.0-0.5","ope452rjyj","","ope452rjyj","""2024-11-12T18:58:50.197Z""","null","+","null","","","","","","",""
"","","","","","image-keyboard-response","146","203672","0.0-15.0-0.0-1.5","ope452rjyj","","ope452rjyj","""2024-11-12T18:58:50.197Z""","2059","materials/imgs/D53.png","arrowleft","","[""materials/imgs/D52.png"",""materials/imgs/D84.png""]","false","random","","",""
"","","","","","html-keyboard-response","147","204186","0.0-15.0-0.0-0.6","ope452rjyj","","ope452rjyj","""2024-11-12T18:58:50.197Z""","null","+","null","","","","","","",""
"","","","","","image-keyboard-response","148","206207","0.0-15.0-0.0-1.6","ope452rjyj","","ope452rjyj","""2024-11-12T18:58:50.197Z""","2016","materials/imgs/D36.png","arrowleft","","[""materials/imgs/D14.png"",""materials/imgs/D8.png""]","false","random","","",""
"","","","","","html-keyboard-response","149","206724","0.0-15.0-1.0-0.0","ope452rjyj","","ope452rjyj","""2024-11-12T18:58:50.197Z""","null","+","null","","","","","","",""
"","","","","","image-keyboard-response","150","207516","0.0-15.0-1.0-1.0","ope452rjyj","","ope452rjyj","""2024-11-12T18:58:50.197Z""","786","materials/imgs/D101.png","arrowright","","[""materials/imgs/D106.png"",""materials/imgs/D101.png""]","","check","materials/imgs/D101.png","1","true"
"","","","","","html-keyboard-response","151","208025","0.0-15.0-2.0-0.0","ope452rjyj","","ope452rjyj","""2024-11-12T18:58:50.197Z""","null","+","null","","","","","","",""
"","","","","","image-keyboard-response","152","209054","0.0-15.0-2.0-1.0","ope452rjyj","","ope452rjyj","""2024-11-12T18:58:50.197Z""","1023","materials/imgs/D103.png","arrowleft","","[""materials/imgs/D76.png"",""materials/imgs/D106.png""]","false","validation","","",""
"","","","","","html-keyboard-response","153","209555","0.0-15.0-2.0-0.1","ope452rjyj","","ope452rjyj","""2024-11-12T18:58:50.197Z""","null","+","null","","","","","","",""
"","","","","","image-keyboard-response","154","212225","0.0-15.0-2.0-1.1","ope452rjyj","","ope452rjyj","""2024-11-12T18:58:50.197Z""","2667","materials/imgs/D106.png","arrowleft","","[""materials/imgs/D57.png"",""materials/imgs/D18.png""]","false","validation","","",""
"","","","","","html-keyboard-response","155","212742","0.0-15.0-0.1-0.7","ope452rjyj","","ope452rjyj","""2024-11-12T18:58:50.197Z""","null","+","null","","","","","","",""
"","","","","","image-keyboard-response","156","213768","0.0-15.0-0.1-1.7","ope452rjyj","","ope452rjyj","""2024-11-12T18:58:50.197Z""","1022","materials/imgs/D77.png","arrowleft","","[""materials/imgs/D51.png"",""materials/imgs/D37.png""]","false","random","","",""
"","","","","","html-keyboard-response","157","214275","0.0-15.0-0.1-0.8","ope452rjyj","","ope452rjyj","""2024-11-12T18:58:50.197Z""","null","+","null","","","","","","",""
"","","","","","image-keyboard-response","158","215077","0.0-15.0-0.1-1.8","ope452rjyj","","ope452rjyj","""2024-11-12T18:58:50.197Z""","799","materials/imgs/D68.png","arrowleft","","[""materials/imgs/D101.png"",""materials/imgs/D22.png""]","false","random","","",""
"","","","","","html-keyboard-response","159","215585","0.0-15.0-0.1-0.9","ope452rjyj","","ope452rjyj","""2024-11-12T18:58:50.197Z""","null","+","null","","","","","","",""
"","","","","","image-keyboard-response","160","216376","0.0-15.0-0.1-1.9","ope452rjyj","","ope452rjyj","""2024-11-12T18:58:50.197Z""","772","materials/imgs/D52.png","arrowright","","[""materials/imgs/D51.png"",""materials/imgs/D25.png""]","false","random","","",""
"","","","","","html-keyboard-response","161","216885","0.0-15.0-0.1-0.10","ope452rjyj","","ope452rjyj","""2024-11-12T18:58:50.197Z""","null","+","null","","","","","","",""
"","","","","","image-keyboard-response","162","218080","0.0-15.0-0.1-1.10","ope452rjyj","","ope452rjyj","""2024-11-12T18:58:50.197Z""","1193","materials/imgs/D25.png","arrowright","","[""materials/imgs/D105.png"",""materials/imgs/D26.png""]","false","random","","",""
"","","","","","html-keyboard-response","163","218584","0.0-15.0-0.1-0.11","ope452rjyj","","ope452rjyj","""2024-11-12T18:58:50.197Z""","null","+","null","","","","","","",""
"","","","","","image-keyboard-response","164","220260","0.0-15.0-0.1-1.11","ope452rjyj","","ope452rjyj","""2024-11-12T18:58:50.197Z""","1673","materials/imgs/D36.png","arrowleft","","[""materials/imgs/D74.png"",""materials/imgs/D96.png""]","false","random","","",""
"","","","","","html-keyboard-response","165","220768","0.0-15.0-0.1-0.12","ope452rjyj","","ope452rjyj","""2024-11-12T18:58:50.197Z""","null","+","null","","","","","","",""
"","","","","","image-keyboard-response","166","222408","0.0-15.0-0.1-1.12","ope452rjyj","","ope452rjyj","""2024-11-12T18:58:50.197Z""","1636","materials/imgs/D96.png","arrowleft","","[""materials/imgs/D85.png"",""materials/imgs/D53.png""]","false","random","","",""
"","","","","","html-keyboard-response","167","222917","0.0-15.0-0.1-0.13","ope452rjyj","","ope452rjyj","""2024-11-12T18:58:50.197Z""","null","+","null","","","","","","",""
"","","","","","image-keyboard-response","168","223541","0.0-15.0-0.1-1.13","ope452rjyj","","ope452rjyj","""2024-11-12T18:58:50.197Z""","620","materials/imgs/D24.png","arrowleft","","[""materials/imgs/D17.png"",""materials/imgs/D34.png""]","false","random","","",""
"","","","","","html-keyboard-response","169","224043","0.0-15.0-1.1-0.1","ope452rjyj","","ope452rjyj","""2024-11-12T18:58:50.197Z""","null","+","null","","","","","","",""
"","","","","","image-keyboard-response","170","225996","0.0-15.0-1.1-1.1","ope452rjyj","","ope452rjyj","""2024-11-12T18:58:50.197Z""","1951","materials/imgs/D64.png","arrowleft","","[""materials/imgs/D64.png"",""materials/imgs/D53.png""]","","check","materials/imgs/D64.png","0","true"
"","","","","","html-keyboard-response","171","226508","0.0-15.0-2.1-0.2","ope452rjyj","","ope452rjyj","""2024-11-12T18:58:50.197Z""","null","+","null","","","","","","",""
"","","","","","image-keyboard-response","172","229039","0.0-15.0-2.1-1.2","ope452rjyj","","ope452rjyj","""2024-11-12T18:58:50.197Z""","2528","materials/imgs/D83.png","arrowleft","","[""materials/imgs/D24.png"",""materials/imgs/D8.png""]","false","validation","","",""
"","","","","","html-keyboard-response","173","229541","0.0-15.0-2.1-0.3","ope452rjyj","","ope452rjyj","""2024-11-12T18:58:50.197Z""","null","+","null","","","","","","",""
"","","","","","image-keyboard-response","174","231632","0.0-15.0-2.1-1.3","ope452rjyj","","ope452rjyj","""2024-11-12T18:58:50.197Z""","2088","materials/imgs/D51.png","arrowleft","","[""materials/imgs/D92.png"",""materials/imgs/D20.png""]","false","validation","","",""
"","","","","","html-keyboard-response","175","232134","0.0-15.0-0.2-0.14","ope452rjyj","","ope452rjyj","""2024-11-12T18:58:50.197Z""","null","+","null","","","","","","",""
"","","","","","image-keyboard-response","176","234780","0.0-15.0-0.2-1.14","ope452rjyj","","ope452rjyj","""2024-11-12T18:58:50.197Z""","2641","materials/imgs/D49.png","arrowleft","","[""materials/imgs/D111.png"",""materials/imgs/D96.png""]","false","random","","",""
"","","","","","html-keyboard-response","177","235291","0.0-15.0-0.2-0.15","ope452rjyj","","ope452rjyj","""2024-11-12T18:58:50.197Z""","null","+","null","","","","","","",""
"","","","","","image-keyboard-response","178","237005","0.0-15.0-0.2-1.15","ope452rjyj","","ope452rjyj","""2024-11-12T18:58:50.197Z""","1709","materials/imgs/D84.png","arrowleft","","[""materials/imgs/D46.png"",""materials/imgs/D105.png""]","false","random","","",""
"","","","","","html-keyboard-response","179","237507","0.0-15.0-0.2-0.16","ope452rjyj","","ope452rjyj","""2024-11-12T18:58:50.197Z""","null","+","null","","","","","","",""
"","","","","","image-keyboard-response","180","238846","0.0-15.0-0.2-1.16","ope452rjyj","","ope452rjyj","""2024-11-12T18:58:50.197Z""","1336","materials/imgs/D4.png","arrowright","","[""materials/imgs/D3.png"",""materials/imgs/D9.png""]","false","random","","",""
"","","","","","html-keyboard-response","181","239351","0.0-15.0-0.2-0.17","ope452rjyj","","ope452rjyj","""2024-11-12T18:58:50.197Z""","null","+","null","","","","","","",""
"","","","","","image-keyboard-response","182","240679","0.0-15.0-0.2-1.17","ope452rjyj","","ope452rjyj","""2024-11-12T18:58:50.197Z""","1325","materials/imgs/D1.png","arrowright","","[""materials/imgs/D9.png"",""materials/imgs/D24.png""]","false","random","","",""
"","","","","","html-keyboard-response","183","241182","0.0-15.0-0.2-0.18","ope452rjyj","","ope452rjyj","""2024-11-12T18:58:50.197Z""","null","+","null","","","","","","",""
"","","","","","image-keyboard-response","184","242309","0.0-15.0-0.2-1.18","ope452rjyj","","ope452rjyj","""2024-11-12T18:58:50.197Z""","1124","materials/imgs/D22.png","arrowleft","","[""materials/imgs/D49.png"",""materials/imgs/D11.png""]","false","random","","",""
"","","","","","html-keyboard-response","185","242822","0.0-15.0-0.2-0.19","ope452rjyj","","ope452rjyj","""2024-11-12T18:58:50.197Z""","null","+","null","","","","","","",""
"","","","","","image-keyboard-response","186","243773","0.0-15.0-0.2-1.19","ope452rjyj","","ope452rjyj","""2024-11-12T18:58:50.197Z""","947","materials/imgs/D96.png","arrowleft","","[""materials/imgs/D32.png"",""materials/imgs/D36.png""]","false","random","","",""
"","","","","","html-keyboard-response","187","244282","0.0-15.0-0.2-0.20","ope452rjyj","","ope452rjyj","""2024-11-12T18:58:50.197Z""","null","+","null","","","","","","",""
"","","","","","image-keyboard-response","188","245404","0.0-15.0-0.2-1.20","ope452rjyj","","ope452rjyj","""2024-11-12T18:58:50.197Z""","1119","materials/imgs/D76.png","arrowright","","[""materials/imgs/D26.png"",""materials/imgs/D65.png""]","false","random","","",""
"","","","","","html-keyboard-response","189","245908","0.0-15.0-1.2-0.2","ope452rjyj","","ope452rjyj","""2024-11-12T18:58:50.197Z""","null","+","null","","","","","","",""
"","","","","","image-keyboard-response","190","247291","0.0-15.0-1.2-1.2","ope452rjyj","","ope452rjyj","""2024-11-12T18:58:50.197Z""","1380","materials/imgs/D64.png","arrowleft","","[""materials/imgs/D64.png"",""materials/imgs/D53.png""]","","check","materials/imgs/D64.png","0","true"
"","","","","","html-keyboard-response","191","247801","0.0-15.0-2.2-0.4","ope452rjyj","","ope452rjyj","""2024-11-12T18:58:50.197Z""","null","+","null","","","","","","",""
"","","","","","image-keyboard-response","192","250344","0.0-15.0-2.2-1.4","ope452rjyj","","ope452rjyj","""2024-11-12T18:58:50.197Z""","2542","materials/imgs/D66.png","arrowleft","","[""materials/imgs/D85.png"",""materials/imgs/D25.png""]","false","validation","","",""
"","","","","","html-keyboard-response","193","250850","0.0-15.0-2.2-0.5","ope452rjyj","","ope452rjyj","""2024-11-12T18:58:50.197Z""","null","+","null","","","","","","",""
"","","","","","image-keyboard-response","194","252291","0.0-15.0-2.2-1.5","ope452rjyj","","ope452rjyj","""2024-11-12T18:58:50.197Z""","1437","materials/imgs/D4.png","arrowleft","","[""materials/imgs/D52.png"",""materials/imgs/D83.png""]","false","validation","","",""
"","","","","","html-keyboard-response","195","252800","0.0-15.0-0.3-0.21","ope452rjyj","","ope452rjyj","""2024-11-12T18:58:50.197Z""","null","+","null","","","","","","",""
"","","","","","image-keyboard-response","196","253743","0.0-15.0-0.3-1.21","ope452rjyj","","ope452rjyj","""2024-11-12T18:58:50.197Z""","937","materials/imgs/D57.png","arrowleft","","[""materials/imgs/D18.png"",""materials/imgs/D8.png""]","false","random","","",""
"","","","","","html-keyboard-response","197","254250","0.0-15.0-0.3-0.22","ope452rjyj","","ope452rjyj","""2024-11-12T18:58:50.197Z""","null","+","null","","","","","","",""
"","","","","","image-keyboard-response","198","255643","0.0-15.0-0.3-1.22","ope452rjyj","","ope452rjyj","""2024-11-12T18:58:50.197Z""","1388","materials/imgs/D95.png","arrowright","","[""materials/imgs/D46.png"",""materials/imgs/D22.png""]","false","random","","",""
"","","","","","html-keyboard-response","199","256150","0.0-15.0-0.3-0.23","ope452rjyj","","ope452rjyj","""2024-11-12T18:58:50.197Z""","null","+","null","","","","","","",""
"","","","","","image-keyboard-response","200","257162","0.0-15.0-0.3-1.23","ope452rjyj","","ope452rjyj","""2024-11-12T18:58:50.197Z""","1008","materials/imgs/D16.png","arrowleft","","[""materials/imgs/D14.png"",""materials/imgs/D18.png""]","false","random","","",""
"","","","","","html-keyboard-response","201","257666","0.0-15.0-0.3-0.24","ope452rjyj","","ope452rjyj","""2024-11-12T18:58:50.197Z""","null","+","null","","","","","","",""
"","","","","","image-keyboard-response","202","259463","0.0-15.0-0.3-1.24","ope452rjyj","","ope452rjyj","""2024-11-12T18:58:50.197Z""","1794","materials/imgs/D21.png","arrowleft","","[""materials/imgs/D34.png"",""materials/imgs/D101.png""]","false","random","","",""
"","","","","","html-keyboard-response","203","259967","0.0-15.0-0.3-0.25","ope452rjyj","","ope452rjyj","""2024-11-12T18:58:50.197Z""","null","+","null","","","","","","",""
"","","","","","image-keyboard-response","204","261080","0.0-15.0-0.3-1.25","ope452rjyj","","ope452rjyj","""2024-11-12T18:58:50.197Z""","1109","materials/imgs/D3.png","arrowleft","","[""materials/imgs/D17.png"",""materials/imgs/D9.png""]","false","random","","",""
"","","","","","html-keyboard-response","205","261586","0.0-15.0-0.3-0.26","ope452rjyj","","ope452rjyj","""2024-11-12T18:58:50.197Z""","null","+","null","","","","","","",""
"","","","","","image-keyboard-response","206","262416","0.0-15.0-0.3-1.26","ope452rjyj","","ope452rjyj","""2024-11-12T18:58:50.197Z""","826","materials/imgs/D18.png","arrowleft","","[""materials/imgs/D102.png"",""materials/imgs/D66.png""]","false","random","","",""
"","","","","","html-keyboard-response","207","262926","0.0-15.0-0.3-0.27","ope452rjyj","","ope452rjyj","""2024-11-12T18:58:50.197Z""","null","+","null","","","","","","",""
"","","","","","image-keyboard-response","208","265350","0.0-15.0-0.3-1.27","ope452rjyj","","ope452rjyj","""2024-11-12T18:58:50.197Z""","2421","materials/imgs/D20.png","arrowleft","","[""materials/imgs/D64.png"",""materials/imgs/D19.png""]","false","random","","",""
"","","","","","html-keyboard-response","209","265853","0.0-15.0-1.3-0.3","ope452rjyj","","ope452rjyj","""2024-11-12T18:58:50.197Z""","null","+","null","","","","","","",""
"","","","","","image-keyboard-response","210","268163","0.0-15.0-1.3-1.3","ope452rjyj","","ope452rjyj","""2024-11-12T18:58:50.197Z""","2308","materials/imgs/D101.png","arrowright","","[""materials/imgs/D106.png"",""materials/imgs/D101.png""]","","check","materials/imgs/D101.png","1","true"
"","","","","","html-keyboard-response","211","268676","0.0-15.0-2.3-0.6","ope452rjyj","","ope452rjyj","""2024-11-12T18:58:50.197Z""","null","+","null","","","","","","",""
"","","","","","image-keyboard-response","212","269668","0.0-15.0-2.3-1.6","ope452rjyj","","ope452rjyj","""2024-11-12T18:58:50.197Z""","989","materials/imgs/D51.png","arrowleft","","[""materials/imgs/D92.png"",""materials/imgs/D20.png""]","false","validation","","",""
"","","","","","html-keyboard-response","213","270171","0.0-15.0-2.3-0.7","ope452rjyj","","ope452rjyj","""2024-11-12T18:58:50.197Z""","null","+","null","","","","","","",""
"","","","","","image-keyboard-response","214","270873","0.0-15.0-2.3-1.7","ope452rjyj","","ope452rjyj","""2024-11-12T18:58:50.197Z""","699","materials/imgs/D32.png","arrowleft","","[""materials/imgs/D68.png"",""materials/imgs/D96.png""]","false","validation","","",""
"","","","","","html-keyboard-response","215","271375","0.0-15.0-0.4-0.28","ope452rjyj","","ope452rjyj","""2024-11-12T18:58:50.197Z""","null","+","null","","","","","","",""
"","","","","","image-keyboard-response","216","272567","0.0-15.0-0.4-1.28","ope452rjyj","","ope452rjyj","""2024-11-12T18:58:50.197Z""","1188","materials/imgs/D55.png","arrowright","","[""materials/imgs/D95.png"",""materials/imgs/D94.png""]","false","random","","",""
"","","","","","html-keyboard-response","217","273076","0.0-15.0-0.4-0.29","ope452rjyj","","ope452rjyj","""2024-11-12T18:58:50.197Z""","null","+","null","","","","","","",""
"","","","","","image-keyboard-response","218","273848","0.0-15.0-0.4-1.29","ope452rjyj","","ope452rjyj","""2024-11-12T18:58:50.197Z""","767","materials/imgs/D8.png","arrowright","","[""materials/imgs/D78.png"",""materials/imgs/D20.png""]","false","random","","",""
"","","","","","html-keyboard-response","219","274360","0.0-15.0-0.4-0.30","ope452rjyj","","ope452rjyj","""2024-11-12T18:58:50.197Z""","null","+","null","","","","","","",""
"","","","","","image-keyboard-response","220","275000","0.0-15.0-0.4-1.30","ope452rjyj","","ope452rjyj","""2024-11-12T18:58:50.197Z""","635","materials/imgs/D95.png","arrowleft","","[""materials/imgs/D87.png"",""materials/imgs/D77.png""]","false","random","","",""
"","","","","","html-keyboard-response","221","275506","0.0-15.0-0.4-0.31","ope452rjyj","","ope452rjyj","""2024-11-12T18:58:50.197Z""","null","+","null","","","","","","",""
"","","","","","image-keyboard-response","222","276916","0.0-15.0-0.4-1.31","ope452rjyj","","ope452rjyj","""2024-11-12T18:58:50.197Z""","1404","materials/imgs/D55.png","arrowleft","","[""materials/imgs/D81.png"",""materials/imgs/D26.png""]","false","random","","",""
"","","","","","html-keyboard-response","223","277425","0.0-15.0-0.4-0.32","ope452rjyj","","ope452rjyj","""2024-11-12T18:58:50.197Z""","null","+","null","","","","","","",""
"","","","","","image-keyboard-response","224","278115","0.0-15.0-0.4-1.32","ope452rjyj","","ope452rjyj","""2024-11-12T18:58:50.197Z""","683","materials/imgs/D14.png","arrowright","","[""materials/imgs/D52.png"",""materials/imgs/D24.png""]","false","random","","",""
"","","","","","html-keyboard-response","225","278622","0.0-15.0-0.4-0.33","ope452rjyj","","ope452rjyj","""2024-11-12T18:58:50.197Z""","null","+","null","","","","","","",""
"","","","","","image-keyboard-response","226","279150","0.0-15.0-0.4-1.33","ope452rjyj","","ope452rjyj","""2024-11-12T18:58:50.197Z""","521","materials/imgs/D21.png","arrowleft","","[""materials/imgs/D102.png"",""materials/imgs/D34.png""]","false","random","","",""
"","","","","","html-keyboard-response","227","279659","0.0-15.0-0.4-0.34","ope452rjyj","","ope452rjyj","""2024-11-12T18:58:50.197Z""","null","+","null","","","","","","",""
"","","","","","image-keyboard-response","228","280248","0.0-15.0-0.4-1.34","ope452rjyj","","ope452rjyj","""2024-11-12T18:58:50.197Z""","584","materials/imgs/D51.png","arrowright","","[""materials/imgs/D17.png"",""materials/imgs/D19.png""]","false","random","","",""
"","","","","","html-keyboard-response","229","280752","0.0-15.0-1.4-0.4","ope452rjyj","","ope452rjyj","""2024-11-12T18:58:50.197Z""","null","+","null","","","","","","",""
"","","","","","image-keyboard-response","230","281788","0.0-15.0-1.4-1.4","ope452rjyj","","ope452rjyj","""2024-11-12T18:58:50.197Z""","1032","materials/imgs/D78.png","arrowright","","[""materials/imgs/D76.png"",""materials/imgs/D78.png""]","","check","materials/imgs/D78.png","1","true"
"","","","","","html-keyboard-response","231","282294","0.0-15.0-2.4-0.8","ope452rjyj","","ope452rjyj","""2024-11-12T18:58:50.197Z""","null","+","null","","","","","","",""
"","","","","","image-keyboard-response","232","283159","0.0-15.0-2.4-1.8","ope452rjyj","","ope452rjyj","""2024-11-12T18:58:50.197Z""","863","materials/imgs/D56.png","arrowright","","[""materials/imgs/D25.png"",""materials/imgs/D105.png""]","false","validation","","",""
"","","","","","html-keyboard-response","233","283669","0.0-15.0-2.4-0.9","ope452rjyj","","ope452rjyj","""2024-11-12T18:58:50.197Z""","null","+","null","","","","","","",""
"","","","","","image-keyboard-response","234","284857","0.0-15.0-2.4-1.9","ope452rjyj","","ope452rjyj","""2024-11-12T18:58:50.197Z""","1184","materials/imgs/D64.png","arrowleft","","[""materials/imgs/D6.png"",""materials/imgs/D81.png""]","false","validation","","",""
"","","","","","html-button-response","235","287101","0.0-16.0","ope452rjyj","","ope452rjyj","""2024-11-12T18:58:50.197Z""","2241","You have completed 50% of the trials. Please click 'Continue' when you are ready proceed.","0","","","","","","",""
"","","","","","html-keyboard-response","236","287609","0.0-17.0-0.0-0.0","ope452rjyj","","ope452rjyj","""2024-11-12T18:58:50.197Z""","null","+","null","","","","","","",""
"","","","","","image-keyboard-response","237","288183","0.0-17.0-0.0-1.0","ope452rjyj","","ope452rjyj","""2024-11-12T18:58:50.197Z""","571","materials/imgs/D96.png","arrowleft","","[""materials/imgs/D49.png"",""materials/imgs/D101.png""]","false","random","","",""
"","","","","","html-keyboard-response","238","288685","0.0-17.0-0.0-0.1","ope452rjyj","","ope452rjyj","""2024-11-12T18:58:50.197Z""","null","+","null","","","","","","",""
"","","","","","image-keyboard-response","239","289248","0.0-17.0-0.0-1.1","ope452rjyj","","ope452rjyj","""2024-11-12T18:58:50.197Z""","559","materials/imgs/D84.png","arrowright","","[""materials/imgs/D36.png"",""materials/imgs/D29.png""]","false","random","","",""
"","","","","","html-keyboard-response","240","289759","0.0-17.0-0.0-0.2","ope452rjyj","","ope452rjyj","""2024-11-12T18:58:50.197Z""","null","+","null","","","","","","",""
"","","","","","image-keyboard-response","241","290124","0.0-17.0-0.0-1.2","ope452rjyj","","ope452rjyj","""2024-11-12T18:58:50.197Z""","359","materials/imgs/D104.png","arrowright","","[""materials/imgs/D19.png"",""materials/imgs/D21.png""]","true","random","","",""
"","","","","","html-keyboard-response","242","292639","0.0-17.0-0.0-2.2-0.2","ope452rjyj","","ope452rjyj","""2024-11-12T18:58:50.197Z""","2513","<p><strong>You're going too fast.</strong><p>Please slow down and assess each triplet.<p>Press 'y' to continue.</p></p>","y","","","","","","",""
"","","","","","html-keyboard-response","243","293143","0.0-17.0-0.0-0.3","ope452rjyj","","ope452rjyj","""2024-11-12T18:58:50.197Z""","null","+","null","","","","","","",""
"","","","","","image-keyboard-response","244","294481","0.0-17.0-0.0-1.3","ope452rjyj","","ope452rjyj","""2024-11-12T18:58:50.197Z""","1332","materials/imgs/D74.png","arrowleft","","[""materials/imgs/D4.png"",""materials/imgs/D65.png""]","false","random","","",""
"","","","","","html-keyboard-response","245","294992","0.0-17.0-0.0-0.4","ope452rjyj","","ope452rjyj","""2024-11-12T18:58:50.197Z""","null","+","null","","","","","","",""
"","","","","","image-keyboard-response","246","331741","0.0-17.0-0.0-1.4","ope452rjyj","","ope452rjyj","""2024-11-12T18:58:50.197Z""","36750","materials/imgs/D19.png","arrowleft","","[""materials/imgs/D57.png"",""materials/imgs/D49.png""]","false","random","","",""
"","","","","","html-keyboard-response","247","332251","0.0-17.0-0.0-0.5","ope452rjyj","","ope452rjyj","""2024-11-12T18:58:50.197Z""","null","+","null","","","","","","",""
"","","","","","image-keyboard-response","248","333478","0.0-17.0-0.0-1.5","ope452rjyj","","ope452rjyj","""2024-11-12T18:58:50.197Z""","1220","materials/imgs/D3.png","arrowright","","[""materials/imgs/D4.png"",""materials/imgs/D19.png""]","false","random","","",""
"","","","","","html-keyboard-response","249","333984","0.0-17.0-0.0-0.6","ope452rjyj","","ope452rjyj","""2024-11-12T18:58:50.197Z""","null","+","null","","","","","","",""
"","","","","","image-keyboard-response","250","335161","0.0-17.0-0.0-1.6","ope452rjyj","","ope452rjyj","""2024-11-12T18:58:50.197Z""","1172","materials/imgs/D37.png","arrowright","","[""materials/imgs/D94.png"",""materials/imgs/D32.png""]","false","random","","",""
"","","","","","html-keyboard-response","251","335668","0.0-17.0-1.0-0.0","ope452rjyj","","ope452rjyj","""2024-11-12T18:58:50.197Z""","null","+","null","","","","","","",""
"","","","","","image-keyboard-response","252","337998","0.0-17.0-1.0-1.0","ope452rjyj","","ope452rjyj","""2024-11-12T18:58:50.197Z""","2327","materials/imgs/D101.png","arrowright","","[""materials/imgs/D106.png"",""materials/imgs/D101.png""]","","check","materials/imgs/D101.png","1","true"
"","","","","","html-keyboard-response","253","338506","0.0-17.0-2.0-0.0","ope452rjyj","","ope452rjyj","""2024-11-12T18:58:50.197Z""","null","+","null","","","","","","",""
"","","","","","image-keyboard-response","254","344457","0.0-17.0-2.0-1.0","ope452rjyj","","ope452rjyj","""2024-11-12T18:58:50.197Z""","5948","materials/imgs/D16.png","arrowright","","[""materials/imgs/D52.png"",""materials/imgs/D25.png""]","false","validation","","",""
"","","","","","html-keyboard-response","255","344960","0.0-17.0-2.0-0.1","ope452rjyj","","ope452rjyj","""2024-11-12T18:58:50.197Z""","null","+","null","","","","","","",""
"","","","","","image-keyboard-response","256","354022","0.0-17.0-2.0-1.1","ope452rjyj","","ope452rjyj","""2024-11-12T18:58:50.197Z""","9057","materials/imgs/D47.png","arrowright","","[""materials/imgs/D1.png"",""materials/imgs/D52.png""]","false","validation","","",""
"","","","","","html-keyboard-response","257","354526","0.0-17.0-0.1-0.7","ope452rjyj","","ope452rjyj","""2024-11-12T18:58:50.197Z""","null","+","null","","","","","","",""
"","","","","","image-keyboard-response","258","355503","0.0-17.0-0.1-1.7","ope452rjyj","","ope452rjyj","""2024-11-12T18:58:50.197Z""","973","materials/imgs/D19.png","arrowright","","[""materials/imgs/D96.png"",""materials/imgs/D9.png""]","false","random","","",""
"","","","","","html-keyboard-response","259","356010","0.0-17.0-0.1-0.8","ope452rjyj","","ope452rjyj","""2024-11-12T18:58:50.197Z""","null","+","null","","","","","","",""
"","","","","","image-keyboard-response","260","357830","0.0-17.0-0.1-1.8","ope452rjyj","","ope452rjyj","""2024-11-12T18:58:50.197Z""","1815","materials/imgs/D83.png","arrowleft","","[""materials/imgs/D87.png"",""materials/imgs/D37.png""]","false","random","","",""
"","","","","","html-keyboard-response","261","358334","0.0-17.0-0.1-0.9","ope452rjyj","","ope452rjyj","""2024-11-12T18:58:50.197Z""","null","+","null","","","","","","",""
"","","","","","image-keyboard-response","262","359691","0.0-17.0-0.1-1.9","ope452rjyj","","ope452rjyj","""2024-11-12T18:58:50.197Z""","1352","materials/imgs/D11.png","arrowleft","","[""materials/imgs/D111.png"",""materials/imgs/D9.png""]","false","random","","",""
"","","","","","html-keyboard-response","263","360193","0.0-17.0-0.1-0.10","ope452rjyj","","ope452rjyj","""2024-11-12T18:58:50.197Z""","null","+","null","","","","","","",""
"","","","","","image-keyboard-response","264","362378","0.0-17.0-0.1-1.10","ope452rjyj","","ope452rjyj","""2024-11-12T18:58:50.197Z""","2179","materials/imgs/D18.png","arrowright","","[""materials/imgs/D95.png"",""materials/imgs/D47.png""]","false","random","","",""
"","","","","","html-keyboard-response","265","362883","0.0-17.0-0.1-0.11","ope452rjyj","","ope452rjyj","""2024-11-12T18:58:50.197Z""","null","+","null","","","","","","",""
"","","","","","image-keyboard-response","266","365254","0.0-17.0-0.1-1.11","ope452rjyj","","ope452rjyj","""2024-11-12T18:58:50.197Z""","2365","materials/imgs/D36.png","arrowright","","[""materials/imgs/D8.png"",""materials/imgs/D106.png""]","false","random","","",""
"","","","","","html-keyboard-response","267","365767","0.0-17.0-0.1-0.12","ope452rjyj","","ope452rjyj","""2024-11-12T18:58:50.197Z""","null","+","null","","","","","","",""
"","","","","","image-keyboard-response","268","366673","0.0-17.0-0.1-1.12","ope452rjyj","","ope452rjyj","""2024-11-12T18:58:50.197Z""","900","materials/imgs/D49.png","arrowright","","[""materials/imgs/D26.png"",""materials/imgs/D77.png""]","false","random","","",""
"","","","","","html-keyboard-response","269","367183","0.0-17.0-0.1-0.13","ope452rjyj","","ope452rjyj","""2024-11-12T18:58:50.197Z""","null","+","null","","","","","","",""
"","","","","","image-keyboard-response","270","367812","0.0-17.0-0.1-1.13","ope452rjyj","","ope452rjyj","""2024-11-12T18:58:50.197Z""","625","materials/imgs/D14.png","arrowleft","","[""materials/imgs/D55.png"",""materials/imgs/D24.png""]","false","random","","",""
"","","","","","html-keyboard-response","271","368317","0.0-17.0-1.1-0.1","ope452rjyj","","ope452rjyj","""2024-11-12T18:58:50.197Z""","null","+","null","","","","","","",""
"","","","","","image-keyboard-response","272","369282","0.0-17.0-1.1-1.1","ope452rjyj","","ope452rjyj","""2024-11-12T18:58:50.197Z""","963","materials/imgs/D53.png","arrowright","","[""materials/imgs/D64.png"",""materials/imgs/D53.png""]","","check","materials/imgs/D53.png","1","true"
"","","","","","html-keyboard-response","273","369789","0.0-17.0-2.1-0.2","ope452rjyj","","ope452rjyj","""2024-11-12T18:58:50.197Z""","null","+","null","","","","","","",""
"","","","","","image-keyboard-response","274","371147","0.0-17.0-2.1-1.2","ope452rjyj","","ope452rjyj","""2024-11-12T18:58:50.197Z""","1350","materials/imgs/D6.png","arrowleft","","[""materials/imgs/D26.png"",""materials/imgs/D76.png""]","false","validation","","",""
"","","","","","html-keyboard-response","275","371651","0.0-17.0-2.1-0.3","ope452rjyj","","ope452rjyj","""2024-11-12T18:58:50.197Z""","null","+","null","","","","","","",""
"","","","","","image-keyboard-response","276","378187","0.0-17.0-2.1-1.3","ope452rjyj","","ope452rjyj","""2024-11-12T18:58:50.197Z""","6527","materials/imgs/D24.png","arrowright","","[""materials/imgs/D36.png"",""materials/imgs/D8.png""]","false","validation","","",""
"","","","","","html-keyboard-response","277","378689","0.0-17.0-0.2-0.14","ope452rjyj","","ope452rjyj","""2024-11-12T18:58:50.197Z""","null","+","null","","","","","","",""
"","","","","","image-keyboard-response","278","380284","0.0-17.0-0.2-1.14","ope452rjyj","","ope452rjyj","""2024-11-12T18:58:50.197Z""","1591","materials/imgs/D81.png","arrowright","","[""materials/imgs/D20.png"",""materials/imgs/D101.png""]","false","random","","",""
"","","","","","html-keyboard-response","279","380792","0.0-17.0-0.2-0.15","ope452rjyj","","ope452rjyj","""2024-11-12T18:58:50.197Z""","null","+","null","","","","","","",""
"","","","","","image-keyboard-response","280","384220","0.0-17.0-0.2-1.15","ope452rjyj","","ope452rjyj","""2024-11-12T18:58:50.197Z""","3425","materials/imgs/D11.png","arrowright","","[""materials/imgs/D81.png"",""materials/imgs/D17.png""]","false","random","","",""
"","","","","","html-keyboard-response","281","384725","0.0-17.0-0.2-0.16","ope452rjyj","","ope452rjyj","""2024-11-12T18:58:50.197Z""","null","+","null","","","","","","",""
"","","","","","image-keyboard-response","282","385869","0.0-17.0-0.2-1.16","ope452rjyj","","ope452rjyj","""2024-11-12T18:58:50.197Z""","1141","materials/imgs/D29.png","arrowright","","[""materials/imgs/D6.png"",""materials/imgs/D55.png""]","false","random","","",""
"","","","","","html-keyboard-response","283","386374","0.0-17.0-0.2-0.17","ope452rjyj","","ope452rjyj","""2024-11-12T18:58:50.197Z""","null","+","null","","","","","","",""
"","","","","","image-keyboard-response","284","389222","0.0-17.0-0.2-1.17","ope452rjyj","","ope452rjyj","""2024-11-12T18:58:50.197Z""","2844","materials/imgs/D65.png","arrowleft","","[""materials/imgs/D64.png"",""materials/imgs/D77.png""]","false","random","","",""
"","","","","","html-keyboard-response","285","389725","0.0-17.0-0.2-0.18","ope452rjyj","","ope452rjyj","""2024-11-12T18:58:50.197Z""","null","+","null","","","","","","",""
"","","","","","image-keyboard-response","286","391179","0.0-17.0-0.2-1.18","ope452rjyj","","ope452rjyj","""2024-11-12T18:58:50.197Z""","1442","materials/imgs/D68.png","arrowright","","[""materials/imgs/D48.png"",""materials/imgs/D9.png""]","false","random","","",""
"","","","","","html-keyboard-response","287","391682","0.0-17.0-0.2-0.19","ope452rjyj","","ope452rjyj","""2024-11-12T18:58:50.197Z""","null","+","null","","","","","","",""
"","","","","","image-keyboard-response","288","392549","0.0-17.0-0.2-1.19","ope452rjyj","","ope452rjyj","""2024-11-12T18:58:50.197Z""","838","materials/imgs/D65.png","arrowright","","[""materials/imgs/D77.png"",""materials/imgs/D35.png""]","false","random","","",""
"","","","","","html-keyboard-response","289","393055","0.0-17.0-0.2-0.20","ope452rjyj","","ope452rjyj","""2024-11-12T18:58:50.197Z""","null","+","null","","","","","","",""
"","","","","","image-keyboard-response","290","394166","0.0-17.0-0.2-1.20","ope452rjyj","","ope452rjyj","""2024-11-12T18:58:50.197Z""","1105","materials/imgs/D79.png","arrowleft","","[""materials/imgs/D57.png"",""materials/imgs/D102.png""]","false","random","","",""
"","","","","","html-keyboard-response","291","394673","0.0-17.0-1.2-0.2","ope452rjyj","","ope452rjyj","""2024-11-12T18:58:50.197Z""","null","+","null","","","","","","",""
"","","","","","image-keyboard-response","292","396010","0.0-17.0-1.2-1.2","ope452rjyj","","ope452rjyj","""2024-11-12T18:58:50.197Z""","1334","materials/imgs/D101.png","arrowleft","","[""materials/imgs/D106.png"",""materials/imgs/D101.png""]","","check","materials/imgs/D106.png","0","false"
"","","","","","html-keyboard-response","293","402495","0.0-17.0-1.2-2.2-0.2","ope452rjyj","","ope452rjyj","""2024-11-12T18:58:50.197Z""","6482","<p><strong>Incorrect!</strong></p>That was an attention check. Please pay attention while completing this task.<p>Press 'y' to continue.</p>","y","","","","","","",""
"","","","","","html-keyboard-response","294","402997","0.0-17.0-2.2-0.4","ope452rjyj","","ope452rjyj","""2024-11-12T18:58:50.197Z""","null","+","null","","","","","","",""
"","","","","","image-keyboard-response","295","403843","0.0-17.0-2.2-1.4","ope452rjyj","","ope452rjyj","""2024-11-12T18:58:50.197Z""","842","materials/imgs/D82.png","arrowright","","[""materials/imgs/D83.png"",""materials/imgs/D22.png""]","false","validation","","",""
"","","","","","html-keyboard-response","296","404347","0.0-17.0-2.2-0.5","ope452rjyj","","ope452rjyj","""2024-11-12T18:58:50.197Z""","null","+","null","","","","","","",""
"","","","","","image-keyboard-response","297","407191","0.0-17.0-2.2-1.5","ope452rjyj","","ope452rjyj","""2024-11-12T18:58:50.197Z""","2841","materials/imgs/D19.png","arrowright","","[""materials/imgs/D111.png"",""materials/imgs/D56.png""]","false","validation","","",""
"","","","","","html-keyboard-response","298","407698","0.0-17.0-0.3-0.21","ope452rjyj","","ope452rjyj","""2024-11-12T18:58:50.197Z""","null","+","null","","","","","","",""
"","","","","","image-keyboard-response","299","409209","0.0-17.0-0.3-1.21","ope452rjyj","","ope452rjyj","""2024-11-12T18:58:50.197Z""","1507","materials/imgs/D29.png","arrowleft","","[""materials/imgs/D79.png"",""materials/imgs/D65.png""]","false","random","","",""
"","","","","","html-keyboard-response","300","409714","0.0-17.0-0.3-0.22","ope452rjyj","","ope452rjyj","""2024-11-12T18:58:50.197Z""","null","+","null","","","","","","",""
"","","","","","image-keyboard-response","301","411259","0.0-17.0-0.3-1.22","ope452rjyj","","ope452rjyj","""2024-11-12T18:58:50.197Z""","1542","materials/imgs/D35.png","arrowleft","","[""materials/imgs/D16.png"",""materials/imgs/D48.png""]","false","random","","",""
"","","","","","html-keyboard-response","302","411771","0.0-17.0-0.3-0.23","ope452rjyj","","ope452rjyj","""2024-11-12T18:58:50.197Z""","null","+","null","","","","","","",""
"","","","","","image-keyboard-response","303","414444","0.0-17.0-0.3-1.23","ope452rjyj","","ope452rjyj","""2024-11-12T18:58:50.197Z""","2667","materials/imgs/D51.png","arrowright","","[""materials/imgs/D64.png"",""materials/imgs/D111.png""]","false","random","","",""
"","","","","","html-keyboard-response","304","414946","0.0-17.0-0.3-0.24","ope452rjyj","","ope452rjyj","""2024-11-12T18:58:50.197Z""","null","+","null","","","","","","",""
"","","","","","image-keyboard-response","305","415777","0.0-17.0-0.3-1.24","ope452rjyj","","ope452rjyj","""2024-11-12T18:58:50.197Z""","826","materials/imgs/D76.png","arrowleft","","[""materials/imgs/D85.png"",""materials/imgs/D94.png""]","false","random","","",""
"","","","","","html-keyboard-response","306","416287","0.0-17.0-0.3-0.25","ope452rjyj","","ope452rjyj","""2024-11-12T18:58:50.197Z""","null","+","null","","","","","","",""
"","","","","","image-keyboard-response","307","417712","0.0-17.0-0.3-1.25","ope452rjyj","","ope452rjyj","""2024-11-12T18:58:50.197Z""","1419","materials/imgs/D96.png","arrowleft","","[""materials/imgs/D105.png"",""materials/imgs/D49.png""]","false","random","","",""
"","","","","","html-keyboard-response","308","418220","0.0-17.0-0.3-0.26","ope452rjyj","","ope452rjyj","""2024-11-12T18:58:50.197Z""","null","+","null","","","","","","",""
"","","","","","image-keyboard-response","309","419448","0.0-17.0-0.3-1.26","ope452rjyj","","ope452rjyj","""2024-11-12T18:58:50.197Z""","1222","materials/imgs/D55.png","arrowleft","","[""materials/imgs/D57.png"",""materials/imgs/D101.png""]","false","random","","",""
"","","","","","html-keyboard-response","310","419953","0.0-17.0-0.3-0.27","ope452rjyj","","ope452rjyj","""2024-11-12T18:58:50.197Z""","null","+","null","","","","","","",""
"","","","","","image-keyboard-response","311","421645","0.0-17.0-0.3-1.27","ope452rjyj","","ope452rjyj","""2024-11-12T18:58:50.197Z""","1684","materials/imgs/D92.png","arrowright","","[""materials/imgs/D111.png"",""materials/imgs/D80.png""]","false","random","","",""
"","","","","","html-keyboard-response","312","422153","0.0-17.0-1.3-0.3","ope452rjyj","","ope452rjyj","""2024-11-12T18:58:50.197Z""","null","+","null","","","","","","",""
"","","","","","image-keyboard-response","313","423313","0.0-17.0-1.3-1.3","ope452rjyj","","ope452rjyj","""2024-11-12T18:58:50.197Z""","1154","materials/imgs/D46.png","arrowleft","","[""materials/imgs/D46.png"",""materials/imgs/D26.png""]","","check","materials/imgs/D46.png","0","true"
"","","","","","html-keyboard-response","314","423821","0.0-17.0-2.3-0.6","ope452rjyj","","ope452rjyj","""2024-11-12T18:58:50.197Z""","null","+","null","","","","","","",""
"","","","","","image-keyboard-response","315","425010","0.0-17.0-2.3-1.6","ope452rjyj","","ope452rjyj","""2024-11-12T18:58:50.197Z""","1186","materials/imgs/D11.png","arrowleft","","[""materials/imgs/D83.png"",""materials/imgs/D48.png""]","false","validation","","",""
"","","","","","html-keyboard-response","316","425520","0.0-17.0-2.3-0.7","ope452rjyj","","ope452rjyj","""2024-11-12T18:58:50.197Z""","null","+","null","","","","","","",""
"","","","","","image-keyboard-response","317","427990","0.0-17.0-2.3-1.7","ope452rjyj","","ope452rjyj","""2024-11-12T18:58:50.197Z""","2466","materials/imgs/D77.png","arrowright","","[""materials/imgs/D102.png"",""materials/imgs/D65.png""]","false","validation","","",""
"","","","","","html-keyboard-response","318","428503","0.0-17.0-0.4-0.28","ope452rjyj","","ope452rjyj","""2024-11-12T18:58:50.197Z""","null","+","null","","","","","","",""
"","","","","","image-keyboard-response","319","431361","0.0-17.0-0.4-1.28","ope452rjyj","","ope452rjyj","""2024-11-12T18:58:50.197Z""","2854","materials/imgs/D56.png","arrowleft","","[""materials/imgs/D92.png"",""materials/imgs/D105.png""]","false","random","","",""
"","","","","","html-keyboard-response","320","431870","0.0-17.0-0.4-0.29","ope452rjyj","","ope452rjyj","""2024-11-12T18:58:50.197Z""","null","+","null","","","","","","",""
"","","","","","image-keyboard-response","321","434484","0.0-17.0-0.4-1.29","ope452rjyj","","ope452rjyj","""2024-11-12T18:58:50.197Z""","2609","materials/imgs/D11.png","arrowleft","","[""materials/imgs/D92.png"",""materials/imgs/D96.png""]","false","random","","",""
"","","","","","html-keyboard-response","322","434988","0.0-17.0-0.4-0.30","ope452rjyj","","ope452rjyj","""2024-11-12T18:58:50.197Z""","null","+","null","","","","","","",""
"","","","","","image-keyboard-response","323","436027","0.0-17.0-0.4-1.30","ope452rjyj","","ope452rjyj","""2024-11-12T18:58:50.197Z""","1034","materials/imgs/D47.png","arrowright","","[""materials/imgs/D76.png"",""materials/imgs/D8.png""]","false","random","","",""
"","","","","","html-keyboard-response","324","436530","0.0-17.0-0.4-0.31","ope452rjyj","","ope452rjyj","""2024-11-12T18:58:50.197Z""","null","+","null","","","","","","",""
"","","","","","image-keyboard-response","325","438496","0.0-17.0-0.4-1.31","ope452rjyj","","ope452rjyj","""2024-11-12T18:58:50.197Z""","1959","materials/imgs/D81.png","arrowleft","","[""materials/imgs/D85.png"",""materials/imgs/D48.png""]","false","random","","",""
"","","","","","html-keyboard-response","326","439004","0.0-17.0-0.4-0.32","ope452rjyj","","ope452rjyj","""2024-11-12T18:58:50.197Z""","null","+","null","","","","","","",""
"","","","","","image-keyboard-response","327","442760","0.0-17.0-0.4-1.32","ope452rjyj","","ope452rjyj","""2024-11-12T18:58:50.197Z""","3755","materials/imgs/D103.png","arrowright","","[""materials/imgs/D14.png"",""materials/imgs/D55.png""]","false","random","","",""
"","","","","","html-keyboard-response","328","443263","0.0-17.0-0.4-0.33","ope452rjyj","","ope452rjyj","""2024-11-12T18:58:50.197Z""","null","+","null","","","","","","",""
"","","","","","image-keyboard-response","329","444431","0.0-17.0-0.4-1.33","ope452rjyj","","ope452rjyj","""2024-11-12T18:58:50.197Z""","1166","materials/imgs/D35.png","arrowright","","[""materials/imgs/D46.png"",""materials/imgs/D32.png""]","false","random","","",""
"","","","","","html-keyboard-response","330","444935","0.0-17.0-0.4-0.34","ope452rjyj","","ope452rjyj","""2024-11-12T18:58:50.197Z""","null","+","null","","","","","","",""
"","","","","","image-keyboard-response","331","448185","0.0-17.0-0.4-1.34","ope452rjyj","","ope452rjyj","""2024-11-12T18:58:50.197Z""","3248","materials/imgs/D4.png","arrowright","","[""materials/imgs/D8.png"",""materials/imgs/D68.png""]","false","random","","",""
"","","","","","html-keyboard-response","332","448696","0.0-17.0-1.4-0.4","ope452rjyj","","ope452rjyj","""2024-11-12T18:58:50.197Z""","null","+","null","","","","","","",""
"","","","","","image-keyboard-response","333","449823","0.0-17.0-1.4-1.4","ope452rjyj","","ope452rjyj","""2024-11-12T18:58:50.197Z""","1123","materials/imgs/D26.png","arrowleft","","[""materials/imgs/D26.png"",""materials/imgs/D46.png""]","","check","materials/imgs/D26.png","0","true"
"","","","","","html-keyboard-response","334","450335","0.0-17.0-2.4-0.8","ope452rjyj","","ope452rjyj","""2024-11-12T18:58:50.197Z""","null","+","null","","","","","","",""
"","","","","","image-keyboard-response","335","452587","0.0-17.0-2.4-1.8","ope452rjyj","","ope452rjyj","""2024-11-12T18:58:50.197Z""","2251","materials/imgs/D36.png","arrowright","","[""materials/imgs/D47.png"",""materials/imgs/D49.png""]","false","validation","","",""
"","","","","","html-keyboard-response","336","453092","0.0-17.0-2.4-0.9","ope452rjyj","","ope452rjyj","""2024-11-12T18:58:50.197Z""","null","+","null","","","","","","",""
"","","","","","image-keyboard-response","337","455603","0.0-17.0-2.4-1.9","ope452rjyj","","ope452rjyj","""2024-11-12T18:58:50.197Z""","2509","materials/imgs/D101.png","arrowright","","[""materials/imgs/D76.png"",""materials/imgs/D47.png""]","false","validation","","",""
"","","","","","html-button-response","338","457609","0.0-18.0","ope452rjyj","","ope452rjyj","""2024-11-12T18:58:50.197Z""","2005","You have completed 75% of the trials. Please click 'Continue' when you are ready proceed.","0","","","","","","",""
"","","","","","html-keyboard-response","339","458116","0.0-19.0-0.0-0.0","ope452rjyj","","ope452rjyj","""2024-11-12T18:58:50.197Z""","null","+","null","","","","","","",""
"","","","","","image-keyboard-response","340","459803","0.0-19.0-0.0-1.0","ope452rjyj","","ope452rjyj","""2024-11-12T18:58:50.197Z""","1683","materials/imgs/D87.png","arrowleft","","[""materials/imgs/D82.png"",""materials/imgs/D21.png""]","false","random","","",""
"","","","","","html-keyboard-response","341","460315","0.0-19.0-0.0-0.1","ope452rjyj","","ope452rjyj","""2024-11-12T18:58:50.197Z""","null","+","null","","","","","","",""
"","","","","","image-keyboard-response","342","462249","0.0-19.0-0.0-1.1","ope452rjyj","","ope452rjyj","""2024-11-12T18:58:50.197Z""","1931","materials/imgs/D94.png","arrowright","","[""materials/imgs/D17.png"",""materials/imgs/D79.png""]","false","random","","",""
"","","","","","html-keyboard-response","343","462758","0.0-19.0-0.0-0.2","ope452rjyj","","ope452rjyj","""2024-11-12T18:58:50.197Z""","null","+","null","","","","","","",""
"","","","","","image-keyboard-response","344","463949","0.0-19.0-0.0-1.2","ope452rjyj","","ope452rjyj","""2024-11-12T18:58:50.197Z""","1188","materials/imgs/D14.png","arrowright","","[""materials/imgs/D4.png"",""materials/imgs/D3.png""]","false","random","","",""
"","","","","","html-keyboard-response","345","464458","0.0-19.0-0.0-0.3","ope452rjyj","","ope452rjyj","""2024-11-12T18:58:50.197Z""","null","+","null","","","","","","",""
"","","","","","image-keyboard-response","346","465914","0.0-19.0-0.0-1.3","ope452rjyj","","ope452rjyj","""2024-11-12T18:58:50.197Z""","1450","materials/imgs/D16.png","arrowleft","","[""materials/imgs/D14.png"",""materials/imgs/D102.png""]","false","random","","",""
"","","","","","html-keyboard-response","347","466424","0.0-19.0-0.0-0.4","ope452rjyj","","ope452rjyj","""2024-11-12T18:58:50.197Z""","null","+","null","","","","","","",""
"","","","","","image-keyboard-response","348","470250","0.0-19.0-0.0-1.4","ope452rjyj","","ope452rjyj","""2024-11-12T18:58:50.197Z""","3822","materials/imgs/D20.png","arrowright","","[""materials/imgs/D66.png"",""materials/imgs/D111.png""]","false","random","","",""
"","","","","","html-keyboard-response","349","470758","0.0-19.0-0.0-0.5","ope452rjyj","","ope452rjyj","""2024-11-12T18:58:50.197Z""","null","+","null","","","","","","",""
"","","","","","image-keyboard-response","350","472494","0.0-19.0-0.0-1.5","ope452rjyj","","ope452rjyj","""2024-11-12T18:58:50.197Z""","1733","materials/imgs/D51.png","arrowright","","[""materials/imgs/D66.png"",""materials/imgs/D19.png""]","false","random","","",""
"","","","","","html-keyboard-response","351","472999","0.0-19.0-0.0-0.6","ope452rjyj","","ope452rjyj","""2024-11-12T18:58:50.197Z""","null","+","null","","","","","","",""
"","","","","","image-keyboard-response","352","474976","0.0-19.0-0.0-1.6","ope452rjyj","","ope452rjyj","""2024-11-12T18:58:50.197Z""","1973","materials/imgs/D74.png","arrowleft","","[""materials/imgs/D76.png"",""materials/imgs/D82.png""]","false","random","","",""
"","","","","","html-keyboard-response","353","475491","0.0-19.0-1.0-0.0","ope452rjyj","","ope452rjyj","""2024-11-12T18:58:50.197Z""","null","+","null","","","","","","",""
"","","","","","image-keyboard-response","354","476250","0.0-19.0-1.0-1.0","ope452rjyj","","ope452rjyj","""2024-11-12T18:58:50.197Z""","756","materials/imgs/D101.png","arrowright","","[""materials/imgs/D106.png"",""materials/imgs/D101.png""]","","check","materials/imgs/D101.png","1","true"
"","","","","","html-keyboard-response","355","476758","0.0-19.0-2.0-0.0","ope452rjyj","","ope452rjyj","""2024-11-12T18:58:50.197Z""","null","+","null","","","","","","",""
"","","","","","image-keyboard-response","356","479284","0.0-19.0-2.0-1.0","ope452rjyj","","ope452rjyj","""2024-11-12T18:58:50.197Z""","2521","materials/imgs/D111.png","arrowleft","","[""materials/imgs/D82.png"",""materials/imgs/D95.png""]","false","validation","","",""
"","","","","","html-keyboard-response","357","479790","0.0-19.0-2.0-0.1","ope452rjyj","","ope452rjyj","""2024-11-12T18:58:50.197Z""","null","+","null","","","","","","",""
"","","","","","image-keyboard-response","358","480573","0.0-19.0-2.0-1.1","ope452rjyj","","ope452rjyj","""2024-11-12T18:58:50.197Z""","780","materials/imgs/D57.png","arrowright","","[""materials/imgs/D111.png"",""materials/imgs/D4.png""]","false","validation","","",""
"","","","","","html-keyboard-response","359","481085","0.0-19.0-0.1-0.7","ope452rjyj","","ope452rjyj","""2024-11-12T18:58:50.197Z""","null","+","null","","","","","","",""
"","","","","","image-keyboard-response","360","505868","0.0-19.0-0.1-1.7","ope452rjyj","","ope452rjyj","""2024-11-12T18:58:50.197Z""","24777","materials/imgs/D84.png","arrowleft","","[""materials/imgs/D83.png"",""materials/imgs/D101.png""]","false","random","","",""
"","","","","","html-keyboard-response","361","506373","0.0-19.0-0.1-0.8","ope452rjyj","","ope452rjyj","""2024-11-12T18:58:50.197Z""","null","+","null","","","","","","",""
"","","","","","image-keyboard-response","362","507396","0.0-19.0-0.1-1.8","ope452rjyj","","ope452rjyj","""2024-11-12T18:58:50.197Z""","1019","materials/imgs/D16.png","arrowleft","","[""materials/imgs/D3.png"",""materials/imgs/D36.png""]","false","random","","",""
"","","","","","html-keyboard-response","363","507897","0.0-19.0-0.1-0.9","ope452rjyj","","ope452rjyj","""2024-11-12T18:58:50.197Z""","null","+","null","","","","","","",""
"","","","","","image-keyboard-response","364","508613","0.0-19.0-0.1-1.9","ope452rjyj","","ope452rjyj","""2024-11-12T18:58:50.197Z""","713","materials/imgs/D11.png","arrowright","","[""materials/imgs/D9.png"",""materials/imgs/D82.png""]","false","random","","",""
"","","","","","html-keyboard-response","365","509123","0.0-19.0-0.1-0.10","ope452rjyj","","ope452rjyj","""2024-11-12T18:58:50.197Z""","null","+","null","","","","","","",""
"","","","","","image-keyboard-response","366","510167","0.0-19.0-0.1-1.10","ope452rjyj","","ope452rjyj","""2024-11-12T18:58:50.197Z""","1041","materials/imgs/D25.png","arrowright","","[""materials/imgs/D103.png"",""materials/imgs/D80.png""]","false","random","","",""
"","","","","","html-keyboard-response","367","510679","0.0-19.0-0.1-0.11","ope452rjyj","","ope452rjyj","""2024-11-12T18:58:50.197Z""","null","+","null","","","","","","",""
"","","","","","image-keyboard-response","368","511995","0.0-19.0-0.1-1.11","ope452rjyj","","ope452rjyj","""2024-11-12T18:58:50.197Z""","1310","materials/imgs/D105.png","arrowright","","[""materials/imgs/D103.png"",""materials/imgs/D78.png""]","false","random","","",""
"","","","","","html-keyboard-response","369","512506","0.0-19.0-0.1-0.12","ope452rjyj","","ope452rjyj","""2024-11-12T18:58:50.197Z""","null","+","null","","","","","","",""
"","","","","","image-keyboard-response","370","513718","0.0-19.0-0.1-1.12","ope452rjyj","","ope452rjyj","""2024-11-12T18:58:50.197Z""","1207","materials/imgs/D48.png","arrowleft","","[""materials/imgs/D29.png"",""materials/imgs/D96.png""]","false","random","","",""
"","","","","","html-keyboard-response","371","514232","0.0-19.0-0.1-0.13","ope452rjyj","","ope452rjyj","""2024-11-12T18:58:50.197Z""","null","+","null","","","","","","",""
"","","","","","image-keyboard-response","372","515551","0.0-19.0-0.1-1.13","ope452rjyj","","ope452rjyj","""2024-11-12T18:58:50.197Z""","1316","materials/imgs/D19.png","arrowleft","","[""materials/imgs/D52.png"",""materials/imgs/D96.png""]","false","random","","",""
"","","","","","html-keyboard-response","373","516058","0.0-19.0-1.1-0.1","ope452rjyj","","ope452rjyj","""2024-11-12T18:58:50.197Z""","null","+","null","","","","","","",""
"","","","","","image-keyboard-response","374","517269","0.0-19.0-1.1-1.1","ope452rjyj","","ope452rjyj","""2024-11-12T18:58:50.197Z""","1208","materials/imgs/D18.png","arrowright","","[""materials/imgs/D8.png"",""materials/imgs/D18.png""]","","check","materials/imgs/D18.png","1","true"
"","","","","","html-keyboard-response","375","517775","0.0-19.0-2.1-0.2","ope452rjyj","","ope452rjyj","""2024-11-12T18:58:50.197Z""","null","+","null","","","","","","",""
"","","","","","image-keyboard-response","376","518880","0.0-19.0-2.1-1.2","ope452rjyj","","ope452rjyj","""2024-11-12T18:58:50.197Z""","1103","materials/imgs/D106.png","arrowleft","","[""materials/imgs/D57.png"",""materials/imgs/D18.png""]","false","validation","","",""
"","","","","","html-keyboard-response","377","519381","0.0-19.0-2.1-0.3","ope452rjyj","","ope452rjyj","""2024-11-12T18:58:50.197Z""","null","+","null","","","","","","",""
"","","","","","image-keyboard-response","378","520303","0.0-19.0-2.1-1.3","ope452rjyj","","ope452rjyj","""2024-11-12T18:58:50.197Z""","919","materials/imgs/D102.png","arrowright","","[""materials/imgs/D32.png"",""materials/imgs/D111.png""]","false","validation","","",""
"","","","","","html-keyboard-response","379","520808","0.0-19.0-0.2-0.14","ope452rjyj","","ope452rjyj","""2024-11-12T18:58:50.197Z""","null","+","null","","","","","","",""
"","","","","","image-keyboard-response","380","521770","0.0-19.0-0.2-1.14","ope452rjyj","","ope452rjyj","""2024-11-12T18:58:50.197Z""","959","materials/imgs/D111.png","arrowright","","[""materials/imgs/D34.png"",""materials/imgs/D84.png""]","false","random","","",""
"","","","","","html-keyboard-response","381","522275","0.0-19.0-0.2-0.15","ope452rjyj","","ope452rjyj","""2024-11-12T18:58:50.197Z""","null","+","null","","","","","","",""
"","","","","","image-keyboard-response","382","522886","0.0-19.0-0.2-1.15","ope452rjyj","","ope452rjyj","""2024-11-12T18:58:50.197Z""","608","materials/imgs/D84.png","arrowright","","[""materials/imgs/D22.png"",""materials/imgs/D18.png""]","false","random","","",""
"","","","","","html-keyboard-response","383","523398","0.0-19.0-0.2-0.16","ope452rjyj","","ope452rjyj","""2024-11-12T18:58:50.197Z""","null","+","null","","","","","","",""
"","","","","","image-keyboard-response","384","524127","0.0-19.0-0.2-1.16","ope452rjyj","","ope452rjyj","""2024-11-12T18:58:50.197Z""","725","materials/imgs/D75.png","arrowleft","","[""materials/imgs/D20.png"",""materials/imgs/D76.png""]","false","random","","",""
"","","","","","html-keyboard-response","385","524630","0.0-19.0-0.2-0.17","ope452rjyj","","ope452rjyj","""2024-11-12T18:58:50.197Z""","null","+","null","","","","","","",""
"","","","","","image-keyboard-response","386","525652","0.0-19.0-0.2-1.17","ope452rjyj","","ope452rjyj","""2024-11-12T18:58:50.197Z""","1017","materials/imgs/D82.png","arrowleft","","[""materials/imgs/D92.png"",""materials/imgs/D47.png""]","false","random","","",""
"","","","","","html-keyboard-response","387","526157","0.0-19.0-0.2-0.18","ope452rjyj","","ope452rjyj","""2024-11-12T18:58:50.197Z""","null","+","null","","","","","","",""
"","","","","","image-keyboard-response","388","527344","0.0-19.0-0.2-1.18","ope452rjyj","","ope452rjyj","""2024-11-12T18:58:50.197Z""","1183","materials/imgs/D35.png","arrowright","","[""materials/imgs/D111.png"",""materials/imgs/D46.png""]","false","random","","",""
"","","","","","html-keyboard-response","389","527849","0.0-19.0-0.2-0.19","ope452rjyj","","ope452rjyj","""2024-11-12T18:58:50.197Z""","null","+","null","","","","","","",""
"","","","","","image-keyboard-response","390","528687","0.0-19.0-0.2-1.19","ope452rjyj","","ope452rjyj","""2024-11-12T18:58:50.197Z""","835","materials/imgs/D95.png","arrowright","","[""materials/imgs/D104.png"",""materials/imgs/D102.png""]","false","random","","",""
"","","","","","html-keyboard-response","391","529191","0.0-19.0-0.2-0.20","ope452rjyj","","ope452rjyj","""2024-11-12T18:58:50.197Z""","null","+","null","","","","","","",""
"","","","","","image-keyboard-response","392","530357","0.0-19.0-0.2-1.20","ope452rjyj","","ope452rjyj","""2024-11-12T18:58:50.197Z""","1162","materials/imgs/D34.png","arrowright","","[""materials/imgs/D80.png"",""materials/imgs/D74.png""]","false","random","","",""
"","","","","","html-keyboard-response","393","530864","0.0-19.0-1.2-0.2","ope452rjyj","","ope452rjyj","""2024-11-12T18:58:50.197Z""","null","+","null","","","","","","",""
"","","","","","image-keyboard-response","394","531577","0.0-19.0-1.2-1.2","ope452rjyj","","ope452rjyj","""2024-11-12T18:58:50.197Z""","710","materials/imgs/D106.png","arrowright","","[""materials/imgs/D106.png"",""materials/imgs/D101.png""]","","check","materials/imgs/D101.png","1","false"
"","","","","","html-keyboard-response","395","534054","0.0-19.0-1.2-2.2-0.2","ope452rjyj","","ope452rjyj","""2024-11-12T18:58:50.197Z""","2476","<p><strong>Incorrect!</strong></p>That was an attention check. Please pay attention while completing this task.<p>Press 'y' to continue.</p>","y","","","","","","",""
"","","","","","html-keyboard-response","396","534557","0.0-19.0-2.2-0.4","ope452rjyj","","ope452rjyj","""2024-11-12T18:58:50.197Z""","null","+","null","","","","","","",""
"","","","","","image-keyboard-response","397","535536","0.0-19.0-2.2-1.4","ope452rjyj","","ope452rjyj","""2024-11-12T18:58:50.197Z""","974","materials/imgs/D92.png","arrowright","","[""materials/imgs/D56.png"",""materials/imgs/D77.png""]","false","validation","","",""
"","","","","","html-keyboard-response","398","536048","0.0-19.0-2.2-0.5","ope452rjyj","","ope452rjyj","""2024-11-12T18:58:50.197Z""","null","+","null","","","","","","",""
"","","","","","image-keyboard-response","399","537189","0.0-19.0-2.2-1.5","ope452rjyj","","ope452rjyj","""2024-11-12T18:58:50.197Z""","1136","materials/imgs/D96.png","arrowright","","[""materials/imgs/D46.png"",""materials/imgs/D18.png""]","false","validation","","",""
"","","","","","html-keyboard-response","400","537697","0.0-19.0-0.3-0.21","ope452rjyj","","ope452rjyj","""2024-11-12T18:58:50.197Z""","null","+","null","","","","","","",""
"","","","","","image-keyboard-response","401","539188","0.0-19.0-0.3-1.21","ope452rjyj","","ope452rjyj","""2024-11-12T18:58:50.197Z""","1487","materials/imgs/D19.png","arrowleft","","[""materials/imgs/D83.png"",""materials/imgs/D8.png""]","false","random","","",""
"","","","","","html-keyboard-response","402","539697","0.0-19.0-0.3-0.22","ope452rjyj","","ope452rjyj","""2024-11-12T18:58:50.197Z""","null","+","null","","","","","","",""
"","","","","","image-keyboard-response","403","540919","0.0-19.0-0.3-1.22","ope452rjyj","","ope452rjyj","""2024-11-12T18:58:50.197Z""","1216","materials/imgs/D25.png","arrowright","","[""materials/imgs/D80.png"",""materials/imgs/D104.png""]","false","random","","",""
"","","","","","html-keyboard-response","404","541431","0.0-19.0-0.3-0.23","ope452rjyj","","ope452rjyj","""2024-11-12T18:58:50.197Z""","null","+","null","","","","","","",""
"","","","","","image-keyboard-response","405","543140","0.0-19.0-0.3-1.23","ope452rjyj","","ope452rjyj","""2024-11-12T18:58:50.197Z""","1705","materials/imgs/D51.png","arrowleft","","[""materials/imgs/D8.png"",""materials/imgs/D111.png""]","false","random","","",""
"","","","","","html-keyboard-response","406","543647","0.0-19.0-0.3-0.24","ope452rjyj","","ope452rjyj","""2024-11-12T18:58:50.197Z""","null","+","null","","","","","","",""
"","","","","","image-keyboard-response","407","544746","0.0-19.0-0.3-1.24","ope452rjyj","","ope452rjyj","""2024-11-12T18:58:50.197Z""","1092","materials/imgs/D78.png","arrowright","","[""materials/imgs/D64.png"",""materials/imgs/D29.png""]","false","random","","",""
"","","","","","html-keyboard-response","408","545258","0.0-19.0-0.3-0.25","ope452rjyj","","ope452rjyj","""2024-11-12T18:58:50.197Z""","null","+","null","","","","","","",""
"","","","","","image-keyboard-response","409","546452","0.0-19.0-0.3-1.25","ope452rjyj","","ope452rjyj","""2024-11-12T18:58:50.197Z""","1191","materials/imgs/D81.png","arrowright","","[""materials/imgs/D74.png"",""materials/imgs/D92.png""]","false","random","","",""
"","","","","","html-keyboard-response","410","546965","0.0-19.0-0.3-0.26","ope452rjyj","","ope452rjyj","""2024-11-12T18:58:50.197Z""","null","+","null","","","","","","",""
"","","","","","image-keyboard-response","411","547668","0.0-19.0-0.3-1.26","ope452rjyj","","ope452rjyj","""2024-11-12T18:58:50.197Z""","700","materials/imgs/D49.png","arrowright","","[""materials/imgs/D20.png"",""materials/imgs/D21.png""]","false","random","","",""
"","","","","","html-keyboard-response","412","548176","0.0-19.0-0.3-0.27","ope452rjyj","","ope452rjyj","""2024-11-12T18:58:50.197Z""","null","+","null","","","","","","",""
"","","","","","image-keyboard-response","413","550285","0.0-19.0-0.3-1.27","ope452rjyj","","ope452rjyj","""2024-11-12T18:58:50.197Z""","2105","materials/imgs/D19.png","arrowleft","","[""materials/imgs/D80.png"",""materials/imgs/D95.png""]","false","random","","",""
"","","","","","html-keyboard-response","414","550789","0.0-19.0-1.3-0.3","ope452rjyj","","ope452rjyj","""2024-11-12T18:58:50.197Z""","null","+","null","","","","","","",""
"","","","","","image-keyboard-response","415","552095","0.0-19.0-1.3-1.3","ope452rjyj","","ope452rjyj","""2024-11-12T18:58:50.197Z""","1304","materials/imgs/D106.png","arrowleft","","[""materials/imgs/D106.png"",""materials/imgs/D101.png""]","","check","materials/imgs/D106.png","0","true"
"","","","","","html-keyboard-response","416","552597","0.0-19.0-2.3-0.6","ope452rjyj","","ope452rjyj","""2024-11-12T18:58:50.197Z""","null","+","null","","","","","","",""
"","","","","","image-keyboard-response","417","556001","0.0-19.0-2.3-1.6","ope452rjyj","","ope452rjyj","""2024-11-12T18:58:50.197Z""","3392","materials/imgs/D4.png","arrowright","","[""materials/imgs/D52.png"",""materials/imgs/D83.png""]","false","validation","","",""
"","","","","","html-keyboard-response","418","556508","0.0-19.0-2.3-0.7","ope452rjyj","","ope452rjyj","""2024-11-12T18:58:50.197Z""","null","+","null","","","","","","",""
"","","","","","image-keyboard-response","419","557813","0.0-19.0-2.3-1.7","ope452rjyj","","ope452rjyj","""2024-11-12T18:58:50.197Z""","1302","materials/imgs/D57.png","arrowright","","[""materials/imgs/D111.png"",""materials/imgs/D4.png""]","false","validation","","",""
"","","","","","html-keyboard-response","420","558322","0.0-19.0-0.4-0.28","ope452rjyj","","ope452rjyj","""2024-11-12T18:58:50.197Z""","null","+","null","","","","","","",""
"","","","","","image-keyboard-response","421","559327","0.0-19.0-0.4-1.28","ope452rjyj","","ope452rjyj","""2024-11-12T18:58:50.197Z""","1002","materials/imgs/D104.png","arrowleft","","[""materials/imgs/D92.png"",""materials/imgs/D20.png""]","false","random","","",""
"","","","","","html-keyboard-response","422","559844","0.0-19.0-0.4-0.29","ope452rjyj","","ope452rjyj","""2024-11-12T18:58:50.197Z""","null","+","null","","","","","","",""
"","","","","","image-keyboard-response","423","561522","0.0-19.0-0.4-1.29","ope452rjyj","","ope452rjyj","""2024-11-12T18:58:50.197Z""","1675","materials/imgs/D102.png","arrowleft","","[""materials/imgs/D79.png"",""materials/imgs/D80.png""]","false","random","","",""
"","","","","","html-keyboard-response","424","562030","0.0-19.0-0.4-0.30","ope452rjyj","","ope452rjyj","""2024-11-12T18:58:50.197Z""","null","+","null","","","","","","",""
"","","","","","image-keyboard-response","425","563718","0.0-19.0-0.4-1.30","ope452rjyj","","ope452rjyj","""2024-11-12T18:58:50.197Z""","1685","materials/imgs/D75.png","arrowleft","","[""materials/imgs/D104.png"",""materials/imgs/D53.png""]","false","random","","",""
"","","","","","html-keyboard-response","426","564230","0.0-19.0-0.4-0.31","ope452rjyj","","ope452rjyj","""2024-11-12T18:58:50.197Z""","null","+","null","","","","","","",""
"","","","","","image-keyboard-response","427","565771","0.0-19.0-0.4-1.31","ope452rjyj","","ope452rjyj","""2024-11-12T18:58:50.197Z""","1536","materials/imgs/D106.png","arrowright","","[""materials/imgs/D104.png"",""materials/imgs/D51.png""]","false","random","","",""
"","","","","","html-keyboard-response","428","566280","0.0-19.0-0.4-0.32","ope452rjyj","","ope452rjyj","""2024-11-12T18:58:50.197Z""","null","+","null","","","","","","",""
"","","","","","image-keyboard-response","429","569217","0.0-19.0-0.4-1.32","ope452rjyj","","ope452rjyj","""2024-11-12T18:58:50.197Z""","2932","materials/imgs/D36.png","arrowleft","","[""materials/imgs/D105.png"",""materials/imgs/D4.png""]","false","random","","",""
"","","","","","html-keyboard-response","430","569729","0.0-19.0-0.4-0.33","ope452rjyj","","ope452rjyj","""2024-11-12T18:58:50.197Z""","null","+","null","","","","","","",""
"","","","","","image-keyboard-response","431","570852","0.0-19.0-0.4-1.33","ope452rjyj","","ope452rjyj","""2024-11-12T18:58:50.197Z""","1119","materials/imgs/D24.png","arrowleft","","[""materials/imgs/D37.png"",""materials/imgs/D48.png""]","false","random","","",""
"","","","","","html-keyboard-response","432","571359","0.0-19.0-0.4-0.34","ope452rjyj","","ope452rjyj","""2024-11-12T18:58:50.197Z""","null","+","null","","","","","","",""
"","","","","","image-keyboard-response","433","572654","0.0-19.0-0.4-1.34","ope452rjyj","","ope452rjyj","""2024-11-12T18:58:50.197Z""","1289","materials/imgs/D21.png","arrowright","","[""materials/imgs/D57.png"",""materials/imgs/D77.png""]","false","random","","",""
"","","","","","html-keyboard-response","434","573156","0.0-19.0-1.4-0.4","ope452rjyj","","ope452rjyj","""2024-11-12T18:58:50.197Z""","null","+","null","","","","","","",""
"","","","","","image-keyboard-response","435","574008","0.0-19.0-1.4-1.4","ope452rjyj","","ope452rjyj","""2024-11-12T18:58:50.197Z""","848","materials/imgs/D8.png","arrowright","","[""materials/imgs/D18.png"",""materials/imgs/D8.png""]","","check","materials/imgs/D8.png","1","true"
"","","","","","html-keyboard-response","436","574513","0.0-19.0-2.4-0.8","ope452rjyj","","ope452rjyj","""2024-11-12T18:58:50.197Z""","null","+","null","","","","","","",""
"","","","","","image-keyboard-response","437","576617","0.0-19.0-2.4-1.8","ope452rjyj","","ope452rjyj","""2024-11-12T18:58:50.197Z""","2101","materials/imgs/D75.png","arrowright","","[""materials/imgs/D96.png"",""materials/imgs/D4.png""]","false","validation","","",""
"","","","","","html-keyboard-response","438","577126","0.0-19.0-2.4-0.9","ope452rjyj","","ope452rjyj","""2024-11-12T18:58:50.197Z""","null","+","null","","","","","","",""
