"success","timeout","failed_images","failed_audio","failed_video","trial_type","trial_index","time_elapsed","internal_node_id","subject_id","sona_id","subjectID","dateInfo","rt","stimulus","response","question_order","choices","speedy","sampleAlg","selected_image","selected_index","correct"
"true","false","[]","[]","[]","preload","0","602","0.0-0.0","ot2odwhhnq","","ot2odwhhnq","""2024-11-12T18:06:02.871Z""","","","","","","","","","",""
"true","","","","","fullscreen","1","1572692","0.0-1.0","ot2odwhhnq","","ot2odwhhnq","""2024-11-12T18:06:02.871Z""","","","","","","","","","",""
"","","","","","html-keyboard-response","2","1572706","0.0-2.0","ot2odwhhnq","","ot2odwhhnq","""2024-11-12T18:06:02.871Z""","null","","null","","","","","","",""
"","","","","","html-button-response","3","1575644","0.0-3.0","ot2odwhhnq","","ot2odwhhnq","""2024-11-12T18:06:02.871Z""","2935","<div style='text-align:center; font-size:20px; line-height:25px; width: 1200px;'>
                Welcome to our experiment! <br>
                <br>At the bottom of this screen, you will see a button that says 'Begin Experiment.
                <br>Please only click that button when you are ready to complete the 25 minute experiment in one sitting. <br>
                <br> Once you click that button, it will not be possible to restart the experiment. <br><br>","0","","","","","","",""
"true","","","","","fullscreen","4","1577875","0.0-4.0","ot2odwhhnq","","ot2odwhhnq","""2024-11-12T18:06:02.871Z""","","","","","","","","","",""
"","","","","","survey-multi-select","5","1590570","0.0-5.0","ot2odwhhnq","","ot2odwhhnq","""2024-11-12T18:06:02.871Z""","12688","","{""Consent"":[""<strong>I consent</strong>""]}","[0]","","","","","",""
"","","","","","html-button-response","6","1592926","0.0-6.0","ot2odwhhnq","","ot2odwhhnq","""2024-11-12T18:06:02.871Z""","2355","Welcome! <p> This experiment involves two parts: demographic information, followed by the experimental task.<p> It will take about 25 minutes to complete both parts.","0","","","","","","",""
"","","","","","survey-text","7","1600961","0.0-7.0","ot2odwhhnq","","ot2odwhhnq","""2024-11-12T18:06:02.871Z""","8032","","{""Age"":""20"",""Gender"":""Man"",""Race/ethnicity"":""White""}","","","","","","",""
"","","","","","html-button-response","8","1628161","0.0-8.0","ot2odwhhnq","","ot2odwhhnq","""2024-11-12T18:06:02.871Z""","27198","<div style='text-align: center;'>
      <p>In each trial of this task, you will see three texture images: one target item on top, and two choices beneath the target item.</p>
      <p><strong>Please select the item that is most like the target item.</strong></p>
      <p>To select the option on the <strong>LEFT</strong>, press the <strong>LEFT ARROW</strong> key. 
      To select the option on the <strong>RIGHT</strong>, press the <strong>RIGHT ARROW</strong> key.</p>
                  <!-- Target Image at the Top -->
      <div style='margin: 20px;'>
        <img src='materials/imgs/instruction_images/InstructionImg1D78.png' alt='Target Image' style='width:200px; height:auto;' />
        <p><em>Target Image</em></p>
      </div>

      <!-- Two Choice Images Below -->
      <div style='display: flex; justify-content: center;'>
        <div style='margin-right: 50px;'>
          <img src='materials/imgs/instruction_images/InstructionImg2D34.png' alt='Choice Image 1' style='width:150px; height:auto;' />
          <p><em><strong>LEFT ARROW</strong></em></p>
        </div>
        <div style='margin-left: 50px;'>
          <img src='materials/imgs/instruction_images/InstructionImg3D80.png' alt='Choice Image 2' style='width:150px; height:auto;' />
          <p><em><strong>RIGHT ARROW</strong></em></p>
        </div>
      </div>
    </div>

      <p>When you are ready to proceed, please click 'Continue' to begin practice.</p>","0","","","","","","",""
"","","","","","html-keyboard-response","9","1630672","0.0-9.0","ot2odwhhnq","","ot2odwhhnq","""2024-11-12T18:06:02.871Z""","null","+","null","","","","","","",""
"","","","","","html-keyboard-response","10","1631176","0.0-10.0-0.0-0.0","ot2odwhhnq","","ot2odwhhnq","""2024-11-12T18:06:02.871Z""","null","+","null","","","","","","",""
"","","","","","image-keyboard-response","11","1632599","0.0-10.0-0.0-1.0","ot2odwhhnq","","ot2odwhhnq","""2024-11-12T18:06:02.871Z""","1416","materials/imgs/D92.png","arrowright","","[""materials/imgs/D77.png"",""materials/imgs/D78.png""]","false","random","","",""
"","","","","","html-keyboard-response","12","1633104","0.0-10.0-0.0-0.1","ot2odwhhnq","","ot2odwhhnq","""2024-11-12T18:06:02.871Z""","null","+","null","","","","","","",""
"","","","","","image-keyboard-response","13","1634662","0.0-10.0-0.0-1.1","ot2odwhhnq","","ot2odwhhnq","""2024-11-12T18:06:02.871Z""","1554","materials/imgs/D80.png","arrowleft","","[""materials/imgs/D17.png"",""materials/imgs/D105.png""]","false","random","","",""
"","","","","","html-keyboard-response","14","1635166","0.0-10.0-0.0-0.2","ot2odwhhnq","","ot2odwhhnq","""2024-11-12T18:06:02.871Z""","null","+","null","","","","","","",""
"","","","","","image-keyboard-response","15","1636101","0.0-10.0-0.0-1.2","ot2odwhhnq","","ot2odwhhnq","""2024-11-12T18:06:02.871Z""","931","materials/imgs/D84.png","arrowleft","","[""materials/imgs/D24.png"",""materials/imgs/D66.png""]","false","random","","",""
"","","","","","html-keyboard-response","16","1636604","0.0-10.0-0.0-0.3","ot2odwhhnq","","ot2odwhhnq","""2024-11-12T18:06:02.871Z""","null","+","null","","","","","","",""
"","","","","","image-keyboard-response","17","1638104","0.0-10.0-0.0-1.3","ot2odwhhnq","","ot2odwhhnq","""2024-11-12T18:06:02.871Z""","1497","materials/imgs/D74.png","arrowleft","","[""materials/imgs/D6.png"",""materials/imgs/D96.png""]","false","random","","",""
"","","","","","html-keyboard-response","18","1638609","0.0-10.0-0.0-0.4","ot2odwhhnq","","ot2odwhhnq","""2024-11-12T18:06:02.871Z""","null","+","null","","","","","","",""
"","","","","","image-keyboard-response","19","1639630","0.0-10.0-0.0-1.4","ot2odwhhnq","","ot2odwhhnq","""2024-11-12T18:06:02.871Z""","1017","materials/imgs/D111.png","arrowright","","[""materials/imgs/D55.png"",""materials/imgs/D66.png""]","false","random","","",""
"","","","","","html-keyboard-response","20","1640132","0.0-10.0-0.0-0.5","ot2odwhhnq","","ot2odwhhnq","""2024-11-12T18:06:02.871Z""","null","+","null","","","","","","",""
"","","","","","image-keyboard-response","21","1641949","0.0-10.0-0.0-1.5","ot2odwhhnq","","ot2odwhhnq","""2024-11-12T18:06:02.871Z""","1814","materials/imgs/D104.png","arrowleft","","[""materials/imgs/D96.png"",""materials/imgs/D48.png""]","false","random","","",""
"","","","","","html-keyboard-response","22","1642454","0.0-10.0-0.0-0.6","ot2odwhhnq","","ot2odwhhnq","""2024-11-12T18:06:02.871Z""","null","+","null","","","","","","",""
"","","","","","image-keyboard-response","23","1644019","0.0-10.0-0.0-1.6","ot2odwhhnq","","ot2odwhhnq","""2024-11-12T18:06:02.871Z""","1561","materials/imgs/D37.png","arrowleft","","[""materials/imgs/D46.png"",""materials/imgs/D53.png""]","false","random","","",""
"","","","","","html-keyboard-response","24","1644522","0.0-10.0-0.0-0.7","ot2odwhhnq","","ot2odwhhnq","""2024-11-12T18:06:02.871Z""","null","+","null","","","","","","",""
"","","","","","image-keyboard-response","25","1645637","0.0-10.0-0.0-1.7","ot2odwhhnq","","ot2odwhhnq","""2024-11-12T18:06:02.871Z""","1111","materials/imgs/D78.png","arrowright","","[""materials/imgs/D75.png"",""materials/imgs/D87.png""]","false","random","","",""
"","","","","","html-keyboard-response","26","1646140","0.0-10.0-0.0-0.8","ot2odwhhnq","","ot2odwhhnq","""2024-11-12T18:06:02.871Z""","null","+","null","","","","","","",""
"","","","","","image-keyboard-response","27","1647722","0.0-10.0-0.0-1.8","ot2odwhhnq","","ot2odwhhnq","""2024-11-12T18:06:02.871Z""","1578","materials/imgs/D3.png","arrowleft","","[""materials/imgs/D79.png"",""materials/imgs/D46.png""]","false","random","","",""
"","","","","","html-keyboard-response","28","1648224","0.0-10.0-0.0-0.9","ot2odwhhnq","","ot2odwhhnq","""2024-11-12T18:06:02.871Z""","null","+","null","","","","","","",""
"","","","","","image-keyboard-response","29","1649130","0.0-10.0-0.0-1.9","ot2odwhhnq","","ot2odwhhnq","""2024-11-12T18:06:02.871Z""","902","materials/imgs/D55.png","arrowright","","[""materials/imgs/D77.png"",""materials/imgs/D36.png""]","false","random","","",""
"","","","","","html-button-response","30","1650869","0.0-11.0","ot2odwhhnq","","ot2odwhhnq","""2024-11-12T18:06:02.871Z""","1738","<p>Great job!</p>
      <p>You are now ready to begin the experiment.</p>
      <p>There will be around 200 trials. You will have opportunities to take breaks at three stages of the trials.</p>
      <p>When you are ready to begin please click 'Continue'.</p>","0","","","","","","",""
"","","","","","html-keyboard-response","31","1653379","0.0-12.0","ot2odwhhnq","","ot2odwhhnq","""2024-11-12T18:06:02.871Z""","null","+","null","","","","","","",""
"","","","","","html-keyboard-response","32","1653883","0.0-13.0-0.0-0.0","ot2odwhhnq","","ot2odwhhnq","""2024-11-12T18:06:02.871Z""","null","+","null","","","","","","",""
"","","","","","image-keyboard-response","33","1655279","0.0-13.0-0.0-1.0","ot2odwhhnq","","ot2odwhhnq","""2024-11-12T18:06:02.871Z""","1392","materials/imgs/D75.png","arrowright","","[""materials/imgs/D47.png"",""materials/imgs/D57.png""]","false","random","","",""
"","","","","","html-keyboard-response","34","1655784","0.0-13.0-0.0-0.1","ot2odwhhnq","","ot2odwhhnq","""2024-11-12T18:06:02.871Z""","null","+","null","","","","","","",""
"","","","","","image-keyboard-response","35","1656919","0.0-13.0-0.0-1.1","ot2odwhhnq","","ot2odwhhnq","""2024-11-12T18:06:02.871Z""","1131","materials/imgs/D81.png","arrowright","","[""materials/imgs/D25.png"",""materials/imgs/D37.png""]","false","random","","",""
"","","","","","html-keyboard-response","36","1657423","0.0-13.0-0.0-0.2","ot2odwhhnq","","ot2odwhhnq","""2024-11-12T18:06:02.871Z""","null","+","null","","","","","","",""
"","","","","","image-keyboard-response","37","1658711","0.0-13.0-0.0-1.2","ot2odwhhnq","","ot2odwhhnq","""2024-11-12T18:06:02.871Z""","1285","materials/imgs/D101.png","arrowleft","","[""materials/imgs/D103.png"",""materials/imgs/D77.png""]","false","random","","",""
"","","","","","html-keyboard-response","38","1659214","0.0-13.0-0.0-0.3","ot2odwhhnq","","ot2odwhhnq","""2024-11-12T18:06:02.871Z""","null","+","null","","","","","","",""
"","","","","","image-keyboard-response","39","1660271","0.0-13.0-0.0-1.3","ot2odwhhnq","","ot2odwhhnq","""2024-11-12T18:06:02.871Z""","1054","materials/imgs/D94.png","arrowright","","[""materials/imgs/D29.png"",""materials/imgs/D78.png""]","false","random","","",""
"","","","","","html-keyboard-response","40","1660775","0.0-13.0-0.0-0.4","ot2odwhhnq","","ot2odwhhnq","""2024-11-12T18:06:02.871Z""","null","+","null","","","","","","",""
"","","","","","image-keyboard-response","41","1663437","0.0-13.0-0.0-1.4","ot2odwhhnq","","ot2odwhhnq","""2024-11-12T18:06:02.871Z""","2658","materials/imgs/D48.png","arrowleft","","[""materials/imgs/D84.png"",""materials/imgs/D78.png""]","false","random","","",""
"","","","","","html-keyboard-response","42","1663941","0.0-13.0-0.0-0.5","ot2odwhhnq","","ot2odwhhnq","""2024-11-12T18:06:02.871Z""","null","+","null","","","","","","",""
"","","","","","image-keyboard-response","43","1664716","0.0-13.0-0.0-1.5","ot2odwhhnq","","ot2odwhhnq","""2024-11-12T18:06:02.871Z""","772","materials/imgs/D46.png","arrowright","","[""materials/imgs/D106.png"",""materials/imgs/D74.png""]","false","random","","",""
"","","","","","html-keyboard-response","44","1665222","0.0-13.0-0.0-0.6","ot2odwhhnq","","ot2odwhhnq","""2024-11-12T18:06:02.871Z""","null","+","null","","","","","","",""
"","","","","","image-keyboard-response","45","1666191","0.0-13.0-0.0-1.6","ot2odwhhnq","","ot2odwhhnq","""2024-11-12T18:06:02.871Z""","966","materials/imgs/D52.png","arrowleft","","[""materials/imgs/D47.png"",""materials/imgs/D46.png""]","false","random","","",""
"","","","","","html-keyboard-response","46","1666695","0.0-13.0-1.0-0.0","ot2odwhhnq","","ot2odwhhnq","""2024-11-12T18:06:02.871Z""","null","+","null","","","","","","",""
"","","","","","image-keyboard-response","47","1667349","0.0-13.0-1.0-1.0","ot2odwhhnq","","ot2odwhhnq","""2024-11-12T18:06:02.871Z""","650","materials/imgs/D101.png","arrowright","","[""materials/imgs/D106.png"",""materials/imgs/D101.png""]","","check","materials/imgs/D101.png","1","true"
"","","","","","html-keyboard-response","48","1667853","0.0-13.0-2.0-0.0","ot2odwhhnq","","ot2odwhhnq","""2024-11-12T18:06:02.871Z""","null","+","null","","","","","","",""
"","","","","","image-keyboard-response","49","1668626","0.0-13.0-2.0-1.0","ot2odwhhnq","","ot2odwhhnq","""2024-11-12T18:06:02.871Z""","770","materials/imgs/D57.png","arrowright","","[""materials/imgs/D111.png"",""materials/imgs/D4.png""]","false","validation","","",""
"","","","","","html-keyboard-response","50","1669131","0.0-13.0-2.0-0.1","ot2odwhhnq","","ot2odwhhnq","""2024-11-12T18:06:02.871Z""","null","+","null","","","","","","",""
"","","","","","image-keyboard-response","51","1670008","0.0-13.0-2.0-1.1","ot2odwhhnq","","ot2odwhhnq","""2024-11-12T18:06:02.871Z""","873","materials/imgs/D103.png","arrowright","","[""materials/imgs/D76.png"",""materials/imgs/D106.png""]","false","validation","","",""
"","","","","","html-keyboard-response","52","1670511","0.0-13.0-0.1-0.7","ot2odwhhnq","","ot2odwhhnq","""2024-11-12T18:06:02.871Z""","null","+","null","","","","","","",""
"","","","","","image-keyboard-response","53","1673144","0.0-13.0-0.1-1.7","ot2odwhhnq","","ot2odwhhnq","""2024-11-12T18:06:02.871Z""","2629","materials/imgs/D16.png","arrowright","","[""materials/imgs/D101.png"",""materials/imgs/D104.png""]","false","random","","",""
"","","","","","html-keyboard-response","54","1673648","0.0-13.0-0.1-0.8","ot2odwhhnq","","ot2odwhhnq","""2024-11-12T18:06:02.871Z""","null","+","null","","","","","","",""
"","","","","","image-keyboard-response","55","1674584","0.0-13.0-0.1-1.8","ot2odwhhnq","","ot2odwhhnq","""2024-11-12T18:06:02.871Z""","933","materials/imgs/D102.png","arrowleft","","[""materials/imgs/D24.png"",""materials/imgs/D3.png""]","false","random","","",""
"","","","","","html-keyboard-response","56","1675087","0.0-13.0-0.1-0.9","ot2odwhhnq","","ot2odwhhnq","""2024-11-12T18:06:02.871Z""","null","+","null","","","","","","",""
"","","","","","image-keyboard-response","57","1676111","0.0-13.0-0.1-1.9","ot2odwhhnq","","ot2odwhhnq","""2024-11-12T18:06:02.871Z""","1021","materials/imgs/D111.png","arrowleft","","[""materials/imgs/D82.png"",""materials/imgs/D32.png""]","false","random","","",""
"","","","","","html-keyboard-response","58","1676615","0.0-13.0-0.1-0.10","ot2odwhhnq","","ot2odwhhnq","""2024-11-12T18:06:02.871Z""","null","+","null","","","","","","",""
"","","","","","image-keyboard-response","59","1677678","0.0-13.0-0.1-1.10","ot2odwhhnq","","ot2odwhhnq","""2024-11-12T18:06:02.871Z""","1059","materials/imgs/D76.png","arrowright","","[""materials/imgs/D48.png"",""materials/imgs/D56.png""]","false","random","","",""
"","","","","","html-keyboard-response","60","1678182","0.0-13.0-0.1-0.11","ot2odwhhnq","","ot2odwhhnq","""2024-11-12T18:06:02.871Z""","null","+","null","","","","","","",""
"","","","","","image-keyboard-response","61","1679207","0.0-13.0-0.1-1.11","ot2odwhhnq","","ot2odwhhnq","""2024-11-12T18:06:02.871Z""","1022","materials/imgs/D11.png","arrowleft","","[""materials/imgs/D105.png"",""materials/imgs/D32.png""]","false","random","","",""
"","","","","","html-keyboard-response","62","1679711","0.0-13.0-0.1-0.12","ot2odwhhnq","","ot2odwhhnq","""2024-11-12T18:06:02.871Z""","null","+","null","","","","","","",""
"","","","","","image-keyboard-response","63","1682019","0.0-13.0-0.1-1.12","ot2odwhhnq","","ot2odwhhnq","""2024-11-12T18:06:02.871Z""","2305","materials/imgs/D77.png","arrowright","","[""materials/imgs/D101.png"",""materials/imgs/D56.png""]","false","random","","",""
"","","","","","html-keyboard-response","64","1682523","0.0-13.0-0.1-0.13","ot2odwhhnq","","ot2odwhhnq","""2024-11-12T18:06:02.871Z""","null","+","null","","","","","","",""
"","","","","","image-keyboard-response","65","1684505","0.0-13.0-0.1-1.13","ot2odwhhnq","","ot2odwhhnq","""2024-11-12T18:06:02.871Z""","1979","materials/imgs/D47.png","arrowright","","[""materials/imgs/D6.png"",""materials/imgs/D32.png""]","false","random","","",""
"","","","","","html-keyboard-response","66","1685011","0.0-13.0-1.1-0.1","ot2odwhhnq","","ot2odwhhnq","""2024-11-12T18:06:02.871Z""","null","+","null","","","","","","",""
"","","","","","image-keyboard-response","67","1685713","0.0-13.0-1.1-1.1","ot2odwhhnq","","ot2odwhhnq","""2024-11-12T18:06:02.871Z""","700","materials/imgs/D53.png","arrowright","","[""materials/imgs/D64.png"",""materials/imgs/D53.png""]","","check","materials/imgs/D53.png","1","true"
"","","","","","html-keyboard-response","68","1686216","0.0-13.0-2.1-0.2","ot2odwhhnq","","ot2odwhhnq","""2024-11-12T18:06:02.871Z""","null","+","null","","","","","","",""
"","","","","","image-keyboard-response","69","1687322","0.0-13.0-2.1-1.2","ot2odwhhnq","","ot2odwhhnq","""2024-11-12T18:06:02.871Z""","1102","materials/imgs/D22.png","arrowleft","","[""materials/imgs/D4.png"",""materials/imgs/D25.png""]","false","validation","","",""
"","","","","","html-keyboard-response","70","1687823","0.0-13.0-2.1-0.3","ot2odwhhnq","","ot2odwhhnq","""2024-11-12T18:06:02.871Z""","null","+","null","","","","","","",""
"","","","","","image-keyboard-response","71","1688982","0.0-13.0-2.1-1.3","ot2odwhhnq","","ot2odwhhnq","""2024-11-12T18:06:02.871Z""","1156","materials/imgs/D20.png","arrowleft","","[""materials/imgs/D84.png"",""materials/imgs/D85.png""]","false","validation","","",""
"","","","","","html-keyboard-response","72","1689486","0.0-13.0-0.2-0.14","ot2odwhhnq","","ot2odwhhnq","""2024-11-12T18:06:02.871Z""","null","+","null","","","","","","",""
"","","","","","image-keyboard-response","73","1690231","0.0-13.0-0.2-1.14","ot2odwhhnq","","ot2odwhhnq","""2024-11-12T18:06:02.871Z""","739","materials/imgs/D82.png","arrowright","","[""materials/imgs/D35.png"",""materials/imgs/D9.png""]","false","random","","",""
"","","","","","html-keyboard-response","74","1690735","0.0-13.0-0.2-0.15","ot2odwhhnq","","ot2odwhhnq","""2024-11-12T18:06:02.871Z""","null","+","null","","","","","","",""
"","","","","","image-keyboard-response","75","1691636","0.0-13.0-0.2-1.15","ot2odwhhnq","","ot2odwhhnq","""2024-11-12T18:06:02.871Z""","897","materials/imgs/D102.png","arrowleft","","[""materials/imgs/D82.png"",""materials/imgs/D76.png""]","false","random","","",""
"","","","","","html-keyboard-response","76","1692139","0.0-13.0-0.2-0.16","ot2odwhhnq","","ot2odwhhnq","""2024-11-12T18:06:02.871Z""","null","+","null","","","","","","",""
"","","","","","image-keyboard-response","77","1694463","0.0-13.0-0.2-1.16","ot2odwhhnq","","ot2odwhhnq","""2024-11-12T18:06:02.871Z""","2320","materials/imgs/D95.png","arrowleft","","[""materials/imgs/D29.png"",""materials/imgs/D78.png""]","false","random","","",""
"","","","","","html-keyboard-response","78","1694966","0.0-13.0-0.2-0.17","ot2odwhhnq","","ot2odwhhnq","""2024-11-12T18:06:02.871Z""","null","+","null","","","","","","",""
"","","","","","image-keyboard-response","79","1696064","0.0-13.0-0.2-1.17","ot2odwhhnq","","ot2odwhhnq","""2024-11-12T18:06:02.871Z""","1095","materials/imgs/D111.png","arrowright","","[""materials/imgs/D53.png"",""materials/imgs/D76.png""]","false","random","","",""
"","","","","","html-keyboard-response","80","1696565","0.0-13.0-0.2-0.18","ot2odwhhnq","","ot2odwhhnq","""2024-11-12T18:06:02.871Z""","null","+","null","","","","","","",""
"","","","","","image-keyboard-response","81","1698213","0.0-13.0-0.2-1.18","ot2odwhhnq","","ot2odwhhnq","""2024-11-12T18:06:02.871Z""","1645","materials/imgs/D105.png","arrowleft","","[""materials/imgs/D103.png"",""materials/imgs/D84.png""]","false","random","","",""
"","","","","","html-keyboard-response","82","1698717","0.0-13.0-0.2-0.19","ot2odwhhnq","","ot2odwhhnq","""2024-11-12T18:06:02.871Z""","null","+","null","","","","","","",""
"","","","","","image-keyboard-response","83","1699417","0.0-13.0-0.2-1.19","ot2odwhhnq","","ot2odwhhnq","""2024-11-12T18:06:02.871Z""","696","materials/imgs/D9.png","arrowright","","[""materials/imgs/D17.png"",""materials/imgs/D32.png""]","false","random","","",""
"","","","","","html-keyboard-response","84","1699921","0.0-13.0-0.2-0.20","ot2odwhhnq","","ot2odwhhnq","""2024-11-12T18:06:02.871Z""","null","+","null","","","","","","",""
"","","","","","image-keyboard-response","85","1700907","0.0-13.0-0.2-1.20","ot2odwhhnq","","ot2odwhhnq","""2024-11-12T18:06:02.871Z""","983","materials/imgs/D96.png","arrowleft","","[""materials/imgs/D76.png"",""materials/imgs/D36.png""]","false","random","","",""
"","","","","","html-keyboard-response","86","1701412","0.0-13.0-1.2-0.2","ot2odwhhnq","","ot2odwhhnq","""2024-11-12T18:06:02.871Z""","null","+","null","","","","","","",""
"","","","","","image-keyboard-response","87","1702076","0.0-13.0-1.2-1.2","ot2odwhhnq","","ot2odwhhnq","""2024-11-12T18:06:02.871Z""","662","materials/imgs/D76.png","arrowleft","","[""materials/imgs/D76.png"",""materials/imgs/D78.png""]","","check","materials/imgs/D76.png","0","true"
"","","","","","html-keyboard-response","88","1702580","0.0-13.0-2.2-0.4","ot2odwhhnq","","ot2odwhhnq","""2024-11-12T18:06:02.871Z""","null","+","null","","","","","","",""
"","","","","","image-keyboard-response","89","1705664","0.0-13.0-2.2-1.4","ot2odwhhnq","","ot2odwhhnq","""2024-11-12T18:06:02.871Z""","3081","materials/imgs/D32.png","arrowleft","","[""materials/imgs/D68.png"",""materials/imgs/D96.png""]","false","validation","","",""
"","","","","","html-keyboard-response","90","1706169","0.0-13.0-2.2-0.5","ot2odwhhnq","","ot2odwhhnq","""2024-11-12T18:06:02.871Z""","null","+","null","","","","","","",""
"","","","","","image-keyboard-response","91","1707597","0.0-13.0-2.2-1.5","ot2odwhhnq","","ot2odwhhnq","""2024-11-12T18:06:02.871Z""","1425","materials/imgs/D19.png","arrowleft","","[""materials/imgs/D111.png"",""materials/imgs/D56.png""]","false","validation","","",""
"","","","","","html-keyboard-response","92","1708100","0.0-13.0-0.3-0.21","ot2odwhhnq","","ot2odwhhnq","""2024-11-12T18:06:02.871Z""","null","+","null","","","","","","",""
"","","","","","image-keyboard-response","93","1711339","0.0-13.0-0.3-1.21","ot2odwhhnq","","ot2odwhhnq","""2024-11-12T18:06:02.871Z""","3236","materials/imgs/D17.png","arrowleft","","[""materials/imgs/D22.png"",""materials/imgs/D35.png""]","false","random","","",""
"","","","","","html-keyboard-response","94","1711842","0.0-13.0-0.3-0.22","ot2odwhhnq","","ot2odwhhnq","""2024-11-12T18:06:02.871Z""","null","+","null","","","","","","",""
"","","","","","image-keyboard-response","95","1713045","0.0-13.0-0.3-1.22","ot2odwhhnq","","ot2odwhhnq","""2024-11-12T18:06:02.871Z""","1199","materials/imgs/D35.png","arrowleft","","[""materials/imgs/D36.png"",""materials/imgs/D105.png""]","false","random","","",""
"","","","","","html-keyboard-response","96","1713548","0.0-13.0-0.3-0.23","ot2odwhhnq","","ot2odwhhnq","""2024-11-12T18:06:02.871Z""","null","+","null","","","","","","",""
"","","","","","image-keyboard-response","97","1715106","0.0-13.0-0.3-1.23","ot2odwhhnq","","ot2odwhhnq","""2024-11-12T18:06:02.871Z""","1555","materials/imgs/D49.png","arrowright","","[""materials/imgs/D46.png"",""materials/imgs/D82.png""]","false","random","","",""
"","","","","","html-keyboard-response","98","1715609","0.0-13.0-0.3-0.24","ot2odwhhnq","","ot2odwhhnq","""2024-11-12T18:06:02.871Z""","null","+","null","","","","","","",""
"","","","","","image-keyboard-response","99","1716464","0.0-13.0-0.3-1.24","ot2odwhhnq","","ot2odwhhnq","""2024-11-12T18:06:02.871Z""","851","materials/imgs/D17.png","arrowleft","","[""materials/imgs/D85.png"",""materials/imgs/D49.png""]","false","random","","",""
"","","","","","html-keyboard-response","100","1716969","0.0-13.0-0.3-0.25","ot2odwhhnq","","ot2odwhhnq","""2024-11-12T18:06:02.871Z""","null","+","null","","","","","","",""
"","","","","","image-keyboard-response","101","1718655","0.0-13.0-0.3-1.25","ot2odwhhnq","","ot2odwhhnq","""2024-11-12T18:06:02.871Z""","1683","materials/imgs/D102.png","arrowleft","","[""materials/imgs/D11.png"",""materials/imgs/D85.png""]","false","random","","",""
"","","","","","html-keyboard-response","102","1719159","0.0-13.0-0.3-0.26","ot2odwhhnq","","ot2odwhhnq","""2024-11-12T18:06:02.871Z""","null","+","null","","","","","","",""
"","","","","","image-keyboard-response","103","1721629","0.0-13.0-0.3-1.26","ot2odwhhnq","","ot2odwhhnq","""2024-11-12T18:06:02.871Z""","2467","materials/imgs/D4.png","arrowleft","","[""materials/imgs/D104.png"",""materials/imgs/D37.png""]","false","random","","",""
"","","","","","html-keyboard-response","104","1722133","0.0-13.0-0.3-0.27","ot2odwhhnq","","ot2odwhhnq","""2024-11-12T18:06:02.871Z""","null","+","null","","","","","","",""
"","","","","","image-keyboard-response","105","1724281","0.0-13.0-0.3-1.27","ot2odwhhnq","","ot2odwhhnq","""2024-11-12T18:06:02.871Z""","2145","materials/imgs/D104.png","arrowleft","","[""materials/imgs/D9.png"",""materials/imgs/D24.png""]","false","random","","",""
"","","","","","html-keyboard-response","106","1724785","0.0-13.0-1.3-0.3","ot2odwhhnq","","ot2odwhhnq","""2024-11-12T18:06:02.871Z""","null","+","null","","","","","","",""
"","","","","","image-keyboard-response","107","1725500","0.0-13.0-1.3-1.3","ot2odwhhnq","","ot2odwhhnq","""2024-11-12T18:06:02.871Z""","713","materials/imgs/D106.png","arrowleft","","[""materials/imgs/D106.png"",""materials/imgs/D101.png""]","","check","materials/imgs/D106.png","0","true"
"","","","","","html-keyboard-response","108","1726004","0.0-13.0-2.3-0.6","ot2odwhhnq","","ot2odwhhnq","""2024-11-12T18:06:02.871Z""","null","+","null","","","","","","",""
"","","","","","image-keyboard-response","109","1726970","0.0-13.0-2.3-1.6","ot2odwhhnq","","ot2odwhhnq","""2024-11-12T18:06:02.871Z""","963","materials/imgs/D53.png","arrowleft","","[""materials/imgs/D77.png"",""materials/imgs/D75.png""]","false","validation","","",""
"","","","","","html-keyboard-response","110","1727470","0.0-13.0-2.3-0.7","ot2odwhhnq","","ot2odwhhnq","""2024-11-12T18:06:02.871Z""","null","+","null","","","","","","",""
"","","","","","image-keyboard-response","111","1728695","0.0-13.0-2.3-1.7","ot2odwhhnq","","ot2odwhhnq","""2024-11-12T18:06:02.871Z""","1221","materials/imgs/D84.png","arrowleft","","[""materials/imgs/D106.png"",""materials/imgs/D37.png""]","false","validation","","",""
"","","","","","html-keyboard-response","112","1729199","0.0-13.0-0.4-0.28","ot2odwhhnq","","ot2odwhhnq","""2024-11-12T18:06:02.871Z""","null","+","null","","","","","","",""
"","","","","","image-keyboard-response","113","1730418","0.0-13.0-0.4-1.28","ot2odwhhnq","","ot2odwhhnq","""2024-11-12T18:06:02.871Z""","1216","materials/imgs/D84.png","arrowleft","","[""materials/imgs/D3.png"",""materials/imgs/D6.png""]","false","random","","",""
"","","","","","html-keyboard-response","114","1730922","0.0-13.0-0.4-0.29","ot2odwhhnq","","ot2odwhhnq","""2024-11-12T18:06:02.871Z""","null","+","null","","","","","","",""
"","","","","","image-keyboard-response","115","1733023","0.0-13.0-0.4-1.29","ot2odwhhnq","","ot2odwhhnq","""2024-11-12T18:06:02.871Z""","2098","materials/imgs/D96.png","arrowleft","","[""materials/imgs/D32.png"",""materials/imgs/D16.png""]","false","random","","",""
"","","","","","html-keyboard-response","116","1733528","0.0-13.0-0.4-0.30","ot2odwhhnq","","ot2odwhhnq","""2024-11-12T18:06:02.871Z""","null","+","null","","","","","","",""
"","","","","","image-keyboard-response","117","1735556","0.0-13.0-0.4-1.30","ot2odwhhnq","","ot2odwhhnq","""2024-11-12T18:06:02.871Z""","2025","materials/imgs/D17.png","arrowleft","","[""materials/imgs/D21.png"",""materials/imgs/D103.png""]","false","random","","",""
"","","","","","html-keyboard-response","118","1736062","0.0-13.0-0.4-0.31","ot2odwhhnq","","ot2odwhhnq","""2024-11-12T18:06:02.871Z""","null","+","null","","","","","","",""
"","","","","","image-keyboard-response","119","1737549","0.0-13.0-0.4-1.31","ot2odwhhnq","","ot2odwhhnq","""2024-11-12T18:06:02.871Z""","1484","materials/imgs/D101.png","arrowright","","[""materials/imgs/D80.png"",""materials/imgs/D51.png""]","false","random","","",""
"","","","","","html-keyboard-response","120","1738054","0.0-13.0-0.4-0.32","ot2odwhhnq","","ot2odwhhnq","""2024-11-12T18:06:02.871Z""","null","+","null","","","","","","",""
"","","","","","image-keyboard-response","121","1739302","0.0-13.0-0.4-1.32","ot2odwhhnq","","ot2odwhhnq","""2024-11-12T18:06:02.871Z""","1245","materials/imgs/D57.png","arrowright","","[""materials/imgs/D66.png"",""materials/imgs/D81.png""]","false","random","","",""
"","","","","","html-keyboard-response","122","1739805","0.0-13.0-0.4-0.33","ot2odwhhnq","","ot2odwhhnq","""2024-11-12T18:06:02.871Z""","null","+","null","","","","","","",""
"","","","","","image-keyboard-response","123","1745331","0.0-13.0-0.4-1.33","ot2odwhhnq","","ot2odwhhnq","""2024-11-12T18:06:02.871Z""","5522","materials/imgs/D82.png","arrowleft","","[""materials/imgs/D32.png"",""materials/imgs/D9.png""]","false","random","","",""
"","","","","","html-keyboard-response","124","1745835","0.0-13.0-0.4-0.34","ot2odwhhnq","","ot2odwhhnq","""2024-11-12T18:06:02.871Z""","null","+","null","","","","","","",""
"","","","","","image-keyboard-response","125","1746794","0.0-13.0-0.4-1.34","ot2odwhhnq","","ot2odwhhnq","""2024-11-12T18:06:02.871Z""","956","materials/imgs/D80.png","arrowright","","[""materials/imgs/D95.png"",""materials/imgs/D55.png""]","false","random","","",""
"","","","","","html-keyboard-response","126","1747296","0.0-13.0-1.4-0.4","ot2odwhhnq","","ot2odwhhnq","""2024-11-12T18:06:02.871Z""","null","+","null","","","","","","",""
"","","","","","image-keyboard-response","127","1747990","0.0-13.0-1.4-1.4","ot2odwhhnq","","ot2odwhhnq","""2024-11-12T18:06:02.871Z""","692","materials/imgs/D101.png","arrowright","","[""materials/imgs/D106.png"",""materials/imgs/D101.png""]","","check","materials/imgs/D101.png","1","true"
"","","","","","html-keyboard-response","128","1748496","0.0-13.0-2.4-0.8","ot2odwhhnq","","ot2odwhhnq","""2024-11-12T18:06:02.871Z""","null","+","null","","","","","","",""
"","","","","","image-keyboard-response","129","1750011","0.0-13.0-2.4-1.8","ot2odwhhnq","","ot2odwhhnq","""2024-11-12T18:06:02.871Z""","1513","materials/imgs/D102.png","arrowright","","[""materials/imgs/D32.png"",""materials/imgs/D111.png""]","false","validation","","",""
"","","","","","html-keyboard-response","130","1750516","0.0-13.0-2.4-0.9","ot2odwhhnq","","ot2odwhhnq","""2024-11-12T18:06:02.871Z""","null","+","null","","","","","","",""
"","","","","","image-keyboard-response","131","1751305","0.0-13.0-2.4-1.9","ot2odwhhnq","","ot2odwhhnq","""2024-11-12T18:06:02.871Z""","786","materials/imgs/D8.png","arrowleft","","[""materials/imgs/D101.png"",""materials/imgs/D52.png""]","false","validation","","",""
"","","","","","html-button-response","132","1753226","0.0-14.0","ot2odwhhnq","","ot2odwhhnq","""2024-11-12T18:06:02.871Z""","1919","You have completed 25% of the trials. Please click 'Continue' when you are ready proceed.","0","","","","","","",""
"","","","","","html-keyboard-response","133","1753728","0.0-15.0-0.0-0.0","ot2odwhhnq","","ot2odwhhnq","""2024-11-12T18:06:02.871Z""","null","+","null","","","","","","",""
"","","","","","image-keyboard-response","134","1754672","0.0-15.0-0.0-1.0","ot2odwhhnq","","ot2odwhhnq","""2024-11-12T18:06:02.871Z""","940","materials/imgs/D106.png","arrowright","","[""materials/imgs/D64.png"",""materials/imgs/D68.png""]","false","random","","",""
"","","","","","html-keyboard-response","135","1755174","0.0-15.0-0.0-0.1","ot2odwhhnq","","ot2odwhhnq","""2024-11-12T18:06:02.871Z""","null","+","null","","","","","","",""
"","","","","","image-keyboard-response","136","1756753","0.0-15.0-0.0-1.1","ot2odwhhnq","","ot2odwhhnq","""2024-11-12T18:06:02.871Z""","1576","materials/imgs/D96.png","arrowright","","[""materials/imgs/D9.png"",""materials/imgs/D11.png""]","false","random","","",""
"","","","","","html-keyboard-response","137","1757256","0.0-15.0-0.0-0.2","ot2odwhhnq","","ot2odwhhnq","""2024-11-12T18:06:02.871Z""","null","+","null","","","","","","",""
"","","","","","image-keyboard-response","138","1757976","0.0-15.0-0.0-1.2","ot2odwhhnq","","ot2odwhhnq","""2024-11-12T18:06:02.871Z""","716","materials/imgs/D96.png","arrowleft","","[""materials/imgs/D19.png"",""materials/imgs/D20.png""]","false","random","","",""
"","","","","","html-keyboard-response","139","1758479","0.0-15.0-0.0-0.3","ot2odwhhnq","","ot2odwhhnq","""2024-11-12T18:06:02.871Z""","null","+","null","","","","","","",""
"","","","","","image-keyboard-response","140","1759215","0.0-15.0-0.0-1.3","ot2odwhhnq","","ot2odwhhnq","""2024-11-12T18:06:02.871Z""","732","materials/imgs/D64.png","arrowleft","","[""materials/imgs/D1.png"",""materials/imgs/D106.png""]","false","random","","",""
"","","","","","html-keyboard-response","141","1759717","0.0-15.0-0.0-0.4","ot2odwhhnq","","ot2odwhhnq","""2024-11-12T18:06:02.871Z""","null","+","null","","","","","","",""
"","","","","","image-keyboard-response","142","1761121","0.0-15.0-0.0-1.4","ot2odwhhnq","","ot2odwhhnq","""2024-11-12T18:06:02.871Z""","1400","materials/imgs/D20.png","arrowleft","","[""materials/imgs/D66.png"",""materials/imgs/D21.png""]","false","random","","",""
"","","","","","html-keyboard-response","143","1761622","0.0-15.0-0.0-0.5","ot2odwhhnq","","ot2odwhhnq","""2024-11-12T18:06:02.871Z""","null","+","null","","","","","","",""
"","","","","","image-keyboard-response","144","1762872","0.0-15.0-0.0-1.5","ot2odwhhnq","","ot2odwhhnq","""2024-11-12T18:06:02.871Z""","1247","materials/imgs/D53.png","arrowleft","","[""materials/imgs/D105.png"",""materials/imgs/D95.png""]","false","random","","",""
"","","","","","html-keyboard-response","145","1763376","0.0-15.0-0.0-0.6","ot2odwhhnq","","ot2odwhhnq","""2024-11-12T18:06:02.871Z""","null","+","null","","","","","","",""
"","","","","","image-keyboard-response","146","1764125","0.0-15.0-0.0-1.6","ot2odwhhnq","","ot2odwhhnq","""2024-11-12T18:06:02.871Z""","746","materials/imgs/D85.png","arrowleft","","[""materials/imgs/D22.png"",""materials/imgs/D26.png""]","false","random","","",""
"","","","","","html-keyboard-response","147","1764629","0.0-15.0-1.0-0.0","ot2odwhhnq","","ot2odwhhnq","""2024-11-12T18:06:02.871Z""","null","+","null","","","","","","",""
"","","","","","image-keyboard-response","148","1765255","0.0-15.0-1.0-1.0","ot2odwhhnq","","ot2odwhhnq","""2024-11-12T18:06:02.871Z""","624","materials/imgs/D101.png","arrowright","","[""materials/imgs/D106.png"",""materials/imgs/D101.png""]","","check","materials/imgs/D101.png","1","true"
"","","","","","html-keyboard-response","149","1765758","0.0-15.0-2.0-0.0","ot2odwhhnq","","ot2odwhhnq","""2024-11-12T18:06:02.871Z""","null","+","null","","","","","","",""
"","","","","","image-keyboard-response","150","1767223","0.0-15.0-2.0-1.0","ot2odwhhnq","","ot2odwhhnq","""2024-11-12T18:06:02.871Z""","1464","materials/imgs/D4.png","arrowleft","","[""materials/imgs/D52.png"",""materials/imgs/D83.png""]","false","validation","","",""
"","","","","","html-keyboard-response","151","1767728","0.0-15.0-2.0-0.1","ot2odwhhnq","","ot2odwhhnq","""2024-11-12T18:06:02.871Z""","null","+","null","","","","","","",""
"","","","","","image-keyboard-response","152","1768496","0.0-15.0-2.0-1.1","ot2odwhhnq","","ot2odwhhnq","""2024-11-12T18:06:02.871Z""","766","materials/imgs/D82.png","arrowright","","[""materials/imgs/D83.png"",""materials/imgs/D22.png""]","false","validation","","",""
"","","","","","html-keyboard-response","153","1769001","0.0-15.0-0.1-0.7","ot2odwhhnq","","ot2odwhhnq","""2024-11-12T18:06:02.871Z""","null","+","null","","","","","","",""
"","","","","","image-keyboard-response","154","1769695","0.0-15.0-0.1-1.7","ot2odwhhnq","","ot2odwhhnq","""2024-11-12T18:06:02.871Z""","691","materials/imgs/D17.png","arrowleft","","[""materials/imgs/D36.png"",""materials/imgs/D84.png""]","false","random","","",""
"","","","","","html-keyboard-response","155","1770199","0.0-15.0-0.1-0.8","ot2odwhhnq","","ot2odwhhnq","""2024-11-12T18:06:02.871Z""","null","+","null","","","","","","",""
"","","","","","image-keyboard-response","156","1771662","0.0-15.0-0.1-1.8","ot2odwhhnq","","ot2odwhhnq","""2024-11-12T18:06:02.871Z""","1459","materials/imgs/D21.png","arrowright","","[""materials/imgs/D74.png"",""materials/imgs/D103.png""]","false","random","","",""
"","","","","","html-keyboard-response","157","1772163","0.0-15.0-0.1-0.9","ot2odwhhnq","","ot2odwhhnq","""2024-11-12T18:06:02.871Z""","null","+","null","","","","","","",""
"","","","","","image-keyboard-response","158","1773633","0.0-15.0-0.1-1.9","ot2odwhhnq","","ot2odwhhnq","""2024-11-12T18:06:02.871Z""","1468","materials/imgs/D37.png","arrowleft","","[""materials/imgs/D87.png"",""materials/imgs/D106.png""]","false","random","","",""
"","","","","","html-keyboard-response","159","1774139","0.0-15.0-0.1-0.10","ot2odwhhnq","","ot2odwhhnq","""2024-11-12T18:06:02.871Z""","null","+","null","","","","","","",""
"","","","","","image-keyboard-response","160","1775080","0.0-15.0-0.1-1.10","ot2odwhhnq","","ot2odwhhnq","""2024-11-12T18:06:02.871Z""","938","materials/imgs/D66.png","arrowleft","","[""materials/imgs/D74.png"",""materials/imgs/D78.png""]","false","random","","",""
"","","","","","html-keyboard-response","161","1775584","0.0-15.0-0.1-0.11","ot2odwhhnq","","ot2odwhhnq","""2024-11-12T18:06:02.871Z""","null","+","null","","","","","","",""
"","","","","","image-keyboard-response","162","1776861","0.0-15.0-0.1-1.11","ot2odwhhnq","","ot2odwhhnq","""2024-11-12T18:06:02.871Z""","1273","materials/imgs/D64.png","arrowleft","","[""materials/imgs/D104.png"",""materials/imgs/D79.png""]","false","random","","",""
"","","","","","html-keyboard-response","163","1777365","0.0-15.0-0.1-0.12","ot2odwhhnq","","ot2odwhhnq","""2024-11-12T18:06:02.871Z""","null","+","null","","","","","","",""
"","","","","","image-keyboard-response","164","1778314","0.0-15.0-0.1-1.12","ot2odwhhnq","","ot2odwhhnq","""2024-11-12T18:06:02.871Z""","945","materials/imgs/D77.png","arrowright","","[""materials/imgs/D101.png"",""materials/imgs/D82.png""]","false","random","","",""
"","","","","","html-keyboard-response","165","1778819","0.0-15.0-0.1-0.13","ot2odwhhnq","","ot2odwhhnq","""2024-11-12T18:06:02.871Z""","null","+","null","","","","","","",""
"","","","","","image-keyboard-response","166","1780083","0.0-15.0-0.1-1.13","ot2odwhhnq","","ot2odwhhnq","""2024-11-12T18:06:02.871Z""","1260","materials/imgs/D36.png","arrowleft","","[""materials/imgs/D64.png"",""materials/imgs/D75.png""]","false","random","","",""
"","","","","","html-keyboard-response","167","1780588","0.0-15.0-1.1-0.1","ot2odwhhnq","","ot2odwhhnq","""2024-11-12T18:06:02.871Z""","null","+","null","","","","","","",""
"","","","","","image-keyboard-response","168","1781209","0.0-15.0-1.1-1.1","ot2odwhhnq","","ot2odwhhnq","""2024-11-12T18:06:02.871Z""","618","materials/imgs/D106.png","arrowleft","","[""materials/imgs/D106.png"",""materials/imgs/D101.png""]","","check","materials/imgs/D106.png","0","true"
"","","","","","html-keyboard-response","169","1781711","0.0-15.0-2.1-0.2","ot2odwhhnq","","ot2odwhhnq","""2024-11-12T18:06:02.871Z""","null","+","null","","","","","","",""
"","","","","","image-keyboard-response","170","1784396","0.0-15.0-2.1-1.2","ot2odwhhnq","","ot2odwhhnq","""2024-11-12T18:06:02.871Z""","2683","materials/imgs/D3.png","arrowleft","","[""materials/imgs/D79.png"",""materials/imgs/D48.png""]","false","validation","","",""
"","","","","","html-keyboard-response","171","1784901","0.0-15.0-2.1-0.3","ot2odwhhnq","","ot2odwhhnq","""2024-11-12T18:06:02.871Z""","null","+","null","","","","","","",""
"","","","","","image-keyboard-response","172","1787582","0.0-15.0-2.1-1.3","ot2odwhhnq","","ot2odwhhnq","""2024-11-12T18:06:02.871Z""","2678","materials/imgs/D106.png","arrowright","","[""materials/imgs/D57.png"",""materials/imgs/D18.png""]","false","validation","","",""
"","","","","","html-keyboard-response","173","1788086","0.0-15.0-0.2-0.14","ot2odwhhnq","","ot2odwhhnq","""2024-11-12T18:06:02.871Z""","null","+","null","","","","","","",""
"","","","","","image-keyboard-response","174","1788867","0.0-15.0-0.2-1.14","ot2odwhhnq","","ot2odwhhnq","""2024-11-12T18:06:02.871Z""","778","materials/imgs/D4.png","arrowleft","","[""materials/imgs/D9.png"",""materials/imgs/D101.png""]","false","random","","",""
"","","","","","html-keyboard-response","175","1789372","0.0-15.0-0.2-0.15","ot2odwhhnq","","ot2odwhhnq","""2024-11-12T18:06:02.871Z""","null","+","null","","","","","","",""
"","","","","","image-keyboard-response","176","1790252","0.0-15.0-0.2-1.15","ot2odwhhnq","","ot2odwhhnq","""2024-11-12T18:06:02.871Z""","877","materials/imgs/D8.png","arrowleft","","[""materials/imgs/D34.png"",""materials/imgs/D49.png""]","false","random","","",""
"","","","","","html-keyboard-response","177","1790758","0.0-15.0-0.2-0.16","ot2odwhhnq","","ot2odwhhnq","""2024-11-12T18:06:02.871Z""","null","+","null","","","","","","",""
"","","","","","image-keyboard-response","178","1792100","0.0-15.0-0.2-1.16","ot2odwhhnq","","ot2odwhhnq","""2024-11-12T18:06:02.871Z""","1339","materials/imgs/D95.png","arrowright","","[""materials/imgs/D35.png"",""materials/imgs/D8.png""]","false","random","","",""
"","","","","","html-keyboard-response","179","1792605","0.0-15.0-0.2-0.17","ot2odwhhnq","","ot2odwhhnq","""2024-11-12T18:06:02.871Z""","null","+","null","","","","","","",""
"","","","","","image-keyboard-response","180","1793944","0.0-15.0-0.2-1.17","ot2odwhhnq","","ot2odwhhnq","""2024-11-12T18:06:02.871Z""","1335","materials/imgs/D17.png","arrowright","","[""materials/imgs/D95.png"",""materials/imgs/D20.png""]","false","random","","",""
"","","","","","html-keyboard-response","181","1794445","0.0-15.0-0.2-0.18","ot2odwhhnq","","ot2odwhhnq","""2024-11-12T18:06:02.871Z""","null","+","null","","","","","","",""
"","","","","","image-keyboard-response","182","1797456","0.0-15.0-0.2-1.18","ot2odwhhnq","","ot2odwhhnq","""2024-11-12T18:06:02.871Z""","3007","materials/imgs/D48.png","arrowleft","","[""materials/imgs/D74.png"",""materials/imgs/D95.png""]","false","random","","",""
"","","","","","html-keyboard-response","183","1797958","0.0-15.0-0.2-0.19","ot2odwhhnq","","ot2odwhhnq","""2024-11-12T18:06:02.871Z""","null","+","null","","","","","","",""
"","","","","","image-keyboard-response","184","1801707","0.0-15.0-0.2-1.19","ot2odwhhnq","","ot2odwhhnq","""2024-11-12T18:06:02.871Z""","3745","materials/imgs/D85.png","arrowleft","","[""materials/imgs/D22.png"",""materials/imgs/D29.png""]","false","random","","",""
"","","","","","html-keyboard-response","185","1802210","0.0-15.0-0.2-0.20","ot2odwhhnq","","ot2odwhhnq","""2024-11-12T18:06:02.871Z""","null","+","null","","","","","","",""
"","","","","","image-keyboard-response","186","1807241","0.0-15.0-0.2-1.20","ot2odwhhnq","","ot2odwhhnq","""2024-11-12T18:06:02.871Z""","5028","materials/imgs/D18.png","arrowright","","[""materials/imgs/D53.png"",""materials/imgs/D51.png""]","false","random","","",""
"","","","","","html-keyboard-response","187","1807746","0.0-15.0-1.2-0.2","ot2odwhhnq","","ot2odwhhnq","""2024-11-12T18:06:02.871Z""","null","+","null","","","","","","",""
"","","","","","image-keyboard-response","188","1808485","0.0-15.0-1.2-1.2","ot2odwhhnq","","ot2odwhhnq","""2024-11-12T18:06:02.871Z""","737","materials/imgs/D101.png","arrowright","","[""materials/imgs/D106.png"",""materials/imgs/D101.png""]","","check","materials/imgs/D101.png","1","true"
"","","","","","html-keyboard-response","189","1808991","0.0-15.0-2.2-0.4","ot2odwhhnq","","ot2odwhhnq","""2024-11-12T18:06:02.871Z""","null","+","null","","","","","","",""
"","","","","","image-keyboard-response","190","1809993","0.0-15.0-2.2-1.4","ot2odwhhnq","","ot2odwhhnq","""2024-11-12T18:06:02.871Z""","999","materials/imgs/D16.png","arrowleft","","[""materials/imgs/D52.png"",""materials/imgs/D25.png""]","false","validation","","",""
"","","","","","html-keyboard-response","191","1810498","0.0-15.0-2.2-0.5","ot2odwhhnq","","ot2odwhhnq","""2024-11-12T18:06:02.871Z""","null","+","null","","","","","","",""
"","","","","","image-keyboard-response","192","1811640","0.0-15.0-2.2-1.5","ot2odwhhnq","","ot2odwhhnq","""2024-11-12T18:06:02.871Z""","1140","materials/imgs/D102.png","arrowright","","[""materials/imgs/D32.png"",""materials/imgs/D111.png""]","false","validation","","",""
"","","","","","html-keyboard-response","193","1812144","0.0-15.0-0.3-0.21","ot2odwhhnq","","ot2odwhhnq","""2024-11-12T18:06:02.871Z""","null","+","null","","","","","","",""
"","","","","","image-keyboard-response","194","1813448","0.0-15.0-0.3-1.21","ot2odwhhnq","","ot2odwhhnq","""2024-11-12T18:06:02.871Z""","1300","materials/imgs/D25.png","arrowleft","","[""materials/imgs/D24.png"",""materials/imgs/D77.png""]","false","random","","",""
"","","","","","html-keyboard-response","195","1813952","0.0-15.0-0.3-0.22","ot2odwhhnq","","ot2odwhhnq","""2024-11-12T18:06:02.871Z""","null","+","null","","","","","","",""
"","","","","","image-keyboard-response","196","1815583","0.0-15.0-0.3-1.22","ot2odwhhnq","","ot2odwhhnq","""2024-11-12T18:06:02.871Z""","1627","materials/imgs/D53.png","arrowleft","","[""materials/imgs/D92.png"",""materials/imgs/D95.png""]","false","random","","",""
"","","","","","html-keyboard-response","197","1816085","0.0-15.0-0.3-0.23","ot2odwhhnq","","ot2odwhhnq","""2024-11-12T18:06:02.871Z""","null","+","null","","","","","","",""
"","","","","","image-keyboard-response","198","1817750","0.0-15.0-0.3-1.23","ot2odwhhnq","","ot2odwhhnq","""2024-11-12T18:06:02.871Z""","1662","materials/imgs/D48.png","arrowright","","[""materials/imgs/D35.png"",""materials/imgs/D55.png""]","false","random","","",""
"","","","","","html-keyboard-response","199","1818254","0.0-15.0-0.3-0.24","ot2odwhhnq","","ot2odwhhnq","""2024-11-12T18:06:02.871Z""","null","+","null","","","","","","",""
"","","","","","image-keyboard-response","200","1819388","0.0-15.0-0.3-1.24","ot2odwhhnq","","ot2odwhhnq","""2024-11-12T18:06:02.871Z""","1123","materials/imgs/D111.png","arrowleft","","[""materials/imgs/D8.png"",""materials/imgs/D16.png""]","false","random","","",""
"","","","","","html-keyboard-response","201","1819891","0.0-15.0-0.3-0.25","ot2odwhhnq","","ot2odwhhnq","""2024-11-12T18:06:02.871Z""","null","+","null","","","","","","",""
"","","","","","image-keyboard-response","202","1820492","0.0-15.0-0.3-1.25","ot2odwhhnq","","ot2odwhhnq","""2024-11-12T18:06:02.871Z""","598","materials/imgs/D36.png","arrowleft","","[""materials/imgs/D3.png"",""materials/imgs/D94.png""]","false","random","","",""
"","","","","","html-keyboard-response","203","1820996","0.0-15.0-0.3-0.26","ot2odwhhnq","","ot2odwhhnq","""2024-11-12T18:06:02.871Z""","null","+","null","","","","","","",""
"","","","","","image-keyboard-response","204","1823327","0.0-15.0-0.3-1.26","ot2odwhhnq","","ot2odwhhnq","""2024-11-12T18:06:02.871Z""","2327","materials/imgs/D48.png","arrowright","","[""materials/imgs/D21.png"",""materials/imgs/D1.png""]","false","random","","",""
"","","","","","html-keyboard-response","205","1823832","0.0-15.0-0.3-0.27","ot2odwhhnq","","ot2odwhhnq","""2024-11-12T18:06:02.871Z""","null","+","null","","","","","","",""
"","","","","","image-keyboard-response","206","1825645","0.0-15.0-0.3-1.27","ot2odwhhnq","","ot2odwhhnq","""2024-11-12T18:06:02.871Z""","1810","materials/imgs/D26.png","arrowleft","","[""materials/imgs/D104.png"",""materials/imgs/D78.png""]","false","random","","",""
"","","","","","html-keyboard-response","207","1826150","0.0-15.0-1.3-0.3","ot2odwhhnq","","ot2odwhhnq","""2024-11-12T18:06:02.871Z""","null","+","null","","","","","","",""
"","","","","","image-keyboard-response","208","1826813","0.0-15.0-1.3-1.3","ot2odwhhnq","","ot2odwhhnq","""2024-11-12T18:06:02.871Z""","660","materials/imgs/D101.png","arrowright","","[""materials/imgs/D106.png"",""materials/imgs/D101.png""]","","check","materials/imgs/D101.png","1","true"
"","","","","","html-keyboard-response","209","1827318","0.0-15.0-2.3-0.6","ot2odwhhnq","","ot2odwhhnq","""2024-11-12T18:06:02.871Z""","null","+","null","","","","","","",""
"","","","","","image-keyboard-response","210","1828754","0.0-15.0-2.3-1.6","ot2odwhhnq","","ot2odwhhnq","""2024-11-12T18:06:02.871Z""","1435","materials/imgs/D85.png","arrowleft","","[""materials/imgs/D6.png"",""materials/imgs/D111.png""]","false","validation","","",""
"","","","","","html-keyboard-response","211","1829258","0.0-15.0-2.3-0.7","ot2odwhhnq","","ot2odwhhnq","""2024-11-12T18:06:02.871Z""","null","+","null","","","","","","",""
"","","","","","image-keyboard-response","212","1830116","0.0-15.0-2.3-1.7","ot2odwhhnq","","ot2odwhhnq","""2024-11-12T18:06:02.871Z""","856","materials/imgs/D9.png","arrowright","","[""materials/imgs/D103.png"",""materials/imgs/D4.png""]","false","validation","","",""
"","","","","","html-keyboard-response","213","1830620","0.0-15.0-0.4-0.28","ot2odwhhnq","","ot2odwhhnq","""2024-11-12T18:06:02.871Z""","null","+","null","","","","","","",""
"","","","","","image-keyboard-response","214","1831832","0.0-15.0-0.4-1.28","ot2odwhhnq","","ot2odwhhnq","""2024-11-12T18:06:02.871Z""","1208","materials/imgs/D21.png","arrowright","","[""materials/imgs/D1.png"",""materials/imgs/D17.png""]","false","random","","",""
"","","","","","html-keyboard-response","215","1832335","0.0-15.0-0.4-0.29","ot2odwhhnq","","ot2odwhhnq","""2024-11-12T18:06:02.871Z""","null","+","null","","","","","","",""
"","","","","","image-keyboard-response","216","1834136","0.0-15.0-0.4-1.29","ot2odwhhnq","","ot2odwhhnq","""2024-11-12T18:06:02.871Z""","1799","materials/imgs/D19.png","arrowleft","","[""materials/imgs/D24.png"",""materials/imgs/D16.png""]","false","random","","",""
"","","","","","html-keyboard-response","217","1834641","0.0-15.0-0.4-0.30","ot2odwhhnq","","ot2odwhhnq","""2024-11-12T18:06:02.871Z""","null","+","null","","","","","","",""
"","","","","","image-keyboard-response","218","1836701","0.0-15.0-0.4-1.30","ot2odwhhnq","","ot2odwhhnq","""2024-11-12T18:06:02.871Z""","2058","materials/imgs/D11.png","arrowleft","","[""materials/imgs/D82.png"",""materials/imgs/D6.png""]","false","random","","",""
"","","","","","html-keyboard-response","219","1837206","0.0-15.0-0.4-0.31","ot2odwhhnq","","ot2odwhhnq","""2024-11-12T18:06:02.871Z""","null","+","null","","","","","","",""
"","","","","","image-keyboard-response","220","1838479","0.0-15.0-0.4-1.31","ot2odwhhnq","","ot2odwhhnq","""2024-11-12T18:06:02.871Z""","1269","materials/imgs/D52.png","arrowright","","[""materials/imgs/D19.png"",""materials/imgs/D101.png""]","false","random","","",""
"","","","","","html-keyboard-response","221","1838984","0.0-15.0-0.4-0.32","ot2odwhhnq","","ot2odwhhnq","""2024-11-12T18:06:02.871Z""","null","+","null","","","","","","",""
"","","","","","image-keyboard-response","222","1839916","0.0-15.0-0.4-1.32","ot2odwhhnq","","ot2odwhhnq","""2024-11-12T18:06:02.871Z""","929","materials/imgs/D52.png","arrowright","","[""materials/imgs/D25.png"",""materials/imgs/D46.png""]","false","random","","",""
"","","","","","html-keyboard-response","223","1840422","0.0-15.0-0.4-0.33","ot2odwhhnq","","ot2odwhhnq","""2024-11-12T18:06:02.871Z""","null","+","null","","","","","","",""
"","","","","","image-keyboard-response","224","1841842","0.0-15.0-0.4-1.33","ot2odwhhnq","","ot2odwhhnq","""2024-11-12T18:06:02.871Z""","1417","materials/imgs/D81.png","arrowright","","[""materials/imgs/D11.png"",""materials/imgs/D111.png""]","false","random","","",""
"","","","","","html-keyboard-response","225","1842347","0.0-15.0-0.4-0.34","ot2odwhhnq","","ot2odwhhnq","""2024-11-12T18:06:02.871Z""","null","+","null","","","","","","",""
"","","","","","image-keyboard-response","226","1843019","0.0-15.0-0.4-1.34","ot2odwhhnq","","ot2odwhhnq","""2024-11-12T18:06:02.871Z""","670","materials/imgs/D80.png","arrowleft","","[""materials/imgs/D81.png"",""materials/imgs/D55.png""]","false","random","","",""
"","","","","","html-keyboard-response","227","1843525","0.0-15.0-1.4-0.4","ot2odwhhnq","","ot2odwhhnq","""2024-11-12T18:06:02.871Z""","null","+","null","","","","","","",""
"","","","","","image-keyboard-response","228","1844058","0.0-15.0-1.4-1.4","ot2odwhhnq","","ot2odwhhnq","""2024-11-12T18:06:02.871Z""","530","materials/imgs/D46.png","arrowleft","","[""materials/imgs/D46.png"",""materials/imgs/D26.png""]","","check","materials/imgs/D46.png","0","true"
"","","","","","html-keyboard-response","229","1844560","0.0-15.0-2.4-0.8","ot2odwhhnq","","ot2odwhhnq","""2024-11-12T18:06:02.871Z""","null","+","null","","","","","","",""
"","","","","","image-keyboard-response","230","1846058","0.0-15.0-2.4-1.8","ot2odwhhnq","","ot2odwhhnq","""2024-11-12T18:06:02.871Z""","1495","materials/imgs/D11.png","arrowleft","","[""materials/imgs/D83.png"",""materials/imgs/D48.png""]","false","validation","","",""
"","","","","","html-keyboard-response","231","1846560","0.0-15.0-2.4-0.9","ot2odwhhnq","","ot2odwhhnq","""2024-11-12T18:06:02.871Z""","null","+","null","","","","","","",""
"","","","","","image-keyboard-response","232","1849684","0.0-15.0-2.4-1.9","ot2odwhhnq","","ot2odwhhnq","""2024-11-12T18:06:02.871Z""","3121","materials/imgs/D51.png","arrowright","","[""materials/imgs/D92.png"",""materials/imgs/D20.png""]","false","validation","","",""
"","","","","","html-button-response","233","1850825","0.0-16.0","ot2odwhhnq","","ot2odwhhnq","""2024-11-12T18:06:02.871Z""","1140","You have completed 50% of the trials. Please click 'Continue' when you are ready proceed.","0","","","","","","",""
"","","","","","html-keyboard-response","234","1851326","0.0-17.0-0.0-0.0","ot2odwhhnq","","ot2odwhhnq","""2024-11-12T18:06:02.871Z""","null","+","null","","","","","","",""
"","","","","","image-keyboard-response","235","1852238","0.0-17.0-0.0-1.0","ot2odwhhnq","","ot2odwhhnq","""2024-11-12T18:06:02.871Z""","909","materials/imgs/D84.png","arrowleft","","[""materials/imgs/D20.png"",""materials/imgs/D96.png""]","false","random","","",""
"","","","","","html-keyboard-response","236","1852742","0.0-17.0-0.0-0.1","ot2odwhhnq","","ot2odwhhnq","""2024-11-12T18:06:02.871Z""","null","+","null","","","","","","",""
"","","","","","image-keyboard-response","237","1853827","0.0-17.0-0.0-1.1","ot2odwhhnq","","ot2odwhhnq","""2024-11-12T18:06:02.871Z""","1082","materials/imgs/D106.png","arrowleft","","[""materials/imgs/D37.png"",""materials/imgs/D9.png""]","false","random","","",""
"","","","","","html-keyboard-response","238","1854329","0.0-17.0-0.0-0.2","ot2odwhhnq","","ot2odwhhnq","""2024-11-12T18:06:02.871Z""","null","+","null","","","","","","",""
"","","","","","image-keyboard-response","239","1855575","0.0-17.0-0.0-1.2","ot2odwhhnq","","ot2odwhhnq","""2024-11-12T18:06:02.871Z""","1244","materials/imgs/D80.png","arrowleft","","[""materials/imgs/D52.png"",""materials/imgs/D53.png""]","false","random","","",""
"","","","","","html-keyboard-response","240","1856081","0.0-17.0-0.0-0.3","ot2odwhhnq","","ot2odwhhnq","""2024-11-12T18:06:02.871Z""","null","+","null","","","","","","",""
"","","","","","image-keyboard-response","241","1857255","0.0-17.0-0.0-1.3","ot2odwhhnq","","ot2odwhhnq","""2024-11-12T18:06:02.871Z""","1170","materials/imgs/D19.png","arrowright","","[""materials/imgs/D48.png"",""materials/imgs/D106.png""]","false","random","","",""
"","","","","","html-keyboard-response","242","1857758","0.0-17.0-0.0-0.4","ot2odwhhnq","","ot2odwhhnq","""2024-11-12T18:06:02.871Z""","null","+","null","","","","","","",""
"","","","","","image-keyboard-response","243","1858717","0.0-17.0-0.0-1.4","ot2odwhhnq","","ot2odwhhnq","""2024-11-12T18:06:02.871Z""","957","materials/imgs/D6.png","arrowleft","","[""materials/imgs/D11.png"",""materials/imgs/D29.png""]","false","random","","",""
"","","","","","html-keyboard-response","244","1859220","0.0-17.0-0.0-0.5","ot2odwhhnq","","ot2odwhhnq","""2024-11-12T18:06:02.871Z""","null","+","null","","","","","","",""
"","","","","","image-keyboard-response","245","1859806","0.0-17.0-0.0-1.5","ot2odwhhnq","","ot2odwhhnq","""2024-11-12T18:06:02.871Z""","584","materials/imgs/D77.png","arrowright","","[""materials/imgs/D48.png"",""materials/imgs/D16.png""]","false","random","","",""
"","","","","","html-keyboard-response","246","1860312","0.0-17.0-0.0-0.6","ot2odwhhnq","","ot2odwhhnq","""2024-11-12T18:06:02.871Z""","null","+","null","","","","","","",""
"","","","","","image-keyboard-response","247","1861673","0.0-17.0-0.0-1.6","ot2odwhhnq","","ot2odwhhnq","""2024-11-12T18:06:02.871Z""","1357","materials/imgs/D111.png","arrowright","","[""materials/imgs/D3.png"",""materials/imgs/D65.png""]","false","random","","",""
"","","","","","html-keyboard-response","248","1862177","0.0-17.0-1.0-0.0","ot2odwhhnq","","ot2odwhhnq","""2024-11-12T18:06:02.871Z""","null","+","null","","","","","","",""
"","","","","","image-keyboard-response","249","1862739","0.0-17.0-1.0-1.0","ot2odwhhnq","","ot2odwhhnq","""2024-11-12T18:06:02.871Z""","558","materials/imgs/D76.png","arrowleft","","[""materials/imgs/D76.png"",""materials/imgs/D78.png""]","","check","materials/imgs/D76.png","0","true"
"","","","","","html-keyboard-response","250","1863241","0.0-17.0-2.0-0.0","ot2odwhhnq","","ot2odwhhnq","""2024-11-12T18:06:02.871Z""","null","+","null","","","","","","",""
"","","","","","image-keyboard-response","251","1866004","0.0-17.0-2.0-1.0","ot2odwhhnq","","ot2odwhhnq","""2024-11-12T18:06:02.871Z""","2761","materials/imgs/D35.png","arrowleft","","[""materials/imgs/D83.png"",""materials/imgs/D24.png""]","false","validation","","",""
"","","","","","html-keyboard-response","252","1866505","0.0-17.0-2.0-0.1","ot2odwhhnq","","ot2odwhhnq","""2024-11-12T18:06:02.871Z""","null","+","null","","","","","","",""
"","","","","","image-keyboard-response","253","1868317","0.0-17.0-2.0-1.1","ot2odwhhnq","","ot2odwhhnq","""2024-11-12T18:06:02.871Z""","1811","materials/imgs/D95.png","arrowleft","","[""materials/imgs/D36.png"",""materials/imgs/D4.png""]","false","validation","","",""
"","","","","","html-keyboard-response","254","1868822","0.0-17.0-0.1-0.7","ot2odwhhnq","","ot2odwhhnq","""2024-11-12T18:06:02.871Z""","null","+","null","","","","","","",""
"","","","","","image-keyboard-response","255","1870927","0.0-17.0-0.1-1.7","ot2odwhhnq","","ot2odwhhnq","""2024-11-12T18:06:02.871Z""","2102","materials/imgs/D75.png","arrowright","","[""materials/imgs/D21.png"",""materials/imgs/D64.png""]","false","random","","",""
"","","","","","html-keyboard-response","256","1871432","0.0-17.0-0.1-0.8","ot2odwhhnq","","ot2odwhhnq","""2024-11-12T18:06:02.871Z""","null","+","null","","","","","","",""
"","","","","","image-keyboard-response","257","1873173","0.0-17.0-0.1-1.8","ot2odwhhnq","","ot2odwhhnq","""2024-11-12T18:06:02.871Z""","1737","materials/imgs/D55.png","arrowleft","","[""materials/imgs/D79.png"",""materials/imgs/D83.png""]","false","random","","",""
"","","","","","html-keyboard-response","258","1873678","0.0-17.0-0.1-0.9","ot2odwhhnq","","ot2odwhhnq","""2024-11-12T18:06:02.871Z""","null","+","null","","","","","","",""
"","","","","","image-keyboard-response","259","1877411","0.0-17.0-0.1-1.9","ot2odwhhnq","","ot2odwhhnq","""2024-11-12T18:06:02.871Z""","3729","materials/imgs/D103.png","arrowright","","[""materials/imgs/D79.png"",""materials/imgs/D68.png""]","false","random","","",""
"","","","","","html-keyboard-response","260","1877913","0.0-17.0-0.1-0.10","ot2odwhhnq","","ot2odwhhnq","""2024-11-12T18:06:02.871Z""","null","+","null","","","","","","",""
"","","","","","image-keyboard-response","261","1878577","0.0-17.0-0.1-1.10","ot2odwhhnq","","ot2odwhhnq","""2024-11-12T18:06:02.871Z""","661","materials/imgs/D53.png","arrowright","","[""materials/imgs/D66.png"",""materials/imgs/D85.png""]","false","random","","",""
"","","","","","html-keyboard-response","262","1879081","0.0-17.0-0.1-0.11","ot2odwhhnq","","ot2odwhhnq","""2024-11-12T18:06:02.871Z""","null","+","null","","","","","","",""
"","","","","","image-keyboard-response","263","1880285","0.0-17.0-0.1-1.11","ot2odwhhnq","","ot2odwhhnq","""2024-11-12T18:06:02.871Z""","1200","materials/imgs/D94.png","arrowleft","","[""materials/imgs/D55.png"",""materials/imgs/D32.png""]","false","random","","",""
"","","","","","html-keyboard-response","264","1880790","0.0-17.0-0.1-0.12","ot2odwhhnq","","ot2odwhhnq","""2024-11-12T18:06:02.871Z""","null","+","null","","","","","","",""
"","","","","","image-keyboard-response","265","1881798","0.0-17.0-0.1-1.12","ot2odwhhnq","","ot2odwhhnq","""2024-11-12T18:06:02.871Z""","1005","materials/imgs/D56.png","arrowright","","[""materials/imgs/D9.png"",""materials/imgs/D74.png""]","false","random","","",""
"","","","","","html-keyboard-response","266","1882304","0.0-17.0-0.1-0.13","ot2odwhhnq","","ot2odwhhnq","""2024-11-12T18:06:02.871Z""","null","+","null","","","","","","",""
"","","","","","image-keyboard-response","267","1883635","0.0-17.0-0.1-1.13","ot2odwhhnq","","ot2odwhhnq","""2024-11-12T18:06:02.871Z""","1328","materials/imgs/D53.png","arrowleft","","[""materials/imgs/D57.png"",""materials/imgs/D19.png""]","false","random","","",""
"","","","","","html-keyboard-response","268","1884139","0.0-17.0-1.1-0.1","ot2odwhhnq","","ot2odwhhnq","""2024-11-12T18:06:02.871Z""","null","+","null","","","","","","",""
"","","","","","image-keyboard-response","269","1884713","0.0-17.0-1.1-1.1","ot2odwhhnq","","ot2odwhhnq","""2024-11-12T18:06:02.871Z""","571","materials/imgs/D101.png","arrowright","","[""materials/imgs/D106.png"",""materials/imgs/D101.png""]","","check","materials/imgs/D101.png","1","true"
"","","","","","html-keyboard-response","270","1885216","0.0-17.0-2.1-0.2","ot2odwhhnq","","ot2odwhhnq","""2024-11-12T18:06:02.871Z""","null","+","null","","","","","","",""
"","","","","","image-keyboard-response","271","1886710","0.0-17.0-2.1-1.2","ot2odwhhnq","","ot2odwhhnq","""2024-11-12T18:06:02.871Z""","1491","materials/imgs/D25.png","arrowright","","[""materials/imgs/D103.png"",""materials/imgs/D64.png""]","false","validation","","",""
"","","","","","html-keyboard-response","272","1887213","0.0-17.0-2.1-0.3","ot2odwhhnq","","ot2odwhhnq","""2024-11-12T18:06:02.871Z""","null","+","null","","","","","","",""
"","","","","","image-keyboard-response","273","1889311","0.0-17.0-2.1-1.3","ot2odwhhnq","","ot2odwhhnq","""2024-11-12T18:06:02.871Z""","2096","materials/imgs/D83.png","arrowleft","","[""materials/imgs/D24.png"",""materials/imgs/D8.png""]","false","validation","","",""
"","","","","","html-keyboard-response","274","1889816","0.0-17.0-0.2-0.14","ot2odwhhnq","","ot2odwhhnq","""2024-11-12T18:06:02.871Z""","null","+","null","","","","","","",""
"","","","","","image-keyboard-response","275","1890728","0.0-17.0-0.2-1.14","ot2odwhhnq","","ot2odwhhnq","""2024-11-12T18:06:02.871Z""","909","materials/imgs/D79.png","arrowright","","[""materials/imgs/D32.png"",""materials/imgs/D6.png""]","false","random","","",""
"","","","","","html-keyboard-response","276","1891233","0.0-17.0-0.2-0.15","ot2odwhhnq","","ot2odwhhnq","""2024-11-12T18:06:02.871Z""","null","+","null","","","","","","",""
"","","","","","image-keyboard-response","277","1893255","0.0-17.0-0.2-1.15","ot2odwhhnq","","ot2odwhhnq","""2024-11-12T18:06:02.871Z""","2019","materials/imgs/D57.png","arrowleft","","[""materials/imgs/D104.png"",""materials/imgs/D64.png""]","false","random","","",""
"","","","","","html-keyboard-response","278","1893759","0.0-17.0-0.2-0.16","ot2odwhhnq","","ot2odwhhnq","""2024-11-12T18:06:02.871Z""","null","+","null","","","","","","",""
"","","","","","image-keyboard-response","279","1894756","0.0-17.0-0.2-1.16","ot2odwhhnq","","ot2odwhhnq","""2024-11-12T18:06:02.871Z""","994","materials/imgs/D22.png","arrowleft","","[""materials/imgs/D35.png"",""materials/imgs/D17.png""]","false","random","","",""
"","","","","","html-keyboard-response","280","1895259","0.0-17.0-0.2-0.17","ot2odwhhnq","","ot2odwhhnq","""2024-11-12T18:06:02.871Z""","null","+","null","","","","","","",""
"","","","","","image-keyboard-response","281","1897626","0.0-17.0-0.2-1.17","ot2odwhhnq","","ot2odwhhnq","""2024-11-12T18:06:02.871Z""","2364","materials/imgs/D37.png","arrowright","","[""materials/imgs/D80.png"",""materials/imgs/D85.png""]","false","random","","",""
"","","","","","html-keyboard-response","282","1898129","0.0-17.0-0.2-0.18","ot2odwhhnq","","ot2odwhhnq","""2024-11-12T18:06:02.871Z""","null","+","null","","","","","","",""
"","","","","","image-keyboard-response","283","1900103","0.0-17.0-0.2-1.18","ot2odwhhnq","","ot2odwhhnq","""2024-11-12T18:06:02.871Z""","1972","materials/imgs/D11.png","arrowleft","","[""materials/imgs/D104.png"",""materials/imgs/D16.png""]","false","random","","",""
"","","","","","html-keyboard-response","284","1900609","0.0-17.0-0.2-0.19","ot2odwhhnq","","ot2odwhhnq","""2024-11-12T18:06:02.871Z""","null","+","null","","","","","","",""
"","","","","","image-keyboard-response","285","1905155","0.0-17.0-0.2-1.19","ot2odwhhnq","","ot2odwhhnq","""2024-11-12T18:06:02.871Z""","4543","materials/imgs/D24.png","arrowleft","","[""materials/imgs/D34.png"",""materials/imgs/D35.png""]","false","random","","",""
"","","","","","html-keyboard-response","286","1905660","0.0-17.0-0.2-0.20","ot2odwhhnq","","ot2odwhhnq","""2024-11-12T18:06:02.871Z""","null","+","null","","","","","","",""
"","","","","","image-keyboard-response","287","1907318","0.0-17.0-0.2-1.20","ot2odwhhnq","","ot2odwhhnq","""2024-11-12T18:06:02.871Z""","1654","materials/imgs/D87.png","arrowright","","[""materials/imgs/D101.png"",""materials/imgs/D32.png""]","false","random","","",""
"","","","","","html-keyboard-response","288","1907820","0.0-17.0-1.2-0.2","ot2odwhhnq","","ot2odwhhnq","""2024-11-12T18:06:02.871Z""","null","+","null","","","","","","",""
"","","","","","image-keyboard-response","289","1908394","0.0-17.0-1.2-1.2","ot2odwhhnq","","ot2odwhhnq","""2024-11-12T18:06:02.871Z""","570","materials/imgs/D46.png","arrowleft","","[""materials/imgs/D46.png"",""materials/imgs/D26.png""]","","check","materials/imgs/D46.png","0","true"
"","","","","","html-keyboard-response","290","1908899","0.0-17.0-2.2-0.4","ot2odwhhnq","","ot2odwhhnq","""2024-11-12T18:06:02.871Z""","null","+","null","","","","","","",""
"","","","","","image-keyboard-response","291","1911307","0.0-17.0-2.2-1.4","ot2odwhhnq","","ot2odwhhnq","""2024-11-12T18:06:02.871Z""","2405","materials/imgs/D95.png","arrowright","","[""materials/imgs/D36.png"",""materials/imgs/D4.png""]","false","validation","","",""
"","","","","","html-keyboard-response","292","1911809","0.0-17.0-2.2-0.5","ot2odwhhnq","","ot2odwhhnq","""2024-11-12T18:06:02.871Z""","null","+","null","","","","","","",""
"","","","","","image-keyboard-response","293","1915406","0.0-17.0-2.2-1.5","ot2odwhhnq","","ot2odwhhnq","""2024-11-12T18:06:02.871Z""","3594","materials/imgs/D1.png","arrowright","","[""materials/imgs/D57.png"",""materials/imgs/D76.png""]","false","validation","","",""
"","","","","","html-keyboard-response","294","1915909","0.0-17.0-0.3-0.21","ot2odwhhnq","","ot2odwhhnq","""2024-11-12T18:06:02.871Z""","null","+","null","","","","","","",""
"","","","","","image-keyboard-response","295","1918250","0.0-17.0-0.3-1.21","ot2odwhhnq","","ot2odwhhnq","""2024-11-12T18:06:02.871Z""","2337","materials/imgs/D20.png","arrowleft","","[""materials/imgs/D56.png"",""materials/imgs/D68.png""]","false","random","","",""
"","","","","","html-keyboard-response","296","1918754","0.0-17.0-0.3-0.22","ot2odwhhnq","","ot2odwhhnq","""2024-11-12T18:06:02.871Z""","null","+","null","","","","","","",""
"","","","","","image-keyboard-response","297","1921136","0.0-17.0-0.3-1.22","ot2odwhhnq","","ot2odwhhnq","""2024-11-12T18:06:02.871Z""","2379","materials/imgs/D68.png","arrowleft","","[""materials/imgs/D80.png"",""materials/imgs/D55.png""]","false","random","","",""
"","","","","","html-keyboard-response","298","1921641","0.0-17.0-0.3-0.23","ot2odwhhnq","","ot2odwhhnq","""2024-11-12T18:06:02.871Z""","null","+","null","","","","","","",""
"","","","","","image-keyboard-response","299","1923005","0.0-17.0-0.3-1.23","ot2odwhhnq","","ot2odwhhnq","""2024-11-12T18:06:02.871Z""","1361","materials/imgs/D102.png","arrowright","","[""materials/imgs/D19.png"",""materials/imgs/D103.png""]","false","random","","",""
"","","","","","html-keyboard-response","300","1923508","0.0-17.0-0.3-0.24","ot2odwhhnq","","ot2odwhhnq","""2024-11-12T18:06:02.871Z""","null","+","null","","","","","","",""
"","","","","","image-keyboard-response","301","1924896","0.0-17.0-0.3-1.24","ot2odwhhnq","","ot2odwhhnq","""2024-11-12T18:06:02.871Z""","1385","materials/imgs/D64.png","arrowleft","","[""materials/imgs/D17.png"",""materials/imgs/D36.png""]","false","random","","",""
"","","","","","html-keyboard-response","302","1925399","0.0-17.0-0.3-0.25","ot2odwhhnq","","ot2odwhhnq","""2024-11-12T18:06:02.871Z""","null","+","null","","","","","","",""
"","","","","","image-keyboard-response","303","1925998","0.0-17.0-0.3-1.25","ot2odwhhnq","","ot2odwhhnq","""2024-11-12T18:06:02.871Z""","595","materials/imgs/D74.png","arrowright","","[""materials/imgs/D34.png"",""materials/imgs/D18.png""]","false","random","","",""
"","","","","","html-keyboard-response","304","1926502","0.0-17.0-0.3-0.26","ot2odwhhnq","","ot2odwhhnq","""2024-11-12T18:06:02.871Z""","null","+","null","","","","","","",""
"","","","","","image-keyboard-response","305","1927180","0.0-17.0-0.3-1.26","ot2odwhhnq","","ot2odwhhnq","""2024-11-12T18:06:02.871Z""","675","materials/imgs/D104.png","arrowleft","","[""materials/imgs/D35.png"",""materials/imgs/D36.png""]","false","random","","",""
"","","","","","html-keyboard-response","306","1927685","0.0-17.0-0.3-0.27","ot2odwhhnq","","ot2odwhhnq","""2024-11-12T18:06:02.871Z""","null","+","null","","","","","","",""
"","","","","","image-keyboard-response","307","1929389","0.0-17.0-0.3-1.27","ot2odwhhnq","","ot2odwhhnq","""2024-11-12T18:06:02.871Z""","1702","materials/imgs/D11.png","arrowleft","","[""materials/imgs/D87.png"",""materials/imgs/D104.png""]","false","random","","",""
"","","","","","html-keyboard-response","308","1929894","0.0-17.0-1.3-0.3","ot2odwhhnq","","ot2odwhhnq","""2024-11-12T18:06:02.871Z""","null","+","null","","","","","","",""
"","","","","","image-keyboard-response","309","1930514","0.0-17.0-1.3-1.3","ot2odwhhnq","","ot2odwhhnq","""2024-11-12T18:06:02.871Z""","618","materials/imgs/D46.png","arrowleft","","[""materials/imgs/D46.png"",""materials/imgs/D26.png""]","","check","materials/imgs/D46.png","0","true"
"","","","","","html-keyboard-response","310","1931019","0.0-17.0-2.3-0.6","ot2odwhhnq","","ot2odwhhnq","""2024-11-12T18:06:02.871Z""","null","+","null","","","","","","",""
"","","","","","image-keyboard-response","311","1932325","0.0-17.0-2.3-1.6","ot2odwhhnq","","ot2odwhhnq","""2024-11-12T18:06:02.871Z""","1303","materials/imgs/D51.png","arrowright","","[""materials/imgs/D92.png"",""materials/imgs/D20.png""]","false","validation","","",""
"","","","","","html-keyboard-response","312","1932826","0.0-17.0-2.3-0.7","ot2odwhhnq","","ot2odwhhnq","""2024-11-12T18:06:02.871Z""","null","+","null","","","","","","",""
"","","","","","image-keyboard-response","313","1934034","0.0-17.0-2.3-1.7","ot2odwhhnq","","ot2odwhhnq","""2024-11-12T18:06:02.871Z""","1205","materials/imgs/D84.png","arrowleft","","[""materials/imgs/D106.png"",""materials/imgs/D37.png""]","false","validation","","",""
"","","","","","html-keyboard-response","314","1934540","0.0-17.0-0.4-0.28","ot2odwhhnq","","ot2odwhhnq","""2024-11-12T18:06:02.871Z""","null","+","null","","","","","","",""
"","","","","","image-keyboard-response","315","1936870","0.0-17.0-0.4-1.28","ot2odwhhnq","","ot2odwhhnq","""2024-11-12T18:06:02.871Z""","2329","materials/imgs/D16.png","arrowright","","[""materials/imgs/D111.png"",""materials/imgs/D11.png""]","false","random","","",""
"","","","","","html-keyboard-response","316","1937375","0.0-17.0-0.4-0.29","ot2odwhhnq","","ot2odwhhnq","""2024-11-12T18:06:02.871Z""","null","+","null","","","","","","",""
"","","","","","image-keyboard-response","317","1938487","0.0-17.0-0.4-1.29","ot2odwhhnq","","ot2odwhhnq","""2024-11-12T18:06:02.871Z""","1110","materials/imgs/D94.png","arrowleft","","[""materials/imgs/D102.png"",""materials/imgs/D3.png""]","false","random","","",""
"","","","","","html-keyboard-response","318","1938989","0.0-17.0-0.4-0.30","ot2odwhhnq","","ot2odwhhnq","""2024-11-12T18:06:02.871Z""","null","+","null","","","","","","",""
"","","","","","image-keyboard-response","319","1940200","0.0-17.0-0.4-1.30","ot2odwhhnq","","ot2odwhhnq","""2024-11-12T18:06:02.871Z""","1208","materials/imgs/D9.png","arrowright","","[""materials/imgs/D47.png"",""materials/imgs/D55.png""]","false","random","","",""
"","","","","","html-keyboard-response","320","1940702","0.0-17.0-0.4-0.31","ot2odwhhnq","","ot2odwhhnq","""2024-11-12T18:06:02.871Z""","null","+","null","","","","","","",""
"","","","","","image-keyboard-response","321","1942522","0.0-17.0-0.4-1.31","ot2odwhhnq","","ot2odwhhnq","""2024-11-12T18:06:02.871Z""","1817","materials/imgs/D21.png","arrowleft","","[""materials/imgs/D20.png"",""materials/imgs/D47.png""]","false","random","","",""
"","","","","","html-keyboard-response","322","1943027","0.0-17.0-0.4-0.32","ot2odwhhnq","","ot2odwhhnq","""2024-11-12T18:06:02.871Z""","null","+","null","","","","","","",""
"","","","","","image-keyboard-response","323","1943843","0.0-17.0-0.4-1.32","ot2odwhhnq","","ot2odwhhnq","""2024-11-12T18:06:02.871Z""","813","materials/imgs/D52.png","arrowright","","[""materials/imgs/D4.png"",""materials/imgs/D34.png""]","false","random","","",""
"","","","","","html-keyboard-response","324","1944347","0.0-17.0-0.4-0.33","ot2odwhhnq","","ot2odwhhnq","""2024-11-12T18:06:02.871Z""","null","+","null","","","","","","",""
"","","","","","image-keyboard-response","325","1946436","0.0-17.0-0.4-1.33","ot2odwhhnq","","ot2odwhhnq","""2024-11-12T18:06:02.871Z""","2086","materials/imgs/D29.png","arrowleft","","[""materials/imgs/D6.png"",""materials/imgs/D17.png""]","false","random","","",""
"","","","","","html-keyboard-response","326","1946940","0.0-17.0-0.4-0.34","ot2odwhhnq","","ot2odwhhnq","""2024-11-12T18:06:02.871Z""","null","+","null","","","","","","",""
"","","","","","image-keyboard-response","327","1948659","0.0-17.0-0.4-1.34","ot2odwhhnq","","ot2odwhhnq","""2024-11-12T18:06:02.871Z""","1715","materials/imgs/D74.png","arrowright","","[""materials/imgs/D105.png"",""materials/imgs/D9.png""]","false","random","","",""
"","","","","","html-keyboard-response","328","1949163","0.0-17.0-1.4-0.4","ot2odwhhnq","","ot2odwhhnq","""2024-11-12T18:06:02.871Z""","null","+","null","","","","","","",""
"","","","","","image-keyboard-response","329","1950178","0.0-17.0-1.4-1.4","ot2odwhhnq","","ot2odwhhnq","""2024-11-12T18:06:02.871Z""","1011","materials/imgs/D18.png","arrowright","","[""materials/imgs/D8.png"",""materials/imgs/D18.png""]","","check","materials/imgs/D18.png","1","true"
"","","","","","html-keyboard-response","330","1950680","0.0-17.0-2.4-0.8","ot2odwhhnq","","ot2odwhhnq","""2024-11-12T18:06:02.871Z""","null","+","null","","","","","","",""
"","","","","","image-keyboard-response","331","1952558","0.0-17.0-2.4-1.8","ot2odwhhnq","","ot2odwhhnq","""2024-11-12T18:06:02.871Z""","1875","materials/imgs/D76.png","arrowleft","","[""materials/imgs/D83.png"",""materials/imgs/D6.png""]","false","validation","","",""
"","","","","","html-keyboard-response","332","1953060","0.0-17.0-2.4-0.9","ot2odwhhnq","","ot2odwhhnq","""2024-11-12T18:06:02.871Z""","null","+","null","","","","","","",""
"","","","","","image-keyboard-response","333","1954154","0.0-17.0-2.4-1.9","ot2odwhhnq","","ot2odwhhnq","""2024-11-12T18:06:02.871Z""","1092","materials/imgs/D52.png","arrowleft","","[""materials/imgs/D9.png"",""materials/imgs/D19.png""]","false","validation","","",""
"","","","","","html-button-response","334","1955166","0.0-18.0","ot2odwhhnq","","ot2odwhhnq","""2024-11-12T18:06:02.871Z""","1011","You have completed 75% of the trials. Please click 'Continue' when you are ready proceed.","0","","","","","","",""
"","","","","","html-keyboard-response","335","1955667","0.0-19.0-0.0-0.0","ot2odwhhnq","","ot2odwhhnq","""2024-11-12T18:06:02.871Z""","null","+","null","","","","","","",""
"","","","","","image-keyboard-response","336","1956901","0.0-19.0-0.0-1.0","ot2odwhhnq","","ot2odwhhnq","""2024-11-12T18:06:02.871Z""","1231","materials/imgs/D64.png","arrowleft","","[""materials/imgs/D1.png"",""materials/imgs/D79.png""]","false","random","","",""
"","","","","","html-keyboard-response","337","1957406","0.0-19.0-0.0-0.1","ot2odwhhnq","","ot2odwhhnq","""2024-11-12T18:06:02.871Z""","null","+","null","","","","","","",""
"","","","","","image-keyboard-response","338","1959670","0.0-19.0-0.0-1.1","ot2odwhhnq","","ot2odwhhnq","""2024-11-12T18:06:02.871Z""","2261","materials/imgs/D74.png","arrowright","","[""materials/imgs/D24.png"",""materials/imgs/D20.png""]","false","random","","",""
"","","","","","html-keyboard-response","339","1960172","0.0-19.0-0.0-0.2","ot2odwhhnq","","ot2odwhhnq","""2024-11-12T18:06:02.871Z""","null","+","null","","","","","","",""
"","","","","","image-keyboard-response","340","1960932","0.0-19.0-0.0-1.2","ot2odwhhnq","","ot2odwhhnq","""2024-11-12T18:06:02.871Z""","757","materials/imgs/D26.png","arrowleft","","[""materials/imgs/D35.png"",""materials/imgs/D53.png""]","false","random","","",""
"","","","","","html-keyboard-response","341","1961436","0.0-19.0-0.0-0.3","ot2odwhhnq","","ot2odwhhnq","""2024-11-12T18:06:02.871Z""","null","+","null","","","","","","",""
"","","","","","image-keyboard-response","342","1962603","0.0-19.0-0.0-1.3","ot2odwhhnq","","ot2odwhhnq","""2024-11-12T18:06:02.871Z""","1164","materials/imgs/D20.png","arrowright","","[""materials/imgs/D8.png"",""materials/imgs/D18.png""]","false","random","","",""
"","","","","","html-keyboard-response","343","1963109","0.0-19.0-0.0-0.4","ot2odwhhnq","","ot2odwhhnq","""2024-11-12T18:06:02.871Z""","null","+","null","","","","","","",""
"","","","","","image-keyboard-response","344","1964009","0.0-19.0-0.0-1.4","ot2odwhhnq","","ot2odwhhnq","""2024-11-12T18:06:02.871Z""","897","materials/imgs/D87.png","arrowright","","[""materials/imgs/D1.png"",""materials/imgs/D4.png""]","false","random","","",""
"","","","","","html-keyboard-response","345","1964512","0.0-19.0-0.0-0.5","ot2odwhhnq","","ot2odwhhnq","""2024-11-12T18:06:02.871Z""","null","+","null","","","","","","",""
"","","","","","image-keyboard-response","346","1965135","0.0-19.0-0.0-1.5","ot2odwhhnq","","ot2odwhhnq","""2024-11-12T18:06:02.871Z""","620","materials/imgs/D49.png","arrowleft","","[""materials/imgs/D14.png"",""materials/imgs/D78.png""]","false","random","","",""
"","","","","","html-keyboard-response","347","1965638","0.0-19.0-0.0-0.6","ot2odwhhnq","","ot2odwhhnq","""2024-11-12T18:06:02.871Z""","null","+","null","","","","","","",""
"","","","","","image-keyboard-response","348","1966468","0.0-19.0-0.0-1.6","ot2odwhhnq","","ot2odwhhnq","""2024-11-12T18:06:02.871Z""","827","materials/imgs/D17.png","arrowleft","","[""materials/imgs/D111.png"",""materials/imgs/D46.png""]","false","random","","",""
"","","","","","html-keyboard-response","349","1966971","0.0-19.0-1.0-0.0","ot2odwhhnq","","ot2odwhhnq","""2024-11-12T18:06:02.871Z""","null","+","null","","","","","","",""
"","","","","","image-keyboard-response","350","1967586","0.0-19.0-1.0-1.0","ot2odwhhnq","","ot2odwhhnq","""2024-11-12T18:06:02.871Z""","613","materials/imgs/D46.png","arrowleft","","[""materials/imgs/D46.png"",""materials/imgs/D26.png""]","","check","materials/imgs/D46.png","0","true"
"","","","","","html-keyboard-response","351","1968092","0.0-19.0-2.0-0.0","ot2odwhhnq","","ot2odwhhnq","""2024-11-12T18:06:02.871Z""","null","+","null","","","","","","",""
"","","","","","image-keyboard-response","352","1969156","0.0-19.0-2.0-1.0","ot2odwhhnq","","ot2odwhhnq","""2024-11-12T18:06:02.871Z""","1062","materials/imgs/D48.png","arrowright","","[""materials/imgs/D4.png"",""materials/imgs/D37.png""]","false","validation","","",""
"","","","","","html-keyboard-response","353","1969660","0.0-19.0-2.0-0.1","ot2odwhhnq","","ot2odwhhnq","""2024-11-12T18:06:02.871Z""","null","+","null","","","","","","",""
"","","","","","image-keyboard-response","354","1970457","0.0-19.0-2.0-1.1","ot2odwhhnq","","ot2odwhhnq","""2024-11-12T18:06:02.871Z""","794","materials/imgs/D68.png","arrowright","","[""materials/imgs/D96.png"",""materials/imgs/D48.png""]","false","validation","","",""
"","","","","","html-keyboard-response","355","1970963","0.0-19.0-0.1-0.7","ot2odwhhnq","","ot2odwhhnq","""2024-11-12T18:06:02.871Z""","null","+","null","","","","","","",""
"","","","","","image-keyboard-response","356","1972375","0.0-19.0-0.1-1.7","ot2odwhhnq","","ot2odwhhnq","""2024-11-12T18:06:02.871Z""","1409","materials/imgs/D25.png","arrowleft","","[""materials/imgs/D52.png"",""materials/imgs/D83.png""]","false","random","","",""
"","","","","","html-keyboard-response","357","1972878","0.0-19.0-0.1-0.8","ot2odwhhnq","","ot2odwhhnq","""2024-11-12T18:06:02.871Z""","null","+","null","","","","","","",""
"","","","","","image-keyboard-response","358","1973619","0.0-19.0-0.1-1.8","ot2odwhhnq","","ot2odwhhnq","""2024-11-12T18:06:02.871Z""","739","materials/imgs/D56.png","arrowleft","","[""materials/imgs/D18.png"",""materials/imgs/D68.png""]","false","random","","",""
"","","","","","html-keyboard-response","359","1974123","0.0-19.0-0.1-0.9","ot2odwhhnq","","ot2odwhhnq","""2024-11-12T18:06:02.871Z""","null","+","null","","","","","","",""
"","","","","","image-keyboard-response","360","1975602","0.0-19.0-0.1-1.9","ot2odwhhnq","","ot2odwhhnq","""2024-11-12T18:06:02.871Z""","1476","materials/imgs/D55.png","arrowleft","","[""materials/imgs/D83.png"",""materials/imgs/D92.png""]","false","random","","",""
"","","","","","html-keyboard-response","361","1976108","0.0-19.0-0.1-0.10","ot2odwhhnq","","ot2odwhhnq","""2024-11-12T18:06:02.871Z""","null","+","null","","","","","","",""
"","","","","","image-keyboard-response","362","1978172","0.0-19.0-0.1-1.10","ot2odwhhnq","","ot2odwhhnq","""2024-11-12T18:06:02.871Z""","2061","materials/imgs/D22.png","arrowleft","","[""materials/imgs/D11.png"",""materials/imgs/D1.png""]","false","random","","",""
"","","","","","html-keyboard-response","363","1978678","0.0-19.0-0.1-0.11","ot2odwhhnq","","ot2odwhhnq","""2024-11-12T18:06:02.871Z""","null","+","null","","","","","","",""
"","","","","","image-keyboard-response","364","1981478","0.0-19.0-0.1-1.11","ot2odwhhnq","","ot2odwhhnq","""2024-11-12T18:06:02.871Z""","2797","materials/imgs/D104.png","arrowleft","","[""materials/imgs/D79.png"",""materials/imgs/D55.png""]","false","random","","",""
"","","","","","html-keyboard-response","365","1981983","0.0-19.0-0.1-0.12","ot2odwhhnq","","ot2odwhhnq","""2024-11-12T18:06:02.871Z""","null","+","null","","","","","","",""
"","","","","","image-keyboard-response","366","1984446","0.0-19.0-0.1-1.12","ot2odwhhnq","","ot2odwhhnq","""2024-11-12T18:06:02.871Z""","2462","materials/imgs/D92.png","arrowleft","","[""materials/imgs/D8.png"",""materials/imgs/D1.png""]","false","random","","",""
"","","","","","html-keyboard-response","367","1984951","0.0-19.0-0.1-0.13","ot2odwhhnq","","ot2odwhhnq","""2024-11-12T18:06:02.871Z""","null","+","null","","","","","","",""
"","","","","","image-keyboard-response","368","1986534","0.0-19.0-0.1-1.13","ot2odwhhnq","","ot2odwhhnq","""2024-11-12T18:06:02.871Z""","1580","materials/imgs/D57.png","arrowright","","[""materials/imgs/D48.png"",""materials/imgs/D16.png""]","false","random","","",""
"","","","","","html-keyboard-response","369","1987038","0.0-19.0-1.1-0.1","ot2odwhhnq","","ot2odwhhnq","""2024-11-12T18:06:02.871Z""","null","+","null","","","","","","",""
"","","","","","image-keyboard-response","370","1987604","0.0-19.0-1.1-1.1","ot2odwhhnq","","ot2odwhhnq","""2024-11-12T18:06:02.871Z""","564","materials/imgs/D46.png","arrowleft","","[""materials/imgs/D46.png"",""materials/imgs/D26.png""]","","check","materials/imgs/D46.png","0","true"
"","","","","","html-keyboard-response","371","1988110","0.0-19.0-2.1-0.2","ot2odwhhnq","","ot2odwhhnq","""2024-11-12T18:06:02.871Z""","null","+","null","","","","","","",""
"","","","","","image-keyboard-response","372","1989353","0.0-19.0-2.1-1.2","ot2odwhhnq","","ot2odwhhnq","""2024-11-12T18:06:02.871Z""","1241","materials/imgs/D76.png","arrowleft","","[""materials/imgs/D83.png"",""materials/imgs/D6.png""]","false","validation","","",""
"","","","","","html-keyboard-response","373","1989857","0.0-19.0-2.1-0.3","ot2odwhhnq","","ot2odwhhnq","""2024-11-12T18:06:02.871Z""","null","+","null","","","","","","",""
"","","","","","image-keyboard-response","374","1990926","0.0-19.0-2.1-1.3","ot2odwhhnq","","ot2odwhhnq","""2024-11-12T18:06:02.871Z""","1066","materials/imgs/D75.png","arrowleft","","[""materials/imgs/D96.png"",""materials/imgs/D4.png""]","false","validation","","",""
"","","","","","html-keyboard-response","375","1991430","0.0-19.0-0.2-0.14","ot2odwhhnq","","ot2odwhhnq","""2024-11-12T18:06:02.871Z""","null","+","null","","","","","","",""
"","","","","","image-keyboard-response","376","1994987","0.0-19.0-0.2-1.14","ot2odwhhnq","","ot2odwhhnq","""2024-11-12T18:06:02.871Z""","3553","materials/imgs/D21.png","arrowright","","[""materials/imgs/D96.png"",""materials/imgs/D75.png""]","false","random","","",""
"","","","","","html-keyboard-response","377","1995492","0.0-19.0-0.2-0.15","ot2odwhhnq","","ot2odwhhnq","""2024-11-12T18:06:02.871Z""","null","+","null","","","","","","",""
"","","","","","image-keyboard-response","378","1996501","0.0-19.0-0.2-1.15","ot2odwhhnq","","ot2odwhhnq","""2024-11-12T18:06:02.871Z""","1006","materials/imgs/D66.png","arrowleft","","[""materials/imgs/D65.png"",""materials/imgs/D17.png""]","false","random","","",""
"","","","","","html-keyboard-response","379","1997002","0.0-19.0-0.2-0.16","ot2odwhhnq","","ot2odwhhnq","""2024-11-12T18:06:02.871Z""","null","+","null","","","","","","",""
"","","","","","image-keyboard-response","380","1998930","0.0-19.0-0.2-1.16","ot2odwhhnq","","ot2odwhhnq","""2024-11-12T18:06:02.871Z""","1925","materials/imgs/D18.png","arrowright","","[""materials/imgs/D102.png"",""materials/imgs/D1.png""]","false","random","","",""
"","","","","","html-keyboard-response","381","1999432","0.0-19.0-0.2-0.17","ot2odwhhnq","","ot2odwhhnq","""2024-11-12T18:06:02.871Z""","null","+","null","","","","","","",""
"","","","","","image-keyboard-response","382","2000659","0.0-19.0-0.2-1.17","ot2odwhhnq","","ot2odwhhnq","""2024-11-12T18:06:02.871Z""","1223","materials/imgs/D4.png","arrowleft","","[""materials/imgs/D16.png"",""materials/imgs/D17.png""]","false","random","","",""
"","","","","","html-keyboard-response","383","2001163","0.0-19.0-0.2-0.18","ot2odwhhnq","","ot2odwhhnq","""2024-11-12T18:06:02.871Z""","null","+","null","","","","","","",""
"","","","","","image-keyboard-response","384","2001965","0.0-19.0-0.2-1.18","ot2odwhhnq","","ot2odwhhnq","""2024-11-12T18:06:02.871Z""","798","materials/imgs/D65.png","arrowleft","","[""materials/imgs/D8.png"",""materials/imgs/D78.png""]","false","random","","",""
"","","","","","html-keyboard-response","385","2002468","0.0-19.0-0.2-0.19","ot2odwhhnq","","ot2odwhhnq","""2024-11-12T18:06:02.871Z""","null","+","null","","","","","","",""
"","","","","","image-keyboard-response","386","2006210","0.0-19.0-0.2-1.19","ot2odwhhnq","","ot2odwhhnq","""2024-11-12T18:06:02.871Z""","3738","materials/imgs/D92.png","arrowleft","","[""materials/imgs/D35.png"",""materials/imgs/D3.png""]","false","random","","",""
"","","","","","html-keyboard-response","387","2006714","0.0-19.0-0.2-0.20","ot2odwhhnq","","ot2odwhhnq","""2024-11-12T18:06:02.871Z""","null","+","null","","","","","","",""
"","","","","","image-keyboard-response","388","2008760","0.0-19.0-0.2-1.20","ot2odwhhnq","","ot2odwhhnq","""2024-11-12T18:06:02.871Z""","2044","materials/imgs/D51.png","arrowleft","","[""materials/imgs/D52.png"",""materials/imgs/D53.png""]","false","random","","",""
"","","","","","html-keyboard-response","389","2009265","0.0-19.0-1.2-0.2","ot2odwhhnq","","ot2odwhhnq","""2024-11-12T18:06:02.871Z""","null","+","null","","","","","","",""
"","","","","","image-keyboard-response","390","2010001","0.0-19.0-1.2-1.2","ot2odwhhnq","","ot2odwhhnq","""2024-11-12T18:06:02.871Z""","733","materials/imgs/D78.png","arrowright","","[""materials/imgs/D76.png"",""materials/imgs/D78.png""]","","check","materials/imgs/D78.png","1","true"
"","","","","","html-keyboard-response","391","2010506","0.0-19.0-2.2-0.4","ot2odwhhnq","","ot2odwhhnq","""2024-11-12T18:06:02.871Z""","null","+","null","","","","","","",""
"","","","","","image-keyboard-response","392","2012122","0.0-19.0-2.2-1.4","ot2odwhhnq","","ot2odwhhnq","""2024-11-12T18:06:02.871Z""","1613","materials/imgs/D64.png","arrowright","","[""materials/imgs/D6.png"",""materials/imgs/D81.png""]","false","validation","","",""
"","","","","","html-keyboard-response","393","2012627","0.0-19.0-2.2-0.5","ot2odwhhnq","","ot2odwhhnq","""2024-11-12T18:06:02.871Z""","null","+","null","","","","","","",""
"","","","","","image-keyboard-response","394","2013836","0.0-19.0-2.2-1.5","ot2odwhhnq","","ot2odwhhnq","""2024-11-12T18:06:02.871Z""","1206","materials/imgs/D92.png","arrowright","","[""materials/imgs/D56.png"",""materials/imgs/D77.png""]","false","validation","","",""
"","","","","","html-keyboard-response","395","2014339","0.0-19.0-0.3-0.21","ot2odwhhnq","","ot2odwhhnq","""2024-11-12T18:06:02.871Z""","null","+","null","","","","","","",""
"","","","","","image-keyboard-response","396","2015832","0.0-19.0-0.3-1.21","ot2odwhhnq","","ot2odwhhnq","""2024-11-12T18:06:02.871Z""","1490","materials/imgs/D105.png","arrowleft","","[""materials/imgs/D81.png"",""materials/imgs/D8.png""]","false","random","","",""
"","","","","","html-keyboard-response","397","2016334","0.0-19.0-0.3-0.22","ot2odwhhnq","","ot2odwhhnq","""2024-11-12T18:06:02.871Z""","null","+","null","","","","","","",""
"","","","","","image-keyboard-response","398","2019150","0.0-19.0-0.3-1.22","ot2odwhhnq","","ot2odwhhnq","""2024-11-12T18:06:02.871Z""","2814","materials/imgs/D35.png","arrowright","","[""materials/imgs/D20.png"",""materials/imgs/D18.png""]","false","random","","",""
"","","","","","html-keyboard-response","399","2019655","0.0-19.0-0.3-0.23","ot2odwhhnq","","ot2odwhhnq","""2024-11-12T18:06:02.871Z""","null","+","null","","","","","","",""
"","","","","","image-keyboard-response","400","2020727","0.0-19.0-0.3-1.23","ot2odwhhnq","","ot2odwhhnq","""2024-11-12T18:06:02.871Z""","1069","materials/imgs/D51.png","arrowright","","[""materials/imgs/D64.png"",""materials/imgs/D105.png""]","false","random","","",""
"","","","","","html-keyboard-response","401","2021229","0.0-19.0-0.3-0.24","ot2odwhhnq","","ot2odwhhnq","""2024-11-12T18:06:02.871Z""","null","+","null","","","","","","",""
"","","","","","image-keyboard-response","402","2024773","0.0-19.0-0.3-1.24","ot2odwhhnq","","ot2odwhhnq","""2024-11-12T18:06:02.871Z""","3541","materials/imgs/D102.png","arrowleft","","[""materials/imgs/D49.png"",""materials/imgs/D78.png""]","false","random","","",""
"","","","","","html-keyboard-response","403","2025278","0.0-19.0-0.3-0.25","ot2odwhhnq","","ot2odwhhnq","""2024-11-12T18:06:02.871Z""","null","+","null","","","","","","",""
"","","","","","image-keyboard-response","404","2026629","0.0-19.0-0.3-1.25","ot2odwhhnq","","ot2odwhhnq","""2024-11-12T18:06:02.871Z""","1348","materials/imgs/D48.png","arrowright","","[""materials/imgs/D94.png"",""materials/imgs/D101.png""]","false","random","","",""
"","","","","","html-keyboard-response","405","2027132","0.0-19.0-0.3-0.26","ot2odwhhnq","","ot2odwhhnq","""2024-11-12T18:06:02.871Z""","null","+","null","","","","","","",""
"","","","","","image-keyboard-response","406","2029591","0.0-19.0-0.3-1.26","ot2odwhhnq","","ot2odwhhnq","""2024-11-12T18:06:02.871Z""","2456","materials/imgs/D25.png","arrowleft","","[""materials/imgs/D37.png"",""materials/imgs/D55.png""]","false","random","","",""
"","","","","","html-keyboard-response","407","2030095","0.0-19.0-0.3-0.27","ot2odwhhnq","","ot2odwhhnq","""2024-11-12T18:06:02.871Z""","null","+","null","","","","","","",""
"","","","","","image-keyboard-response","408","2032595","0.0-19.0-0.3-1.27","ot2odwhhnq","","ot2odwhhnq","""2024-11-12T18:06:02.871Z""","2496","materials/imgs/D66.png","arrowright","","[""materials/imgs/D105.png"",""materials/imgs/D4.png""]","false","random","","",""
"","","","","","html-keyboard-response","409","2033099","0.0-19.0-1.3-0.3","ot2odwhhnq","","ot2odwhhnq","""2024-11-12T18:06:02.871Z""","null","+","null","","","","","","",""
"","","","","","image-keyboard-response","410","2033959","0.0-19.0-1.3-1.3","ot2odwhhnq","","ot2odwhhnq","""2024-11-12T18:06:02.871Z""","858","materials/imgs/D8.png","arrowright","","[""materials/imgs/D18.png"",""materials/imgs/D8.png""]","","check","materials/imgs/D8.png","1","true"
"","","","","","html-keyboard-response","411","2034463","0.0-19.0-2.3-0.6","ot2odwhhnq","","ot2odwhhnq","""2024-11-12T18:06:02.871Z""","null","+","null","","","","","","",""
"","","","","","image-keyboard-response","412","2035219","0.0-19.0-2.3-1.6","ot2odwhhnq","","ot2odwhhnq","""2024-11-12T18:06:02.871Z""","754","materials/imgs/D57.png","arrowright","","[""materials/imgs/D111.png"",""materials/imgs/D4.png""]","false","validation","","",""
"","","","","","html-keyboard-response","413","2035724","0.0-19.0-2.3-0.7","ot2odwhhnq","","ot2odwhhnq","""2024-11-12T18:06:02.871Z""","null","+","null","","","","","","",""
"","","","","","image-keyboard-response","414","2036400","0.0-19.0-2.3-1.7","ot2odwhhnq","","ot2odwhhnq","""2024-11-12T18:06:02.871Z""","674","materials/imgs/D105.png","arrowleft","","[""materials/imgs/D106.png"",""materials/imgs/D52.png""]","false","validation","","",""
"","","","","","html-keyboard-response","415","2036904","0.0-19.0-0.4-0.28","ot2odwhhnq","","ot2odwhhnq","""2024-11-12T18:06:02.871Z""","null","+","null","","","","","","",""
"","","","","","image-keyboard-response","416","2037818","0.0-19.0-0.4-1.28","ot2odwhhnq","","ot2odwhhnq","""2024-11-12T18:06:02.871Z""","911","materials/imgs/D52.png","arrowleft","","[""materials/imgs/D36.png"",""materials/imgs/D92.png""]","false","random","","",""
"","","","","","html-keyboard-response","417","2038321","0.0-19.0-0.4-0.29","ot2odwhhnq","","ot2odwhhnq","""2024-11-12T18:06:02.871Z""","null","+","null","","","","","","",""
"","","","","","image-keyboard-response","418","2039852","0.0-19.0-0.4-1.29","ot2odwhhnq","","ot2odwhhnq","""2024-11-12T18:06:02.871Z""","1528","materials/imgs/D53.png","arrowright","","[""materials/imgs/D87.png"",""materials/imgs/D20.png""]","false","random","","",""
"","","","","","html-keyboard-response","419","2040357","0.0-19.0-0.4-0.30","ot2odwhhnq","","ot2odwhhnq","""2024-11-12T18:06:02.871Z""","null","+","null","","","","","","",""
"","","","","","image-keyboard-response","420","2041427","0.0-19.0-0.4-1.30","ot2odwhhnq","","ot2odwhhnq","""2024-11-12T18:06:02.871Z""","1066","materials/imgs/D83.png","arrowleft","","[""materials/imgs/D85.png"",""materials/imgs/D6.png""]","false","random","","",""
"","","","","","html-keyboard-response","421","2041931","0.0-19.0-0.4-0.31","ot2odwhhnq","","ot2odwhhnq","""2024-11-12T18:06:02.871Z""","null","+","null","","","","","","",""
"","","","","","image-keyboard-response","422","2045098","0.0-19.0-0.4-1.31","ot2odwhhnq","","ot2odwhhnq","""2024-11-12T18:06:02.871Z""","3164","materials/imgs/D104.png","arrowleft","","[""materials/imgs/D51.png"",""materials/imgs/D92.png""]","false","random","","",""
"","","","","","html-keyboard-response","423","2045603","0.0-19.0-0.4-0.32","ot2odwhhnq","","ot2odwhhnq","""2024-11-12T18:06:02.871Z""","null","+","null","","","","","","",""
"","","","","","image-keyboard-response","424","2047457","0.0-19.0-0.4-1.32","ot2odwhhnq","","ot2odwhhnq","""2024-11-12T18:06:02.871Z""","1851","materials/imgs/D9.png","arrowright","","[""materials/imgs/D64.png"",""materials/imgs/D111.png""]","false","random","","",""
"","","","","","html-keyboard-response","425","2047962","0.0-19.0-0.4-0.33","ot2odwhhnq","","ot2odwhhnq","""2024-11-12T18:06:02.871Z""","null","+","null","","","","","","",""
"","","","","","image-keyboard-response","426","2050834","0.0-19.0-0.4-1.33","ot2odwhhnq","","ot2odwhhnq","""2024-11-12T18:06:02.871Z""","2869","materials/imgs/D22.png","arrowright","","[""materials/imgs/D56.png"",""materials/imgs/D4.png""]","false","random","","",""
"","","","","","html-keyboard-response","427","2051337","0.0-19.0-0.4-0.34","ot2odwhhnq","","ot2odwhhnq","""2024-11-12T18:06:02.871Z""","null","+","null","","","","","","",""
"","","","","","image-keyboard-response","428","2053059","0.0-19.0-0.4-1.34","ot2odwhhnq","","ot2odwhhnq","""2024-11-12T18:06:02.871Z""","1719","materials/imgs/D85.png","arrowleft","","[""materials/imgs/D81.png"",""materials/imgs/D1.png""]","false","random","","",""
"","","","","","html-keyboard-response","429","2053562","0.0-19.0-1.4-0.4","ot2odwhhnq","","ot2odwhhnq","""2024-11-12T18:06:02.871Z""","null","+","null","","","","","","",""
"","","","","","image-keyboard-response","430","2054287","0.0-19.0-1.4-1.4","ot2odwhhnq","","ot2odwhhnq","""2024-11-12T18:06:02.871Z""","723","materials/imgs/D8.png","arrowright","","[""materials/imgs/D18.png"",""materials/imgs/D8.png""]","","check","materials/imgs/D8.png","1","true"
"","","","","","html-keyboard-response","431","2054793","0.0-19.0-2.4-0.8","ot2odwhhnq","","ot2odwhhnq","""2024-11-12T18:06:02.871Z""","null","+","null","","","","","","",""
"","","","","","image-keyboard-response","432","2057661","0.0-19.0-2.4-1.8","ot2odwhhnq","","ot2odwhhnq","""2024-11-12T18:06:02.871Z""","2866","materials/imgs/D66.png","arrowright","","[""materials/imgs/D85.png"",""materials/imgs/D25.png""]","false","validation","","",""
"","","","","","html-keyboard-response","433","2058165","0.0-19.0-2.4-0.9","ot2odwhhnq","","ot2odwhhnq","""2024-11-12T18:06:02.871Z""","null","+","null","","","","","","",""
"","","","","","image-keyboard-response","434","2060553","0.0-19.0-2.4-1.9","ot2odwhhnq","","ot2odwhhnq","""2024-11-12T18:06:02.871Z""","2386","materials/imgs/D83.png","arrowright","","[""materials/imgs/D24.png"",""materials/imgs/D8.png""]","false","validation","","",""
