"success","timeout","failed_images","failed_audio","failed_video","trial_type","trial_index","time_elapsed","internal_node_id","subject_id","sona_id","subjectID","dateInfo","rt","stimulus","response","question_order","choices","speedy","sampleAlg","selected_image","selected_index","correct"
"true","false","[]","[]","[]","preload","0","287","0.0-0.0","p0xgkwosr3","","p0xgkwosr3","""2024-11-12T18:34:08.519Z""","","","","","","","","","",""
"true","","","","","fullscreen","1","2443","0.0-1.0","p0xgkwosr3","","p0xgkwosr3","""2024-11-12T18:34:08.519Z""","","","","","","","","","",""
"","","","","","html-keyboard-response","2","2456","0.0-2.0","p0xgkwosr3","","p0xgkwosr3","""2024-11-12T18:34:08.519Z""","null","","null","","","","","","",""
"","","","","","html-button-response","3","4579","0.0-3.0","p0xgkwosr3","","p0xgkwosr3","""2024-11-12T18:34:08.519Z""","2120","<div style='text-align:center; font-size:20px; line-height:25px; width: 1200px;'>
                Welcome to our experiment! <br>
                <br>At the bottom of this screen, you will see a button that says 'Begin Experiment.
                <br>Please only click that button when you are ready to complete the 25 minute experiment in one sitting. <br>
                <br> Once you click that button, it will not be possible to restart the experiment. <br><br>","0","","","","","","",""
"true","","","","","fullscreen","4","9285","0.0-4.0","p0xgkwosr3","","p0xgkwosr3","""2024-11-12T18:34:08.519Z""","","","","","","","","","",""
"","","","","","survey-multi-select","5","22353","0.0-5.0","p0xgkwosr3","","p0xgkwosr3","""2024-11-12T18:34:08.519Z""","13062","","{""Consent"":[""<strong>I consent</strong>""]}","[0]","","","","","",""
"","","","","","html-button-response","6","23576","0.0-6.0","p0xgkwosr3","","p0xgkwosr3","""2024-11-12T18:34:08.519Z""","1221","Welcome! <p> This experiment involves two parts: demographic information, followed by the experimental task.<p> It will take about 25 minutes to complete both parts.","0","","","","","","",""
"","","","","","survey-text","7","34387","0.0-7.0","p0xgkwosr3","","p0xgkwosr3","""2024-11-12T18:34:08.519Z""","10804","","{""Age"":""18"",""Gender"":""woman"",""Race/ethnicity"":""white/caucasian""}","","","","","","",""
"","","","","","html-button-response","8","43725","0.0-8.0","p0xgkwosr3","","p0xgkwosr3","""2024-11-12T18:34:08.519Z""","9336","<div style='text-align: center;'>
      <p>In each trial of this task, you will see three texture images: one target item on top, and two choices beneath the target item.</p>
      <p><strong>Please select the item that is most like the target item.</strong></p>
      <p>To select the option on the <strong>LEFT</strong>, press the <strong>LEFT ARROW</strong> key. 
      To select the option on the <strong>RIGHT</strong>, press the <strong>RIGHT ARROW</strong> key.</p>
                  <!-- Target Image at the Top -->
      <div style='margin: 20px;'>
        <img src='materials/imgs/instruction_images/InstructionImg1D78.png' alt='Target Image' style='width:200px; height:auto;' />
        <p><em>Target Image</em></p>
      </div>

      <!-- Two Choice Images Below -->
      <div style='display: flex; justify-content: center;'>
        <div style='margin-right: 50px;'>
          <img src='materials/imgs/instruction_images/InstructionImg2D34.png' alt='Choice Image 1' style='width:150px; height:auto;' />
          <p><em><strong>LEFT ARROW</strong></em></p>
        </div>
        <div style='margin-left: 50px;'>
          <img src='materials/imgs/instruction_images/InstructionImg3D80.png' alt='Choice Image 2' style='width:150px; height:auto;' />
          <p><em><strong>RIGHT ARROW</strong></em></p>
        </div>
      </div>
    </div>

      <p>When you are ready to proceed, please click 'Continue' to begin practice.</p>","0","","","","","","",""
"","","","","","html-keyboard-response","9","46230","0.0-9.0","p0xgkwosr3","","p0xgkwosr3","""2024-11-12T18:34:08.519Z""","null","+","null","","","","","","",""
"","","","","","html-keyboard-response","10","46733","0.0-10.0-0.0-0.0","p0xgkwosr3","","p0xgkwosr3","""2024-11-12T18:34:08.519Z""","null","+","null","","","","","","",""
"","","","","","image-keyboard-response","11","48392","0.0-10.0-0.0-1.0","p0xgkwosr3","","p0xgkwosr3","""2024-11-12T18:34:08.519Z""","1654","materials/imgs/D81.png","arrowleft","","[""materials/imgs/D66.png"",""materials/imgs/D26.png""]","false","random","","",""
"","","","","","html-keyboard-response","12","48893","0.0-10.0-0.0-0.1","p0xgkwosr3","","p0xgkwosr3","""2024-11-12T18:34:08.519Z""","null","+","null","","","","","","",""
"","","","","","image-keyboard-response","13","49975","0.0-10.0-0.0-1.1","p0xgkwosr3","","p0xgkwosr3","""2024-11-12T18:34:08.519Z""","1079","materials/imgs/D16.png","arrowleft","","[""materials/imgs/D106.png"",""materials/imgs/D1.png""]","false","random","","",""
"","","","","","html-keyboard-response","14","50476","0.0-10.0-0.0-0.2","p0xgkwosr3","","p0xgkwosr3","""2024-11-12T18:34:08.519Z""","null","+","null","","","","","","",""
"","","","","","image-keyboard-response","15","51420","0.0-10.0-0.0-1.2","p0xgkwosr3","","p0xgkwosr3","""2024-11-12T18:34:08.519Z""","942","materials/imgs/D53.png","arrowright","","[""materials/imgs/D82.png"",""materials/imgs/D14.png""]","false","random","","",""
"","","","","","html-keyboard-response","16","51921","0.0-10.0-0.0-0.3","p0xgkwosr3","","p0xgkwosr3","""2024-11-12T18:34:08.519Z""","null","+","null","","","","","","",""
"","","","","","image-keyboard-response","17","53230","0.0-10.0-0.0-1.3","p0xgkwosr3","","p0xgkwosr3","""2024-11-12T18:34:08.519Z""","1307","materials/imgs/D47.png","arrowright","","[""materials/imgs/D49.png"",""materials/imgs/D80.png""]","false","random","","",""
"","","","","","html-keyboard-response","18","53731","0.0-10.0-0.0-0.4","p0xgkwosr3","","p0xgkwosr3","""2024-11-12T18:34:08.519Z""","null","+","null","","","","","","",""
"","","","","","image-keyboard-response","19","55661","0.0-10.0-0.0-1.4","p0xgkwosr3","","p0xgkwosr3","""2024-11-12T18:34:08.519Z""","1928","materials/imgs/D80.png","arrowright","","[""materials/imgs/D8.png"",""materials/imgs/D18.png""]","false","random","","",""
"","","","","","html-keyboard-response","20","56163","0.0-10.0-0.0-0.5","p0xgkwosr3","","p0xgkwosr3","""2024-11-12T18:34:08.519Z""","null","+","null","","","","","","",""
"","","","","","image-keyboard-response","21","56948","0.0-10.0-0.0-1.5","p0xgkwosr3","","p0xgkwosr3","""2024-11-12T18:34:08.519Z""","784","materials/imgs/D17.png","arrowleft","","[""materials/imgs/D104.png"",""materials/imgs/D46.png""]","false","random","","",""
"","","","","","html-keyboard-response","22","57449","0.0-10.0-0.0-0.6","p0xgkwosr3","","p0xgkwosr3","""2024-11-12T18:34:08.519Z""","null","+","null","","","","","","",""
"","","","","","image-keyboard-response","23","59796","0.0-10.0-0.0-1.6","p0xgkwosr3","","p0xgkwosr3","""2024-11-12T18:34:08.519Z""","2345","materials/imgs/D78.png","arrowleft","","[""materials/imgs/D51.png"",""materials/imgs/D47.png""]","false","random","","",""
"","","","","","html-keyboard-response","24","60298","0.0-10.0-0.0-0.7","p0xgkwosr3","","p0xgkwosr3","""2024-11-12T18:34:08.519Z""","null","+","null","","","","","","",""
"","","","","","image-keyboard-response","25","61562","0.0-10.0-0.0-1.7","p0xgkwosr3","","p0xgkwosr3","""2024-11-12T18:34:08.519Z""","1263","materials/imgs/D3.png","arrowright","","[""materials/imgs/D21.png"",""materials/imgs/D17.png""]","false","random","","",""
"","","","","","html-keyboard-response","26","62063","0.0-10.0-0.0-0.8","p0xgkwosr3","","p0xgkwosr3","""2024-11-12T18:34:08.519Z""","null","+","null","","","","","","",""
"","","","","","image-keyboard-response","27","63480","0.0-10.0-0.0-1.8","p0xgkwosr3","","p0xgkwosr3","""2024-11-12T18:34:08.519Z""","1415","materials/imgs/D81.png","arrowleft","","[""materials/imgs/D57.png"",""materials/imgs/D64.png""]","false","random","","",""
"","","","","","html-keyboard-response","28","63982","0.0-10.0-0.0-0.9","p0xgkwosr3","","p0xgkwosr3","""2024-11-12T18:34:08.519Z""","null","+","null","","","","","","",""
"","","","","","image-keyboard-response","29","65062","0.0-10.0-0.0-1.9","p0xgkwosr3","","p0xgkwosr3","""2024-11-12T18:34:08.519Z""","1078","materials/imgs/D9.png","arrowleft","","[""materials/imgs/D19.png"",""materials/imgs/D65.png""]","false","random","","",""
"","","","","","html-button-response","30","67864","0.0-11.0","p0xgkwosr3","","p0xgkwosr3","""2024-11-12T18:34:08.519Z""","2801","<p>Great job!</p>
      <p>You are now ready to begin the experiment.</p>
      <p>There will be around 200 trials. You will have opportunities to take breaks at three stages of the trials.</p>
      <p>When you are ready to begin please click 'Continue'.</p>","0","","","","","","",""
"","","","","","html-keyboard-response","31","70367","0.0-12.0","p0xgkwosr3","","p0xgkwosr3","""2024-11-12T18:34:08.519Z""","null","+","null","","","","","","",""
"","","","","","html-keyboard-response","32","70870","0.0-13.0-0.0-0.0","p0xgkwosr3","","p0xgkwosr3","""2024-11-12T18:34:08.519Z""","null","+","null","","","","","","",""
"","","","","","image-keyboard-response","33","72358","0.0-13.0-0.0-1.0","p0xgkwosr3","","p0xgkwosr3","""2024-11-12T18:34:08.519Z""","1486","materials/imgs/D52.png","arrowleft","","[""materials/imgs/D77.png"",""materials/imgs/D105.png""]","false","random","","",""
"","","","","","html-keyboard-response","34","72861","0.0-13.0-0.0-0.1","p0xgkwosr3","","p0xgkwosr3","""2024-11-12T18:34:08.519Z""","null","+","null","","","","","","",""
"","","","","","image-keyboard-response","35","73731","0.0-13.0-0.0-1.1","p0xgkwosr3","","p0xgkwosr3","""2024-11-12T18:34:08.519Z""","869","materials/imgs/D19.png","arrowright","","[""materials/imgs/D49.png"",""materials/imgs/D103.png""]","false","random","","",""
"","","","","","html-keyboard-response","36","74232","0.0-13.0-0.0-0.2","p0xgkwosr3","","p0xgkwosr3","""2024-11-12T18:34:08.519Z""","null","+","null","","","","","","",""
"","","","","","image-keyboard-response","37","75122","0.0-13.0-0.0-1.2","p0xgkwosr3","","p0xgkwosr3","""2024-11-12T18:34:08.519Z""","889","materials/imgs/D46.png","arrowleft","","[""materials/imgs/D104.png"",""materials/imgs/D14.png""]","false","random","","",""
"","","","","","html-keyboard-response","38","75624","0.0-13.0-0.0-0.3","p0xgkwosr3","","p0xgkwosr3","""2024-11-12T18:34:08.519Z""","null","+","null","","","","","","",""
"","","","","","image-keyboard-response","39","76687","0.0-13.0-0.0-1.3","p0xgkwosr3","","p0xgkwosr3","""2024-11-12T18:34:08.519Z""","1061","materials/imgs/D96.png","arrowright","","[""materials/imgs/D66.png"",""materials/imgs/D20.png""]","false","random","","",""
"","","","","","html-keyboard-response","40","77188","0.0-13.0-0.0-0.4","p0xgkwosr3","","p0xgkwosr3","""2024-11-12T18:34:08.519Z""","null","+","null","","","","","","",""
"","","","","","image-keyboard-response","41","78279","0.0-13.0-0.0-1.4","p0xgkwosr3","","p0xgkwosr3","""2024-11-12T18:34:08.519Z""","1089","materials/imgs/D34.png","arrowright","","[""materials/imgs/D66.png"",""materials/imgs/D36.png""]","false","random","","",""
"","","","","","html-keyboard-response","42","78781","0.0-13.0-0.0-0.5","p0xgkwosr3","","p0xgkwosr3","""2024-11-12T18:34:08.519Z""","null","+","null","","","","","","",""
"","","","","","image-keyboard-response","43","80665","0.0-13.0-0.0-1.5","p0xgkwosr3","","p0xgkwosr3","""2024-11-12T18:34:08.519Z""","1883","materials/imgs/D11.png","arrowleft","","[""materials/imgs/D35.png"",""materials/imgs/D1.png""]","false","random","","",""
"","","","","","html-keyboard-response","44","81166","0.0-13.0-0.0-0.6","p0xgkwosr3","","p0xgkwosr3","""2024-11-12T18:34:08.519Z""","null","+","null","","","","","","",""
"","","","","","image-keyboard-response","45","82289","0.0-13.0-0.0-1.6","p0xgkwosr3","","p0xgkwosr3","""2024-11-12T18:34:08.519Z""","1121","materials/imgs/D65.png","arrowleft","","[""materials/imgs/D3.png"",""materials/imgs/D57.png""]","false","random","","",""
"","","","","","html-keyboard-response","46","82790","0.0-13.0-1.0-0.0","p0xgkwosr3","","p0xgkwosr3","""2024-11-12T18:34:08.519Z""","null","+","null","","","","","","",""
"","","","","","image-keyboard-response","47","83469","0.0-13.0-1.0-1.0","p0xgkwosr3","","p0xgkwosr3","""2024-11-12T18:34:08.519Z""","677","materials/imgs/D46.png","arrowleft","","[""materials/imgs/D46.png"",""materials/imgs/D26.png""]","","check","materials/imgs/D46.png","0","true"
"","","","","","html-keyboard-response","48","83971","0.0-13.0-2.0-0.0","p0xgkwosr3","","p0xgkwosr3","""2024-11-12T18:34:08.519Z""","null","+","null","","","","","","",""
"","","","","","image-keyboard-response","49","84920","0.0-13.0-2.0-1.0","p0xgkwosr3","","p0xgkwosr3","""2024-11-12T18:34:08.519Z""","947","materials/imgs/D102.png","arrowright","","[""materials/imgs/D32.png"",""materials/imgs/D111.png""]","false","validation","","",""
"","","","","","html-keyboard-response","50","85421","0.0-13.0-2.0-0.1","p0xgkwosr3","","p0xgkwosr3","""2024-11-12T18:34:08.519Z""","null","+","null","","","","","","",""
"","","","","","image-keyboard-response","51","86727","0.0-13.0-2.0-1.1","p0xgkwosr3","","p0xgkwosr3","""2024-11-12T18:34:08.519Z""","1304","materials/imgs/D81.png","arrowright","","[""materials/imgs/D105.png"",""materials/imgs/D24.png""]","false","validation","","",""
"","","","","","html-keyboard-response","52","87229","0.0-13.0-0.1-0.7","p0xgkwosr3","","p0xgkwosr3","""2024-11-12T18:34:08.519Z""","null","+","null","","","","","","",""
"","","","","","image-keyboard-response","53","88010","0.0-13.0-0.1-1.7","p0xgkwosr3","","p0xgkwosr3","""2024-11-12T18:34:08.519Z""","780","materials/imgs/D4.png","arrowright","","[""materials/imgs/D55.png"",""materials/imgs/D57.png""]","false","random","","",""
"","","","","","html-keyboard-response","54","88512","0.0-13.0-0.1-0.8","p0xgkwosr3","","p0xgkwosr3","""2024-11-12T18:34:08.519Z""","null","+","null","","","","","","",""
"","","","","","image-keyboard-response","55","90014","0.0-13.0-0.1-1.8","p0xgkwosr3","","p0xgkwosr3","""2024-11-12T18:34:08.519Z""","1501","materials/imgs/D24.png","arrowright","","[""materials/imgs/D19.png"",""materials/imgs/D37.png""]","false","random","","",""
"","","","","","html-keyboard-response","56","90515","0.0-13.0-0.1-0.9","p0xgkwosr3","","p0xgkwosr3","""2024-11-12T18:34:08.519Z""","null","+","null","","","","","","",""
"","","","","","image-keyboard-response","57","91595","0.0-13.0-0.1-1.9","p0xgkwosr3","","p0xgkwosr3","""2024-11-12T18:34:08.519Z""","1077","materials/imgs/D24.png","arrowright","","[""materials/imgs/D102.png"",""materials/imgs/D78.png""]","false","random","","",""
"","","","","","html-keyboard-response","58","92096","0.0-13.0-0.1-0.10","p0xgkwosr3","","p0xgkwosr3","""2024-11-12T18:34:08.519Z""","null","+","null","","","","","","",""
"","","","","","image-keyboard-response","59","93174","0.0-13.0-0.1-1.10","p0xgkwosr3","","p0xgkwosr3","""2024-11-12T18:34:08.519Z""","1075","materials/imgs/D11.png","arrowleft","","[""materials/imgs/D68.png"",""materials/imgs/D53.png""]","false","random","","",""
"","","","","","html-keyboard-response","60","93675","0.0-13.0-0.1-0.11","p0xgkwosr3","","p0xgkwosr3","""2024-11-12T18:34:08.519Z""","null","+","null","","","","","","",""
"","","","","","image-keyboard-response","61","94714","0.0-13.0-0.1-1.11","p0xgkwosr3","","p0xgkwosr3","""2024-11-12T18:34:08.519Z""","1038","materials/imgs/D79.png","arrowright","","[""materials/imgs/D1.png"",""materials/imgs/D9.png""]","false","random","","",""
"","","","","","html-keyboard-response","62","95216","0.0-13.0-0.1-0.12","p0xgkwosr3","","p0xgkwosr3","""2024-11-12T18:34:08.519Z""","null","+","null","","","","","","",""
"","","","","","image-keyboard-response","63","96489","0.0-13.0-0.1-1.12","p0xgkwosr3","","p0xgkwosr3","""2024-11-12T18:34:08.519Z""","1271","materials/imgs/D22.png","arrowright","","[""materials/imgs/D87.png"",""materials/imgs/D92.png""]","false","random","","",""
"","","","","","html-keyboard-response","64","96990","0.0-13.0-0.1-0.13","p0xgkwosr3","","p0xgkwosr3","""2024-11-12T18:34:08.519Z""","null","+","null","","","","","","",""
"","","","","","image-keyboard-response","65","98212","0.0-13.0-0.1-1.13","p0xgkwosr3","","p0xgkwosr3","""2024-11-12T18:34:08.519Z""","1220","materials/imgs/D52.png","arrowleft","","[""materials/imgs/D84.png"",""materials/imgs/D48.png""]","false","random","","",""
"","","","","","html-keyboard-response","66","98714","0.0-13.0-1.1-0.1","p0xgkwosr3","","p0xgkwosr3","""2024-11-12T18:34:08.519Z""","null","+","null","","","","","","",""
"","","","","","image-keyboard-response","67","99471","0.0-13.0-1.1-1.1","p0xgkwosr3","","p0xgkwosr3","""2024-11-12T18:34:08.519Z""","756","materials/imgs/D46.png","arrowleft","","[""materials/imgs/D46.png"",""materials/imgs/D26.png""]","","check","materials/imgs/D46.png","0","true"
"","","","","","html-keyboard-response","68","99972","0.0-13.0-2.1-0.2","p0xgkwosr3","","p0xgkwosr3","""2024-11-12T18:34:08.519Z""","null","+","null","","","","","","",""
"","","","","","image-keyboard-response","69","100660","0.0-13.0-2.1-1.2","p0xgkwosr3","","p0xgkwosr3","""2024-11-12T18:34:08.519Z""","687","materials/imgs/D16.png","arrowleft","","[""materials/imgs/D52.png"",""materials/imgs/D25.png""]","false","validation","","",""
"","","","","","html-keyboard-response","70","101161","0.0-13.0-2.1-0.3","p0xgkwosr3","","p0xgkwosr3","""2024-11-12T18:34:08.519Z""","null","+","null","","","","","","",""
"","","","","","image-keyboard-response","71","101754","0.0-13.0-2.1-1.3","p0xgkwosr3","","p0xgkwosr3","""2024-11-12T18:34:08.519Z""","591","materials/imgs/D53.png","arrowleft","","[""materials/imgs/D77.png"",""materials/imgs/D75.png""]","false","validation","","",""
"","","","","","html-keyboard-response","72","102255","0.0-13.0-0.2-0.14","p0xgkwosr3","","p0xgkwosr3","""2024-11-12T18:34:08.519Z""","null","+","null","","","","","","",""
"","","","","","image-keyboard-response","73","103579","0.0-13.0-0.2-1.14","p0xgkwosr3","","p0xgkwosr3","""2024-11-12T18:34:08.519Z""","1322","materials/imgs/D75.png","arrowleft","","[""materials/imgs/D66.png"",""materials/imgs/D82.png""]","false","random","","",""
"","","","","","html-keyboard-response","74","104080","0.0-13.0-0.2-0.15","p0xgkwosr3","","p0xgkwosr3","""2024-11-12T18:34:08.519Z""","null","+","null","","","","","","",""
"","","","","","image-keyboard-response","75","104923","0.0-13.0-0.2-1.15","p0xgkwosr3","","p0xgkwosr3","""2024-11-12T18:34:08.519Z""","841","materials/imgs/D92.png","arrowleft","","[""materials/imgs/D80.png"",""materials/imgs/D105.png""]","false","random","","",""
"","","","","","html-keyboard-response","76","105425","0.0-13.0-0.2-0.16","p0xgkwosr3","","p0xgkwosr3","""2024-11-12T18:34:08.519Z""","null","+","null","","","","","","",""
"","","","","","image-keyboard-response","77","107040","0.0-13.0-0.2-1.16","p0xgkwosr3","","p0xgkwosr3","""2024-11-12T18:34:08.519Z""","1613","materials/imgs/D85.png","arrowright","","[""materials/imgs/D9.png"",""materials/imgs/D52.png""]","false","random","","",""
"","","","","","html-keyboard-response","78","107541","0.0-13.0-0.2-0.17","p0xgkwosr3","","p0xgkwosr3","""2024-11-12T18:34:08.519Z""","null","+","null","","","","","","",""
"","","","","","image-keyboard-response","79","108258","0.0-13.0-0.2-1.17","p0xgkwosr3","","p0xgkwosr3","""2024-11-12T18:34:08.519Z""","715","materials/imgs/D102.png","arrowright","","[""materials/imgs/D26.png"",""materials/imgs/D21.png""]","false","random","","",""
"","","","","","html-keyboard-response","80","108760","0.0-13.0-0.2-0.18","p0xgkwosr3","","p0xgkwosr3","""2024-11-12T18:34:08.519Z""","null","+","null","","","","","","",""
"","","","","","image-keyboard-response","81","109635","0.0-13.0-0.2-1.18","p0xgkwosr3","","p0xgkwosr3","""2024-11-12T18:34:08.519Z""","873","materials/imgs/D106.png","arrowright","","[""materials/imgs/D46.png"",""materials/imgs/D32.png""]","false","random","","",""
"","","","","","html-keyboard-response","82","110137","0.0-13.0-0.2-0.19","p0xgkwosr3","","p0xgkwosr3","""2024-11-12T18:34:08.519Z""","null","+","null","","","","","","",""
"","","","","","image-keyboard-response","83","110803","0.0-13.0-0.2-1.19","p0xgkwosr3","","p0xgkwosr3","""2024-11-12T18:34:08.519Z""","664","materials/imgs/D57.png","arrowleft","","[""materials/imgs/D80.png"",""materials/imgs/D34.png""]","false","random","","",""
"","","","","","html-keyboard-response","84","111304","0.0-13.0-0.2-0.20","p0xgkwosr3","","p0xgkwosr3","""2024-11-12T18:34:08.519Z""","null","+","null","","","","","","",""
"","","","","","image-keyboard-response","85","112104","0.0-13.0-0.2-1.20","p0xgkwosr3","","p0xgkwosr3","""2024-11-12T18:34:08.519Z""","798","materials/imgs/D3.png","arrowleft","","[""materials/imgs/D24.png"",""materials/imgs/D64.png""]","false","random","","",""
"","","","","","html-keyboard-response","86","112606","0.0-13.0-1.2-0.2","p0xgkwosr3","","p0xgkwosr3","""2024-11-12T18:34:08.519Z""","null","+","null","","","","","","",""
"","","","","","image-keyboard-response","87","113238","0.0-13.0-1.2-1.2","p0xgkwosr3","","p0xgkwosr3","""2024-11-12T18:34:08.519Z""","630","materials/imgs/D46.png","arrowleft","","[""materials/imgs/D46.png"",""materials/imgs/D26.png""]","","check","materials/imgs/D46.png","0","true"
"","","","","","html-keyboard-response","88","113739","0.0-13.0-2.2-0.4","p0xgkwosr3","","p0xgkwosr3","""2024-11-12T18:34:08.519Z""","null","+","null","","","","","","",""
"","","","","","image-keyboard-response","89","115093","0.0-13.0-2.2-1.4","p0xgkwosr3","","p0xgkwosr3","""2024-11-12T18:34:08.519Z""","1352","materials/imgs/D8.png","arrowleft","","[""materials/imgs/D101.png"",""materials/imgs/D52.png""]","false","validation","","",""
"","","","","","html-keyboard-response","90","115594","0.0-13.0-2.2-0.5","p0xgkwosr3","","p0xgkwosr3","""2024-11-12T18:34:08.519Z""","null","+","null","","","","","","",""
"","","","","","image-keyboard-response","91","116482","0.0-13.0-2.2-1.5","p0xgkwosr3","","p0xgkwosr3","""2024-11-12T18:34:08.519Z""","886","materials/imgs/D36.png","arrowright","","[""materials/imgs/D47.png"",""materials/imgs/D49.png""]","false","validation","","",""
"","","","","","html-keyboard-response","92","116982","0.0-13.0-0.3-0.21","p0xgkwosr3","","p0xgkwosr3","""2024-11-12T18:34:08.519Z""","null","+","null","","","","","","",""
"","","","","","image-keyboard-response","93","117609","0.0-13.0-0.3-1.21","p0xgkwosr3","","p0xgkwosr3","""2024-11-12T18:34:08.519Z""","625","materials/imgs/D105.png","arrowleft","","[""materials/imgs/D14.png"",""materials/imgs/D52.png""]","false","random","","",""
"","","","","","html-keyboard-response","94","118110","0.0-13.0-0.3-0.22","p0xgkwosr3","","p0xgkwosr3","""2024-11-12T18:34:08.519Z""","null","+","null","","","","","","",""
"","","","","","image-keyboard-response","95","119110","0.0-13.0-0.3-1.22","p0xgkwosr3","","p0xgkwosr3","""2024-11-12T18:34:08.519Z""","998","materials/imgs/D51.png","arrowright","","[""materials/imgs/D36.png"",""materials/imgs/D35.png""]","false","random","","",""
"","","","","","html-keyboard-response","96","119612","0.0-13.0-0.3-0.23","p0xgkwosr3","","p0xgkwosr3","""2024-11-12T18:34:08.519Z""","null","+","null","","","","","","",""
"","","","","","image-keyboard-response","97","120554","0.0-13.0-0.3-1.23","p0xgkwosr3","","p0xgkwosr3","""2024-11-12T18:34:08.519Z""","941","materials/imgs/D9.png","arrowright","","[""materials/imgs/D52.png"",""materials/imgs/D19.png""]","false","random","","",""
"","","","","","html-keyboard-response","98","121056","0.0-13.0-0.3-0.24","p0xgkwosr3","","p0xgkwosr3","""2024-11-12T18:34:08.519Z""","null","+","null","","","","","","",""
"","","","","","image-keyboard-response","99","121824","0.0-13.0-0.3-1.24","p0xgkwosr3","","p0xgkwosr3","""2024-11-12T18:34:08.519Z""","766","materials/imgs/D9.png","arrowleft","","[""materials/imgs/D57.png"",""materials/imgs/D55.png""]","false","random","","",""
"","","","","","html-keyboard-response","100","122326","0.0-13.0-0.3-0.25","p0xgkwosr3","","p0xgkwosr3","""2024-11-12T18:34:08.519Z""","null","+","null","","","","","","",""
"","","","","","image-keyboard-response","101","123352","0.0-13.0-0.3-1.25","p0xgkwosr3","","p0xgkwosr3","""2024-11-12T18:34:08.519Z""","1025","materials/imgs/D95.png","arrowright","","[""materials/imgs/D4.png"",""materials/imgs/D64.png""]","false","random","","",""
"","","","","","html-keyboard-response","102","123852","0.0-13.0-0.3-0.26","p0xgkwosr3","","p0xgkwosr3","""2024-11-12T18:34:08.519Z""","null","+","null","","","","","","",""
"","","","","","image-keyboard-response","103","124930","0.0-13.0-0.3-1.26","p0xgkwosr3","","p0xgkwosr3","""2024-11-12T18:34:08.519Z""","1076","materials/imgs/D66.png","arrowright","","[""materials/imgs/D8.png"",""materials/imgs/D83.png""]","false","random","","",""
"","","","","","html-keyboard-response","104","125431","0.0-13.0-0.3-0.27","p0xgkwosr3","","p0xgkwosr3","""2024-11-12T18:34:08.519Z""","null","+","null","","","","","","",""
"","","","","","image-keyboard-response","105","126123","0.0-13.0-0.3-1.27","p0xgkwosr3","","p0xgkwosr3","""2024-11-12T18:34:08.519Z""","690","materials/imgs/D24.png","arrowleft","","[""materials/imgs/D82.png"",""materials/imgs/D83.png""]","false","random","","",""
"","","","","","html-keyboard-response","106","126624","0.0-13.0-1.3-0.3","p0xgkwosr3","","p0xgkwosr3","""2024-11-12T18:34:08.519Z""","null","+","null","","","","","","",""
"","","","","","image-keyboard-response","107","127238","0.0-13.0-1.3-1.3","p0xgkwosr3","","p0xgkwosr3","""2024-11-12T18:34:08.519Z""","613","materials/imgs/D106.png","arrowleft","","[""materials/imgs/D106.png"",""materials/imgs/D101.png""]","","check","materials/imgs/D106.png","0","true"
"","","","","","html-keyboard-response","108","127740","0.0-13.0-2.3-0.6","p0xgkwosr3","","p0xgkwosr3","""2024-11-12T18:34:08.519Z""","null","+","null","","","","","","",""
"","","","","","image-keyboard-response","109","129033","0.0-13.0-2.3-1.6","p0xgkwosr3","","p0xgkwosr3","""2024-11-12T18:34:08.519Z""","1291","materials/imgs/D75.png","arrowleft","","[""materials/imgs/D96.png"",""materials/imgs/D4.png""]","false","validation","","",""
"","","","","","html-keyboard-response","110","129534","0.0-13.0-2.3-0.7","p0xgkwosr3","","p0xgkwosr3","""2024-11-12T18:34:08.519Z""","null","+","null","","","","","","",""
"","","","","","image-keyboard-response","111","130726","0.0-13.0-2.3-1.7","p0xgkwosr3","","p0xgkwosr3","""2024-11-12T18:34:08.519Z""","1191","materials/imgs/D81.png","arrowleft","","[""materials/imgs/D105.png"",""materials/imgs/D24.png""]","false","validation","","",""
"","","","","","html-keyboard-response","112","131227","0.0-13.0-0.4-0.28","p0xgkwosr3","","p0xgkwosr3","""2024-11-12T18:34:08.519Z""","null","+","null","","","","","","",""
"","","","","","image-keyboard-response","113","132235","0.0-13.0-0.4-1.28","p0xgkwosr3","","p0xgkwosr3","""2024-11-12T18:34:08.519Z""","1006","materials/imgs/D37.png","arrowright","","[""materials/imgs/D8.png"",""materials/imgs/D83.png""]","false","random","","",""
"","","","","","html-keyboard-response","114","132737","0.0-13.0-0.4-0.29","p0xgkwosr3","","p0xgkwosr3","""2024-11-12T18:34:08.519Z""","null","+","null","","","","","","",""
"","","","","","image-keyboard-response","115","133759","0.0-13.0-0.4-1.29","p0xgkwosr3","","p0xgkwosr3","""2024-11-12T18:34:08.519Z""","1021","materials/imgs/D94.png","arrowleft","","[""materials/imgs/D65.png"",""materials/imgs/D82.png""]","false","random","","",""
"","","","","","html-keyboard-response","116","134260","0.0-13.0-0.4-0.30","p0xgkwosr3","","p0xgkwosr3","""2024-11-12T18:34:08.519Z""","null","+","null","","","","","","",""
"","","","","","image-keyboard-response","117","135076","0.0-13.0-0.4-1.30","p0xgkwosr3","","p0xgkwosr3","""2024-11-12T18:34:08.519Z""","814","materials/imgs/D79.png","arrowright","","[""materials/imgs/D17.png"",""materials/imgs/D21.png""]","false","random","","",""
"","","","","","html-keyboard-response","118","135578","0.0-13.0-0.4-0.31","p0xgkwosr3","","p0xgkwosr3","""2024-11-12T18:34:08.519Z""","null","+","null","","","","","","",""
"","","","","","image-keyboard-response","119","136944","0.0-13.0-0.4-1.31","p0xgkwosr3","","p0xgkwosr3","""2024-11-12T18:34:08.519Z""","1364","materials/imgs/D87.png","arrowleft","","[""materials/imgs/D83.png"",""materials/imgs/D36.png""]","false","random","","",""
"","","","","","html-keyboard-response","120","137445","0.0-13.0-0.4-0.32","p0xgkwosr3","","p0xgkwosr3","""2024-11-12T18:34:08.519Z""","null","+","null","","","","","","",""
"","","","","","image-keyboard-response","121","138683","0.0-13.0-0.4-1.32","p0xgkwosr3","","p0xgkwosr3","""2024-11-12T18:34:08.519Z""","1236","materials/imgs/D82.png","arrowleft","","[""materials/imgs/D32.png"",""materials/imgs/D106.png""]","false","random","","",""
"","","","","","html-keyboard-response","122","139184","0.0-13.0-0.4-0.33","p0xgkwosr3","","p0xgkwosr3","""2024-11-12T18:34:08.519Z""","null","+","null","","","","","","",""
"","","","","","image-keyboard-response","123","140095","0.0-13.0-0.4-1.33","p0xgkwosr3","","p0xgkwosr3","""2024-11-12T18:34:08.519Z""","908","materials/imgs/D104.png","arrowright","","[""materials/imgs/D35.png"",""materials/imgs/D16.png""]","false","random","","",""
"","","","","","html-keyboard-response","124","140595","0.0-13.0-0.4-0.34","p0xgkwosr3","","p0xgkwosr3","""2024-11-12T18:34:08.519Z""","null","+","null","","","","","","",""
"","","","","","image-keyboard-response","125","141253","0.0-13.0-0.4-1.34","p0xgkwosr3","","p0xgkwosr3","""2024-11-12T18:34:08.519Z""","655","materials/imgs/D96.png","arrowright","","[""materials/imgs/D52.png"",""materials/imgs/D94.png""]","false","random","","",""
"","","","","","html-keyboard-response","126","141754","0.0-13.0-1.4-0.4","p0xgkwosr3","","p0xgkwosr3","""2024-11-12T18:34:08.519Z""","null","+","null","","","","","","",""
"","","","","","image-keyboard-response","127","142361","0.0-13.0-1.4-1.4","p0xgkwosr3","","p0xgkwosr3","""2024-11-12T18:34:08.519Z""","605","materials/imgs/D8.png","arrowright","","[""materials/imgs/D18.png"",""materials/imgs/D8.png""]","","check","materials/imgs/D8.png","1","true"
"","","","","","html-keyboard-response","128","142862","0.0-13.0-2.4-0.8","p0xgkwosr3","","p0xgkwosr3","""2024-11-12T18:34:08.519Z""","null","+","null","","","","","","",""
"","","","","","image-keyboard-response","129","143849","0.0-13.0-2.4-1.8","p0xgkwosr3","","p0xgkwosr3","""2024-11-12T18:34:08.519Z""","985","materials/imgs/D18.png","arrowleft","","[""materials/imgs/D32.png"",""materials/imgs/D57.png""]","false","validation","","",""
"","","","","","html-keyboard-response","130","144351","0.0-13.0-2.4-0.9","p0xgkwosr3","","p0xgkwosr3","""2024-11-12T18:34:08.519Z""","null","+","null","","","","","","",""
"","","","","","image-keyboard-response","131","145369","0.0-13.0-2.4-1.9","p0xgkwosr3","","p0xgkwosr3","""2024-11-12T18:34:08.519Z""","1017","materials/imgs/D32.png","arrowleft","","[""materials/imgs/D68.png"",""materials/imgs/D96.png""]","false","validation","","",""
"","","","","","html-button-response","132","146957","0.0-14.0","p0xgkwosr3","","p0xgkwosr3","""2024-11-12T18:34:08.519Z""","1586","You have completed 25% of the trials. Please click 'Continue' when you are ready proceed.","0","","","","","","",""
"","","","","","html-keyboard-response","133","147458","0.0-15.0-0.0-0.0","p0xgkwosr3","","p0xgkwosr3","""2024-11-12T18:34:08.519Z""","null","+","null","","","","","","",""
"","","","","","image-keyboard-response","134","148134","0.0-15.0-0.0-1.0","p0xgkwosr3","","p0xgkwosr3","""2024-11-12T18:34:08.519Z""","674","materials/imgs/D87.png","arrowright","","[""materials/imgs/D83.png"",""materials/imgs/D52.png""]","false","random","","",""
"","","","","","html-keyboard-response","135","148636","0.0-15.0-0.0-0.1","p0xgkwosr3","","p0xgkwosr3","""2024-11-12T18:34:08.519Z""","null","+","null","","","","","","",""
"","","","","","image-keyboard-response","136","149448","0.0-15.0-0.0-1.1","p0xgkwosr3","","p0xgkwosr3","""2024-11-12T18:34:08.519Z""","810","materials/imgs/D16.png","arrowleft","","[""materials/imgs/D36.png"",""materials/imgs/D4.png""]","false","random","","",""
"","","","","","html-keyboard-response","137","149949","0.0-15.0-0.0-0.2","p0xgkwosr3","","p0xgkwosr3","""2024-11-12T18:34:08.519Z""","null","+","null","","","","","","",""
"","","","","","image-keyboard-response","138","150851","0.0-15.0-0.0-1.2","p0xgkwosr3","","p0xgkwosr3","""2024-11-12T18:34:08.519Z""","891","materials/imgs/D11.png","arrowleft","","[""materials/imgs/D56.png"",""materials/imgs/D82.png""]","false","random","","",""
"","","","","","html-keyboard-response","139","151353","0.0-15.0-0.0-0.3","p0xgkwosr3","","p0xgkwosr3","""2024-11-12T18:34:08.519Z""","null","+","null","","","","","","",""
"","","","","","image-keyboard-response","140","152763","0.0-15.0-0.0-1.3","p0xgkwosr3","","p0xgkwosr3","""2024-11-12T18:34:08.519Z""","1409","materials/imgs/D96.png","arrowright","","[""materials/imgs/D34.png"",""materials/imgs/D111.png""]","false","random","","",""
"","","","","","html-keyboard-response","141","153265","0.0-15.0-0.0-0.4","p0xgkwosr3","","p0xgkwosr3","""2024-11-12T18:34:08.519Z""","null","+","null","","","","","","",""
"","","","","","image-keyboard-response","142","154121","0.0-15.0-0.0-1.4","p0xgkwosr3","","p0xgkwosr3","""2024-11-12T18:34:08.519Z""","855","materials/imgs/D48.png","arrowright","","[""materials/imgs/D66.png"",""materials/imgs/D105.png""]","false","random","","",""
"","","","","","html-keyboard-response","143","154622","0.0-15.0-0.0-0.5","p0xgkwosr3","","p0xgkwosr3","""2024-11-12T18:34:08.519Z""","null","+","null","","","","","","",""
"","","","","","image-keyboard-response","144","155345","0.0-15.0-0.0-1.5","p0xgkwosr3","","p0xgkwosr3","""2024-11-12T18:34:08.519Z""","720","materials/imgs/D103.png","arrowright","","[""materials/imgs/D8.png"",""materials/imgs/D20.png""]","false","random","","",""
"","","","","","html-keyboard-response","145","155846","0.0-15.0-0.0-0.6","p0xgkwosr3","","p0xgkwosr3","""2024-11-12T18:34:08.519Z""","null","+","null","","","","","","",""
"","","","","","image-keyboard-response","146","156975","0.0-15.0-0.0-1.6","p0xgkwosr3","","p0xgkwosr3","""2024-11-12T18:34:08.519Z""","1127","materials/imgs/D96.png","arrowright","","[""materials/imgs/D3.png"",""materials/imgs/D81.png""]","false","random","","",""
"","","","","","html-keyboard-response","147","157476","0.0-15.0-1.0-0.0","p0xgkwosr3","","p0xgkwosr3","""2024-11-12T18:34:08.519Z""","null","+","null","","","","","","",""
"","","","","","image-keyboard-response","148","158040","0.0-15.0-1.0-1.0","p0xgkwosr3","","p0xgkwosr3","""2024-11-12T18:34:08.519Z""","562","materials/imgs/D101.png","arrowright","","[""materials/imgs/D106.png"",""materials/imgs/D101.png""]","","check","materials/imgs/D101.png","1","true"
"","","","","","html-keyboard-response","149","158541","0.0-15.0-2.0-0.0","p0xgkwosr3","","p0xgkwosr3","""2024-11-12T18:34:08.519Z""","null","+","null","","","","","","",""
"","","","","","image-keyboard-response","150","159319","0.0-15.0-2.0-1.0","p0xgkwosr3","","p0xgkwosr3","""2024-11-12T18:34:08.519Z""","777","materials/imgs/D18.png","arrowleft","","[""materials/imgs/D32.png"",""materials/imgs/D57.png""]","false","validation","","",""
"","","","","","html-keyboard-response","151","159821","0.0-15.0-2.0-0.1","p0xgkwosr3","","p0xgkwosr3","""2024-11-12T18:34:08.519Z""","null","+","null","","","","","","",""
"","","","","","image-keyboard-response","152","160604","0.0-15.0-2.0-1.1","p0xgkwosr3","","p0xgkwosr3","""2024-11-12T18:34:08.519Z""","782","materials/imgs/D52.png","arrowleft","","[""materials/imgs/D9.png"",""materials/imgs/D19.png""]","false","validation","","",""
"","","","","","html-keyboard-response","153","161106","0.0-15.0-0.1-0.7","p0xgkwosr3","","p0xgkwosr3","""2024-11-12T18:34:08.519Z""","null","+","null","","","","","","",""
"","","","","","image-keyboard-response","154","161976","0.0-15.0-0.1-1.7","p0xgkwosr3","","p0xgkwosr3","""2024-11-12T18:34:08.519Z""","869","materials/imgs/D21.png","arrowright","","[""materials/imgs/D96.png"",""materials/imgs/D65.png""]","false","random","","",""
"","","","","","html-keyboard-response","155","162478","0.0-15.0-0.1-0.8","p0xgkwosr3","","p0xgkwosr3","""2024-11-12T18:34:08.519Z""","null","+","null","","","","","","",""
"","","","","","image-keyboard-response","156","164243","0.0-15.0-0.1-1.8","p0xgkwosr3","","p0xgkwosr3","""2024-11-12T18:34:08.519Z""","1764","materials/imgs/D18.png","arrowright","","[""materials/imgs/D14.png"",""materials/imgs/D103.png""]","false","random","","",""
"","","","","","html-keyboard-response","157","164745","0.0-15.0-0.1-0.9","p0xgkwosr3","","p0xgkwosr3","""2024-11-12T18:34:08.519Z""","null","+","null","","","","","","",""
"","","","","","image-keyboard-response","158","165400","0.0-15.0-0.1-1.9","p0xgkwosr3","","p0xgkwosr3","""2024-11-12T18:34:08.519Z""","653","materials/imgs/D9.png","arrowleft","","[""materials/imgs/D80.png"",""materials/imgs/D102.png""]","false","random","","",""
"","","","","","html-keyboard-response","159","165902","0.0-15.0-0.1-0.10","p0xgkwosr3","","p0xgkwosr3","""2024-11-12T18:34:08.519Z""","null","+","null","","","","","","",""
"","","","","","image-keyboard-response","160","167655","0.0-15.0-0.1-1.10","p0xgkwosr3","","p0xgkwosr3","""2024-11-12T18:34:08.519Z""","1752","materials/imgs/D35.png","arrowleft","","[""materials/imgs/D17.png"",""materials/imgs/D48.png""]","false","random","","",""
"","","","","","html-keyboard-response","161","168156","0.0-15.0-0.1-0.11","p0xgkwosr3","","p0xgkwosr3","""2024-11-12T18:34:08.519Z""","null","+","null","","","","","","",""
"","","","","","image-keyboard-response","162","168968","0.0-15.0-0.1-1.11","p0xgkwosr3","","p0xgkwosr3","""2024-11-12T18:34:08.519Z""","810","materials/imgs/D79.png","arrowleft","","[""materials/imgs/D34.png"",""materials/imgs/D25.png""]","false","random","","",""
"","","","","","html-keyboard-response","163","169470","0.0-15.0-0.1-0.12","p0xgkwosr3","","p0xgkwosr3","""2024-11-12T18:34:08.519Z""","null","+","null","","","","","","",""
"","","","","","image-keyboard-response","164","170116","0.0-15.0-0.1-1.12","p0xgkwosr3","","p0xgkwosr3","""2024-11-12T18:34:08.519Z""","645","materials/imgs/D105.png","arrowright","","[""materials/imgs/D21.png"",""materials/imgs/D106.png""]","false","random","","",""
"","","","","","html-keyboard-response","165","170617","0.0-15.0-0.1-0.13","p0xgkwosr3","","p0xgkwosr3","""2024-11-12T18:34:08.519Z""","null","+","null","","","","","","",""
"","","","","","image-keyboard-response","166","171395","0.0-15.0-0.1-1.13","p0xgkwosr3","","p0xgkwosr3","""2024-11-12T18:34:08.519Z""","776","materials/imgs/D47.png","arrowright","","[""materials/imgs/D79.png"",""materials/imgs/D87.png""]","false","random","","",""
"","","","","","html-keyboard-response","167","171895","0.0-15.0-1.1-0.1","p0xgkwosr3","","p0xgkwosr3","""2024-11-12T18:34:08.519Z""","null","+","null","","","","","","",""
"","","","","","image-keyboard-response","168","172496","0.0-15.0-1.1-1.1","p0xgkwosr3","","p0xgkwosr3","""2024-11-12T18:34:08.519Z""","599","materials/imgs/D76.png","arrowleft","","[""materials/imgs/D76.png"",""materials/imgs/D78.png""]","","check","materials/imgs/D76.png","0","true"
"","","","","","html-keyboard-response","169","172996","0.0-15.0-2.1-0.2","p0xgkwosr3","","p0xgkwosr3","""2024-11-12T18:34:08.519Z""","null","+","null","","","","","","",""
"","","","","","image-keyboard-response","170","173905","0.0-15.0-2.1-1.2","p0xgkwosr3","","p0xgkwosr3","""2024-11-12T18:34:08.519Z""","907","materials/imgs/D76.png","arrowleft","","[""materials/imgs/D83.png"",""materials/imgs/D6.png""]","false","validation","","",""
"","","","","","html-keyboard-response","171","174406","0.0-15.0-2.1-0.3","p0xgkwosr3","","p0xgkwosr3","""2024-11-12T18:34:08.519Z""","null","+","null","","","","","","",""
"","","","","","image-keyboard-response","172","175872","0.0-15.0-2.1-1.3","p0xgkwosr3","","p0xgkwosr3","""2024-11-12T18:34:08.519Z""","1465","materials/imgs/D79.png","arrowleft","","[""materials/imgs/D51.png"",""materials/imgs/D64.png""]","false","validation","","",""
"","","","","","html-keyboard-response","173","176374","0.0-15.0-0.2-0.14","p0xgkwosr3","","p0xgkwosr3","""2024-11-12T18:34:08.519Z""","null","+","null","","","","","","",""
"","","","","","image-keyboard-response","174","177150","0.0-15.0-0.2-1.14","p0xgkwosr3","","p0xgkwosr3","""2024-11-12T18:34:08.519Z""","774","materials/imgs/D77.png","arrowleft","","[""materials/imgs/D22.png"",""materials/imgs/D18.png""]","false","random","","",""
"","","","","","html-keyboard-response","175","177651","0.0-15.0-0.2-0.15","p0xgkwosr3","","p0xgkwosr3","""2024-11-12T18:34:08.519Z""","null","+","null","","","","","","",""
"","","","","","image-keyboard-response","176","178394","0.0-15.0-0.2-1.15","p0xgkwosr3","","p0xgkwosr3","""2024-11-12T18:34:08.519Z""","742","materials/imgs/D57.png","arrowleft","","[""materials/imgs/D14.png"",""materials/imgs/D65.png""]","false","random","","",""
"","","","","","html-keyboard-response","177","178896","0.0-15.0-0.2-0.16","p0xgkwosr3","","p0xgkwosr3","""2024-11-12T18:34:08.519Z""","null","+","null","","","","","","",""
"","","","","","image-keyboard-response","178","180264","0.0-15.0-0.2-1.16","p0xgkwosr3","","p0xgkwosr3","""2024-11-12T18:34:08.519Z""","1366","materials/imgs/D48.png","arrowright","","[""materials/imgs/D84.png"",""materials/imgs/D11.png""]","false","random","","",""
"","","","","","html-keyboard-response","179","180765","0.0-15.0-0.2-0.17","p0xgkwosr3","","p0xgkwosr3","""2024-11-12T18:34:08.519Z""","null","+","null","","","","","","",""
"","","","","","image-keyboard-response","180","181782","0.0-15.0-0.2-1.17","p0xgkwosr3","","p0xgkwosr3","""2024-11-12T18:34:08.519Z""","1015","materials/imgs/D64.png","arrowright","","[""materials/imgs/D48.png"",""materials/imgs/D78.png""]","false","random","","",""
"","","","","","html-keyboard-response","181","182284","0.0-15.0-0.2-0.18","p0xgkwosr3","","p0xgkwosr3","""2024-11-12T18:34:08.519Z""","null","+","null","","","","","","",""
"","","","","","image-keyboard-response","182","183227","0.0-15.0-0.2-1.18","p0xgkwosr3","","p0xgkwosr3","""2024-11-12T18:34:08.519Z""","942","materials/imgs/D83.png","arrowright","","[""materials/imgs/D74.png"",""materials/imgs/D52.png""]","false","random","","",""
"","","","","","html-keyboard-response","183","183728","0.0-15.0-0.2-0.19","p0xgkwosr3","","p0xgkwosr3","""2024-11-12T18:34:08.519Z""","null","+","null","","","","","","",""
"","","","","","image-keyboard-response","184","184345","0.0-15.0-0.2-1.19","p0xgkwosr3","","p0xgkwosr3","""2024-11-12T18:34:08.519Z""","615","materials/imgs/D16.png","arrowleft","","[""materials/imgs/D52.png"",""materials/imgs/D35.png""]","false","random","","",""
"","","","","","html-keyboard-response","185","184847","0.0-15.0-0.2-0.20","p0xgkwosr3","","p0xgkwosr3","""2024-11-12T18:34:08.519Z""","null","+","null","","","","","","",""
"","","","","","image-keyboard-response","186","186082","0.0-15.0-0.2-1.20","p0xgkwosr3","","p0xgkwosr3","""2024-11-12T18:34:08.519Z""","1234","materials/imgs/D75.png","arrowright","","[""materials/imgs/D92.png"",""materials/imgs/D22.png""]","false","random","","",""
"","","","","","html-keyboard-response","187","186583","0.0-15.0-1.2-0.2","p0xgkwosr3","","p0xgkwosr3","""2024-11-12T18:34:08.519Z""","null","+","null","","","","","","",""
"","","","","","image-keyboard-response","188","187124","0.0-15.0-1.2-1.2","p0xgkwosr3","","p0xgkwosr3","""2024-11-12T18:34:08.519Z""","540","materials/imgs/D18.png","arrowright","","[""materials/imgs/D8.png"",""materials/imgs/D18.png""]","","check","materials/imgs/D18.png","1","true"
"","","","","","html-keyboard-response","189","187626","0.0-15.0-2.2-0.4","p0xgkwosr3","","p0xgkwosr3","""2024-11-12T18:34:08.519Z""","null","+","null","","","","","","",""
"","","","","","image-keyboard-response","190","188549","0.0-15.0-2.2-1.4","p0xgkwosr3","","p0xgkwosr3","""2024-11-12T18:34:08.519Z""","922","materials/imgs/D85.png","arrowleft","","[""materials/imgs/D6.png"",""materials/imgs/D111.png""]","false","validation","","",""
"","","","","","html-keyboard-response","191","189050","0.0-15.0-2.2-0.5","p0xgkwosr3","","p0xgkwosr3","""2024-11-12T18:34:08.519Z""","null","+","null","","","","","","",""
"","","","","","image-keyboard-response","192","189665","0.0-15.0-2.2-1.5","p0xgkwosr3","","p0xgkwosr3","""2024-11-12T18:34:08.519Z""","613","materials/imgs/D105.png","arrowleft","","[""materials/imgs/D106.png"",""materials/imgs/D52.png""]","false","validation","","",""
"","","","","","html-keyboard-response","193","190166","0.0-15.0-0.3-0.21","p0xgkwosr3","","p0xgkwosr3","""2024-11-12T18:34:08.519Z""","null","+","null","","","","","","",""
"","","","","","image-keyboard-response","194","190896","0.0-15.0-0.3-1.21","p0xgkwosr3","","p0xgkwosr3","""2024-11-12T18:34:08.519Z""","728","materials/imgs/D25.png","arrowright","","[""materials/imgs/D56.png"",""materials/imgs/D104.png""]","false","random","","",""
"","","","","","html-keyboard-response","195","191396","0.0-15.0-0.3-0.22","p0xgkwosr3","","p0xgkwosr3","""2024-11-12T18:34:08.519Z""","null","+","null","","","","","","",""
"","","","","","image-keyboard-response","196","193164","0.0-15.0-0.3-1.22","p0xgkwosr3","","p0xgkwosr3","""2024-11-12T18:34:08.519Z""","1766","materials/imgs/D83.png","arrowright","","[""materials/imgs/D3.png"",""materials/imgs/D52.png""]","false","random","","",""
"","","","","","html-keyboard-response","197","193666","0.0-15.0-0.3-0.23","p0xgkwosr3","","p0xgkwosr3","""2024-11-12T18:34:08.519Z""","null","+","null","","","","","","",""
"","","","","","image-keyboard-response","198","194292","0.0-15.0-0.3-1.23","p0xgkwosr3","","p0xgkwosr3","""2024-11-12T18:34:08.519Z""","624","materials/imgs/D65.png","arrowright","","[""materials/imgs/D8.png"",""materials/imgs/D16.png""]","false","random","","",""
"","","","","","html-keyboard-response","199","194793","0.0-15.0-0.3-0.24","p0xgkwosr3","","p0xgkwosr3","""2024-11-12T18:34:08.519Z""","null","+","null","","","","","","",""
"","","","","","image-keyboard-response","200","195854","0.0-15.0-0.3-1.24","p0xgkwosr3","","p0xgkwosr3","""2024-11-12T18:34:08.519Z""","1060","materials/imgs/D35.png","arrowright","","[""materials/imgs/D47.png"",""materials/imgs/D18.png""]","false","random","","",""
"","","","","","html-keyboard-response","201","196355","0.0-15.0-0.3-0.25","p0xgkwosr3","","p0xgkwosr3","""2024-11-12T18:34:08.519Z""","null","+","null","","","","","","",""
"","","","","","image-keyboard-response","202","197528","0.0-15.0-0.3-1.25","p0xgkwosr3","","p0xgkwosr3","""2024-11-12T18:34:08.519Z""","1170","materials/imgs/D52.png","arrowright","","[""materials/imgs/D26.png"",""materials/imgs/D21.png""]","false","random","","",""
"","","","","","html-keyboard-response","203","198028","0.0-15.0-0.3-0.26","p0xgkwosr3","","p0xgkwosr3","""2024-11-12T18:34:08.519Z""","null","+","null","","","","","","",""
"","","","","","image-keyboard-response","204","199609","0.0-15.0-0.3-1.26","p0xgkwosr3","","p0xgkwosr3","""2024-11-12T18:34:08.519Z""","1579","materials/imgs/D19.png","arrowleft","","[""materials/imgs/D34.png"",""materials/imgs/D75.png""]","false","random","","",""
"","","","","","html-keyboard-response","205","200110","0.0-15.0-0.3-0.27","p0xgkwosr3","","p0xgkwosr3","""2024-11-12T18:34:08.519Z""","null","+","null","","","","","","",""
"","","","","","image-keyboard-response","206","200872","0.0-15.0-0.3-1.27","p0xgkwosr3","","p0xgkwosr3","""2024-11-12T18:34:08.519Z""","760","materials/imgs/D106.png","arrowleft","","[""materials/imgs/D87.png"",""materials/imgs/D75.png""]","false","random","","",""
"","","","","","html-keyboard-response","207","201374","0.0-15.0-1.3-0.3","p0xgkwosr3","","p0xgkwosr3","""2024-11-12T18:34:08.519Z""","null","+","null","","","","","","",""
"","","","","","image-keyboard-response","208","202034","0.0-15.0-1.3-1.3","p0xgkwosr3","","p0xgkwosr3","""2024-11-12T18:34:08.519Z""","658","materials/imgs/D78.png","arrowright","","[""materials/imgs/D76.png"",""materials/imgs/D78.png""]","","check","materials/imgs/D78.png","1","true"
"","","","","","html-keyboard-response","209","202535","0.0-15.0-2.3-0.6","p0xgkwosr3","","p0xgkwosr3","""2024-11-12T18:34:08.519Z""","null","+","null","","","","","","",""
"","","","","","image-keyboard-response","210","204732","0.0-15.0-2.3-1.6","p0xgkwosr3","","p0xgkwosr3","""2024-11-12T18:34:08.519Z""","2196","materials/imgs/D56.png","arrowright","","[""materials/imgs/D25.png"",""materials/imgs/D105.png""]","false","validation","","",""
"","","","","","html-keyboard-response","211","205234","0.0-15.0-2.3-0.7","p0xgkwosr3","","p0xgkwosr3","""2024-11-12T18:34:08.519Z""","null","+","null","","","","","","",""
"","","","","","image-keyboard-response","212","205897","0.0-15.0-2.3-1.7","p0xgkwosr3","","p0xgkwosr3","""2024-11-12T18:34:08.519Z""","662","materials/imgs/D32.png","arrowleft","","[""materials/imgs/D68.png"",""materials/imgs/D96.png""]","false","validation","","",""
"","","","","","html-keyboard-response","213","206399","0.0-15.0-0.4-0.28","p0xgkwosr3","","p0xgkwosr3","""2024-11-12T18:34:08.519Z""","null","+","null","","","","","","",""
"","","","","","image-keyboard-response","214","207106","0.0-15.0-0.4-1.28","p0xgkwosr3","","p0xgkwosr3","""2024-11-12T18:34:08.519Z""","706","materials/imgs/D22.png","arrowright","","[""materials/imgs/D105.png"",""materials/imgs/D3.png""]","false","random","","",""
"","","","","","html-keyboard-response","215","207608","0.0-15.0-0.4-0.29","p0xgkwosr3","","p0xgkwosr3","""2024-11-12T18:34:08.519Z""","null","+","null","","","","","","",""
"","","","","","image-keyboard-response","216","208315","0.0-15.0-0.4-1.29","p0xgkwosr3","","p0xgkwosr3","""2024-11-12T18:34:08.519Z""","705","materials/imgs/D17.png","arrowleft","","[""materials/imgs/D24.png"",""materials/imgs/D32.png""]","false","random","","",""
"","","","","","html-keyboard-response","217","208816","0.0-15.0-0.4-0.30","p0xgkwosr3","","p0xgkwosr3","""2024-11-12T18:34:08.519Z""","null","+","null","","","","","","",""
"","","","","","image-keyboard-response","218","209380","0.0-15.0-0.4-1.30","p0xgkwosr3","","p0xgkwosr3","""2024-11-12T18:34:08.519Z""","563","materials/imgs/D56.png","arrowright","","[""materials/imgs/D29.png"",""materials/imgs/D101.png""]","false","random","","",""
"","","","","","html-keyboard-response","219","209882","0.0-15.0-0.4-0.31","p0xgkwosr3","","p0xgkwosr3","""2024-11-12T18:34:08.519Z""","null","+","null","","","","","","",""
"","","","","","image-keyboard-response","220","211123","0.0-15.0-0.4-1.31","p0xgkwosr3","","p0xgkwosr3","""2024-11-12T18:34:08.519Z""","1240","materials/imgs/D24.png","arrowleft","","[""materials/imgs/D87.png"",""materials/imgs/D103.png""]","false","random","","",""
"","","","","","html-keyboard-response","221","211625","0.0-15.0-0.4-0.32","p0xgkwosr3","","p0xgkwosr3","""2024-11-12T18:34:08.519Z""","null","+","null","","","","","","",""
"","","","","","image-keyboard-response","222","212386","0.0-15.0-0.4-1.32","p0xgkwosr3","","p0xgkwosr3","""2024-11-12T18:34:08.519Z""","759","materials/imgs/D76.png","arrowleft","","[""materials/imgs/D9.png"",""materials/imgs/D64.png""]","false","random","","",""
"","","","","","html-keyboard-response","223","212888","0.0-15.0-0.4-0.33","p0xgkwosr3","","p0xgkwosr3","""2024-11-12T18:34:08.519Z""","null","+","null","","","","","","",""
"","","","","","image-keyboard-response","224","214172","0.0-15.0-0.4-1.33","p0xgkwosr3","","p0xgkwosr3","""2024-11-12T18:34:08.519Z""","1282","materials/imgs/D82.png","arrowleft","","[""materials/imgs/D101.png"",""materials/imgs/D83.png""]","false","random","","",""
"","","","","","html-keyboard-response","225","214673","0.0-15.0-0.4-0.34","p0xgkwosr3","","p0xgkwosr3","""2024-11-12T18:34:08.519Z""","null","+","null","","","","","","",""
"","","","","","image-keyboard-response","226","215352","0.0-15.0-0.4-1.34","p0xgkwosr3","","p0xgkwosr3","""2024-11-12T18:34:08.519Z""","678","materials/imgs/D1.png","arrowright","","[""materials/imgs/D9.png"",""materials/imgs/D65.png""]","false","random","","",""
"","","","","","html-keyboard-response","227","215854","0.0-15.0-1.4-0.4","p0xgkwosr3","","p0xgkwosr3","""2024-11-12T18:34:08.519Z""","null","+","null","","","","","","",""
"","","","","","image-keyboard-response","228","216400","0.0-15.0-1.4-1.4","p0xgkwosr3","","p0xgkwosr3","""2024-11-12T18:34:08.519Z""","545","materials/imgs/D76.png","arrowleft","","[""materials/imgs/D76.png"",""materials/imgs/D78.png""]","","check","materials/imgs/D76.png","0","true"
"","","","","","html-keyboard-response","229","216901","0.0-15.0-2.4-0.8","p0xgkwosr3","","p0xgkwosr3","""2024-11-12T18:34:08.519Z""","null","+","null","","","","","","",""
"","","","","","image-keyboard-response","230","217866","0.0-15.0-2.4-1.8","p0xgkwosr3","","p0xgkwosr3","""2024-11-12T18:34:08.519Z""","963","materials/imgs/D56.png","arrowright","","[""materials/imgs/D25.png"",""materials/imgs/D105.png""]","false","validation","","",""
"","","","","","html-keyboard-response","231","218367","0.0-15.0-2.4-0.9","p0xgkwosr3","","p0xgkwosr3","""2024-11-12T18:34:08.519Z""","null","+","null","","","","","","",""
"","","","","","image-keyboard-response","232","219509","0.0-15.0-2.4-1.9","p0xgkwosr3","","p0xgkwosr3","""2024-11-12T18:34:08.519Z""","1140","materials/imgs/D49.png","arrowright","","[""materials/imgs/D8.png"",""materials/imgs/D101.png""]","false","validation","","",""
"","","","","","html-button-response","233","220804","0.0-16.0","p0xgkwosr3","","p0xgkwosr3","""2024-11-12T18:34:08.519Z""","1295","You have completed 50% of the trials. Please click 'Continue' when you are ready proceed.","0","","","","","","",""
"","","","","","html-keyboard-response","234","221306","0.0-17.0-0.0-0.0","p0xgkwosr3","","p0xgkwosr3","""2024-11-12T18:34:08.519Z""","null","+","null","","","","","","",""
"","","","","","image-keyboard-response","235","221827","0.0-17.0-0.0-1.0","p0xgkwosr3","","p0xgkwosr3","""2024-11-12T18:34:08.519Z""","520","materials/imgs/D49.png","arrowright","","[""materials/imgs/D95.png"",""materials/imgs/D21.png""]","false","random","","",""
"","","","","","html-keyboard-response","236","222328","0.0-17.0-0.0-0.1","p0xgkwosr3","","p0xgkwosr3","""2024-11-12T18:34:08.519Z""","null","+","null","","","","","","",""
"","","","","","image-keyboard-response","237","222863","0.0-17.0-0.0-1.1","p0xgkwosr3","","p0xgkwosr3","""2024-11-12T18:34:08.519Z""","533","materials/imgs/D79.png","arrowleft","","[""materials/imgs/D105.png"",""materials/imgs/D17.png""]","false","random","","",""
"","","","","","html-keyboard-response","238","223364","0.0-17.0-0.0-0.2","p0xgkwosr3","","p0xgkwosr3","""2024-11-12T18:34:08.519Z""","null","+","null","","","","","","",""
"","","","","","image-keyboard-response","239","224512","0.0-17.0-0.0-1.2","p0xgkwosr3","","p0xgkwosr3","""2024-11-12T18:34:08.519Z""","1146","materials/imgs/D35.png","arrowleft","","[""materials/imgs/D47.png"",""materials/imgs/D46.png""]","false","random","","",""
"","","","","","html-keyboard-response","240","225014","0.0-17.0-0.0-0.3","p0xgkwosr3","","p0xgkwosr3","""2024-11-12T18:34:08.519Z""","null","+","null","","","","","","",""
"","","","","","image-keyboard-response","241","225989","0.0-17.0-0.0-1.3","p0xgkwosr3","","p0xgkwosr3","""2024-11-12T18:34:08.519Z""","973","materials/imgs/D101.png","arrowright","","[""materials/imgs/D94.png"",""materials/imgs/D46.png""]","false","random","","",""
"","","","","","html-keyboard-response","242","226490","0.0-17.0-0.0-0.4","p0xgkwosr3","","p0xgkwosr3","""2024-11-12T18:34:08.519Z""","null","+","null","","","","","","",""
"","","","","","image-keyboard-response","243","227362","0.0-17.0-0.0-1.4","p0xgkwosr3","","p0xgkwosr3","""2024-11-12T18:34:08.519Z""","870","materials/imgs/D96.png","arrowright","","[""materials/imgs/D1.png"",""materials/imgs/D95.png""]","false","random","","",""
"","","","","","html-keyboard-response","244","227863","0.0-17.0-0.0-0.5","p0xgkwosr3","","p0xgkwosr3","""2024-11-12T18:34:08.519Z""","null","+","null","","","","","","",""
"","","","","","image-keyboard-response","245","229655","0.0-17.0-0.0-1.5","p0xgkwosr3","","p0xgkwosr3","""2024-11-12T18:34:08.519Z""","1790","materials/imgs/D25.png","arrowleft","","[""materials/imgs/D83.png"",""materials/imgs/D46.png""]","false","random","","",""
"","","","","","html-keyboard-response","246","230157","0.0-17.0-0.0-0.6","p0xgkwosr3","","p0xgkwosr3","""2024-11-12T18:34:08.519Z""","null","+","null","","","","","","",""
"","","","","","image-keyboard-response","247","231440","0.0-17.0-0.0-1.6","p0xgkwosr3","","p0xgkwosr3","""2024-11-12T18:34:08.519Z""","1281","materials/imgs/D74.png","arrowleft","","[""materials/imgs/D52.png"",""materials/imgs/D16.png""]","false","random","","",""
"","","","","","html-keyboard-response","248","231941","0.0-17.0-1.0-0.0","p0xgkwosr3","","p0xgkwosr3","""2024-11-12T18:34:08.519Z""","null","+","null","","","","","","",""
"","","","","","image-keyboard-response","249","232552","0.0-17.0-1.0-1.0","p0xgkwosr3","","p0xgkwosr3","""2024-11-12T18:34:08.519Z""","610","materials/imgs/D8.png","arrowright","","[""materials/imgs/D18.png"",""materials/imgs/D8.png""]","","check","materials/imgs/D8.png","1","true"
"","","","","","html-keyboard-response","250","233054","0.0-17.0-2.0-0.0","p0xgkwosr3","","p0xgkwosr3","""2024-11-12T18:34:08.519Z""","null","+","null","","","","","","",""
"","","","","","image-keyboard-response","251","233570","0.0-17.0-2.0-1.0","p0xgkwosr3","","p0xgkwosr3","""2024-11-12T18:34:08.519Z""","515","materials/imgs/D57.png","arrowright","","[""materials/imgs/D111.png"",""materials/imgs/D4.png""]","false","validation","","",""
"","","","","","html-keyboard-response","252","234071","0.0-17.0-2.0-0.1","p0xgkwosr3","","p0xgkwosr3","""2024-11-12T18:34:08.519Z""","null","+","null","","","","","","",""
"","","","","","image-keyboard-response","253","234963","0.0-17.0-2.0-1.1","p0xgkwosr3","","p0xgkwosr3","""2024-11-12T18:34:08.519Z""","891","materials/imgs/D77.png","arrowright","","[""materials/imgs/D102.png"",""materials/imgs/D65.png""]","false","validation","","",""
"","","","","","html-keyboard-response","254","235465","0.0-17.0-0.1-0.7","p0xgkwosr3","","p0xgkwosr3","""2024-11-12T18:34:08.519Z""","null","+","null","","","","","","",""
"","","","","","image-keyboard-response","255","236079","0.0-17.0-0.1-1.7","p0xgkwosr3","","p0xgkwosr3","""2024-11-12T18:34:08.519Z""","612","materials/imgs/D106.png","arrowleft","","[""materials/imgs/D84.png"",""materials/imgs/D64.png""]","false","random","","",""
"","","","","","html-keyboard-response","256","236580","0.0-17.0-0.1-0.8","p0xgkwosr3","","p0xgkwosr3","""2024-11-12T18:34:08.519Z""","null","+","null","","","","","","",""
"","","","","","image-keyboard-response","257","237703","0.0-17.0-0.1-1.8","p0xgkwosr3","","p0xgkwosr3","""2024-11-12T18:34:08.519Z""","1121","materials/imgs/D56.png","arrowright","","[""materials/imgs/D84.png"",""materials/imgs/D81.png""]","false","random","","",""
"","","","","","html-keyboard-response","258","238205","0.0-17.0-0.1-0.9","p0xgkwosr3","","p0xgkwosr3","""2024-11-12T18:34:08.519Z""","null","+","null","","","","","","",""
"","","","","","image-keyboard-response","259","238817","0.0-17.0-0.1-1.9","p0xgkwosr3","","p0xgkwosr3","""2024-11-12T18:34:08.519Z""","610","materials/imgs/D19.png","arrowleft","","[""materials/imgs/D106.png"",""materials/imgs/D77.png""]","false","random","","",""
"","","","","","html-keyboard-response","260","239318","0.0-17.0-0.1-0.10","p0xgkwosr3","","p0xgkwosr3","""2024-11-12T18:34:08.519Z""","null","+","null","","","","","","",""
"","","","","","image-keyboard-response","261","240003","0.0-17.0-0.1-1.10","p0xgkwosr3","","p0xgkwosr3","""2024-11-12T18:34:08.519Z""","683","materials/imgs/D34.png","arrowleft","","[""materials/imgs/D24.png"",""materials/imgs/D46.png""]","false","random","","",""
"","","","","","html-keyboard-response","262","240505","0.0-17.0-0.1-0.11","p0xgkwosr3","","p0xgkwosr3","""2024-11-12T18:34:08.519Z""","null","+","null","","","","","","",""
"","","","","","image-keyboard-response","263","241127","0.0-17.0-0.1-1.11","p0xgkwosr3","","p0xgkwosr3","""2024-11-12T18:34:08.519Z""","621","materials/imgs/D24.png","arrowleft","","[""materials/imgs/D79.png"",""materials/imgs/D101.png""]","false","random","","",""
"","","","","","html-keyboard-response","264","241629","0.0-17.0-0.1-0.12","p0xgkwosr3","","p0xgkwosr3","""2024-11-12T18:34:08.519Z""","null","+","null","","","","","","",""
"","","","","","image-keyboard-response","265","242586","0.0-17.0-0.1-1.12","p0xgkwosr3","","p0xgkwosr3","""2024-11-12T18:34:08.519Z""","955","materials/imgs/D21.png","arrowright","","[""materials/imgs/D48.png"",""materials/imgs/D105.png""]","false","random","","",""
"","","","","","html-keyboard-response","266","243087","0.0-17.0-0.1-0.13","p0xgkwosr3","","p0xgkwosr3","""2024-11-12T18:34:08.519Z""","null","+","null","","","","","","",""
"","","","","","image-keyboard-response","267","244212","0.0-17.0-0.1-1.13","p0xgkwosr3","","p0xgkwosr3","""2024-11-12T18:34:08.519Z""","1123","materials/imgs/D20.png","arrowleft","","[""materials/imgs/D101.png"",""materials/imgs/D84.png""]","false","random","","",""
"","","","","","html-keyboard-response","268","244714","0.0-17.0-1.1-0.1","p0xgkwosr3","","p0xgkwosr3","""2024-11-12T18:34:08.519Z""","null","+","null","","","","","","",""
"","","","","","image-keyboard-response","269","245260","0.0-17.0-1.1-1.1","p0xgkwosr3","","p0xgkwosr3","""2024-11-12T18:34:08.519Z""","545","materials/imgs/D64.png","arrowleft","","[""materials/imgs/D64.png"",""materials/imgs/D53.png""]","","check","materials/imgs/D64.png","0","true"
"","","","","","html-keyboard-response","270","245761","0.0-17.0-2.1-0.2","p0xgkwosr3","","p0xgkwosr3","""2024-11-12T18:34:08.519Z""","null","+","null","","","","","","",""
"","","","","","image-keyboard-response","271","247331","0.0-17.0-2.1-1.2","p0xgkwosr3","","p0xgkwosr3","""2024-11-12T18:34:08.519Z""","1569","materials/imgs/D22.png","arrowleft","","[""materials/imgs/D4.png"",""materials/imgs/D25.png""]","false","validation","","",""
"","","","","","html-keyboard-response","272","247832","0.0-17.0-2.1-0.3","p0xgkwosr3","","p0xgkwosr3","""2024-11-12T18:34:08.519Z""","null","+","null","","","","","","",""
"","","","","","image-keyboard-response","273","248839","0.0-17.0-2.1-1.3","p0xgkwosr3","","p0xgkwosr3","""2024-11-12T18:34:08.519Z""","1005","materials/imgs/D66.png","arrowleft","","[""materials/imgs/D85.png"",""materials/imgs/D25.png""]","false","validation","","",""
"","","","","","html-keyboard-response","274","249339","0.0-17.0-0.2-0.14","p0xgkwosr3","","p0xgkwosr3","""2024-11-12T18:34:08.519Z""","null","+","null","","","","","","",""
"","","","","","image-keyboard-response","275","250022","0.0-17.0-0.2-1.14","p0xgkwosr3","","p0xgkwosr3","""2024-11-12T18:34:08.519Z""","681","materials/imgs/D3.png","arrowleft","","[""materials/imgs/D9.png"",""materials/imgs/D64.png""]","false","random","","",""
"","","","","","html-keyboard-response","276","250523","0.0-17.0-0.2-0.15","p0xgkwosr3","","p0xgkwosr3","""2024-11-12T18:34:08.519Z""","null","+","null","","","","","","",""
"","","","","","image-keyboard-response","277","251434","0.0-17.0-0.2-1.15","p0xgkwosr3","","p0xgkwosr3","""2024-11-12T18:34:08.519Z""","909","materials/imgs/D75.png","arrowright","","[""materials/imgs/D79.png"",""materials/imgs/D35.png""]","false","random","","",""
"","","","","","html-keyboard-response","278","251935","0.0-17.0-0.2-0.16","p0xgkwosr3","","p0xgkwosr3","""2024-11-12T18:34:08.519Z""","null","+","null","","","","","","",""
"","","","","","image-keyboard-response","279","252575","0.0-17.0-0.2-1.16","p0xgkwosr3","","p0xgkwosr3","""2024-11-12T18:34:08.519Z""","638","materials/imgs/D106.png","arrowleft","","[""materials/imgs/D9.png"",""materials/imgs/D56.png""]","false","random","","",""
"","","","","","html-keyboard-response","280","253076","0.0-17.0-0.2-0.17","p0xgkwosr3","","p0xgkwosr3","""2024-11-12T18:34:08.519Z""","null","+","null","","","","","","",""
"","","","","","image-keyboard-response","281","253732","0.0-17.0-0.2-1.17","p0xgkwosr3","","p0xgkwosr3","""2024-11-12T18:34:08.519Z""","654","materials/imgs/D17.png","arrowright","","[""materials/imgs/D76.png"",""materials/imgs/D106.png""]","false","random","","",""
"","","","","","html-keyboard-response","282","254232","0.0-17.0-0.2-0.18","p0xgkwosr3","","p0xgkwosr3","""2024-11-12T18:34:08.519Z""","null","+","null","","","","","","",""
"","","","","","image-keyboard-response","283","255491","0.0-17.0-0.2-1.18","p0xgkwosr3","","p0xgkwosr3","""2024-11-12T18:34:08.519Z""","1257","materials/imgs/D105.png","arrowleft","","[""materials/imgs/D85.png"",""materials/imgs/D3.png""]","false","random","","",""
"","","","","","html-keyboard-response","284","255993","0.0-17.0-0.2-0.19","p0xgkwosr3","","p0xgkwosr3","""2024-11-12T18:34:08.519Z""","null","+","null","","","","","","",""
"","","","","","image-keyboard-response","285","257078","0.0-17.0-0.2-1.19","p0xgkwosr3","","p0xgkwosr3","""2024-11-12T18:34:08.519Z""","1083","materials/imgs/D19.png","arrowright","","[""materials/imgs/D76.png"",""materials/imgs/D1.png""]","false","random","","",""
"","","","","","html-keyboard-response","286","257579","0.0-17.0-0.2-0.20","p0xgkwosr3","","p0xgkwosr3","""2024-11-12T18:34:08.519Z""","null","+","null","","","","","","",""
"","","","","","image-keyboard-response","287","258382","0.0-17.0-0.2-1.20","p0xgkwosr3","","p0xgkwosr3","""2024-11-12T18:34:08.519Z""","801","materials/imgs/D9.png","arrowright","","[""materials/imgs/D20.png"",""materials/imgs/D14.png""]","false","random","","",""
"","","","","","html-keyboard-response","288","258883","0.0-17.0-1.2-0.2","p0xgkwosr3","","p0xgkwosr3","""2024-11-12T18:34:08.519Z""","null","+","null","","","","","","",""
"","","","","","image-keyboard-response","289","259445","0.0-17.0-1.2-1.2","p0xgkwosr3","","p0xgkwosr3","""2024-11-12T18:34:08.519Z""","560","materials/imgs/D78.png","arrowright","","[""materials/imgs/D76.png"",""materials/imgs/D78.png""]","","check","materials/imgs/D78.png","1","true"
"","","","","","html-keyboard-response","290","259946","0.0-17.0-2.2-0.4","p0xgkwosr3","","p0xgkwosr3","""2024-11-12T18:34:08.519Z""","null","+","null","","","","","","",""
"","","","","","image-keyboard-response","291","261216","0.0-17.0-2.2-1.4","p0xgkwosr3","","p0xgkwosr3","""2024-11-12T18:34:08.519Z""","1268","materials/imgs/D95.png","arrowright","","[""materials/imgs/D36.png"",""materials/imgs/D4.png""]","false","validation","","",""
"","","","","","html-keyboard-response","292","261717","0.0-17.0-2.2-0.5","p0xgkwosr3","","p0xgkwosr3","""2024-11-12T18:34:08.519Z""","null","+","null","","","","","","",""
"","","","","","image-keyboard-response","293","262640","0.0-17.0-2.2-1.5","p0xgkwosr3","","p0xgkwosr3","""2024-11-12T18:34:08.519Z""","922","materials/imgs/D22.png","arrowleft","","[""materials/imgs/D4.png"",""materials/imgs/D25.png""]","false","validation","","",""
"","","","","","html-keyboard-response","294","263141","0.0-17.0-0.3-0.21","p0xgkwosr3","","p0xgkwosr3","""2024-11-12T18:34:08.519Z""","null","+","null","","","","","","",""
"","","","","","image-keyboard-response","295","264133","0.0-17.0-0.3-1.21","p0xgkwosr3","","p0xgkwosr3","""2024-11-12T18:34:08.519Z""","990","materials/imgs/D102.png","arrowright","","[""materials/imgs/D16.png"",""materials/imgs/D85.png""]","false","random","","",""
"","","","","","html-keyboard-response","296","264634","0.0-17.0-0.3-0.22","p0xgkwosr3","","p0xgkwosr3","""2024-11-12T18:34:08.519Z""","null","+","null","","","","","","",""
"","","","","","image-keyboard-response","297","265271","0.0-17.0-0.3-1.22","p0xgkwosr3","","p0xgkwosr3","""2024-11-12T18:34:08.519Z""","635","materials/imgs/D14.png","arrowleft","","[""materials/imgs/D103.png"",""materials/imgs/D46.png""]","false","random","","",""
"","","","","","html-keyboard-response","298","265772","0.0-17.0-0.3-0.23","p0xgkwosr3","","p0xgkwosr3","""2024-11-12T18:34:08.519Z""","null","+","null","","","","","","",""
"","","","","","image-keyboard-response","299","266947","0.0-17.0-0.3-1.23","p0xgkwosr3","","p0xgkwosr3","""2024-11-12T18:34:08.519Z""","1173","materials/imgs/D76.png","arrowright","","[""materials/imgs/D55.png"",""materials/imgs/D46.png""]","false","random","","",""
"","","","","","html-keyboard-response","300","267448","0.0-17.0-0.3-0.24","p0xgkwosr3","","p0xgkwosr3","""2024-11-12T18:34:08.519Z""","null","+","null","","","","","","",""
"","","","","","image-keyboard-response","301","268040","0.0-17.0-0.3-1.24","p0xgkwosr3","","p0xgkwosr3","""2024-11-12T18:34:08.519Z""","591","materials/imgs/D49.png","arrowright","","[""materials/imgs/D25.png"",""materials/imgs/D14.png""]","false","random","","",""
"","","","","","html-keyboard-response","302","268541","0.0-17.0-0.3-0.25","p0xgkwosr3","","p0xgkwosr3","""2024-11-12T18:34:08.519Z""","null","+","null","","","","","","",""
"","","","","","image-keyboard-response","303","269259","0.0-17.0-0.3-1.25","p0xgkwosr3","","p0xgkwosr3","""2024-11-12T18:34:08.519Z""","707","materials/imgs/D77.png","arrowleft","","[""materials/imgs/D14.png"",""materials/imgs/D80.png""]","false","random","","",""
"","","","","","html-keyboard-response","304","269760","0.0-17.0-0.3-0.26","p0xgkwosr3","","p0xgkwosr3","""2024-11-12T18:34:08.519Z""","null","+","null","","","","","","",""
"","","","","","image-keyboard-response","305","270533","0.0-17.0-0.3-1.26","p0xgkwosr3","","p0xgkwosr3","""2024-11-12T18:34:08.519Z""","772","materials/imgs/D17.png","arrowright","","[""materials/imgs/D25.png"",""materials/imgs/D52.png""]","false","random","","",""
"","","","","","html-keyboard-response","306","271035","0.0-17.0-0.3-0.27","p0xgkwosr3","","p0xgkwosr3","""2024-11-12T18:34:08.519Z""","null","+","null","","","","","","",""
"","","","","","image-keyboard-response","307","272092","0.0-17.0-0.3-1.27","p0xgkwosr3","","p0xgkwosr3","""2024-11-12T18:34:08.519Z""","1056","materials/imgs/D76.png","arrowright","","[""materials/imgs/D20.png"",""materials/imgs/D3.png""]","false","random","","",""
"","","","","","html-keyboard-response","308","272594","0.0-17.0-1.3-0.3","p0xgkwosr3","","p0xgkwosr3","""2024-11-12T18:34:08.519Z""","null","+","null","","","","","","",""
"","","","","","image-keyboard-response","309","273083","0.0-17.0-1.3-1.3","p0xgkwosr3","","p0xgkwosr3","""2024-11-12T18:34:08.519Z""","488","materials/imgs/D101.png","arrowright","","[""materials/imgs/D106.png"",""materials/imgs/D101.png""]","","check","materials/imgs/D101.png","1","true"
"","","","","","html-keyboard-response","310","273584","0.0-17.0-2.3-0.6","p0xgkwosr3","","p0xgkwosr3","""2024-11-12T18:34:08.519Z""","null","+","null","","","","","","",""
"","","","","","image-keyboard-response","311","274506","0.0-17.0-2.3-1.6","p0xgkwosr3","","p0xgkwosr3","""2024-11-12T18:34:08.519Z""","921","materials/imgs/D64.png","arrowright","","[""materials/imgs/D6.png"",""materials/imgs/D81.png""]","false","validation","","",""
"","","","","","html-keyboard-response","312","275007","0.0-17.0-2.3-0.7","p0xgkwosr3","","p0xgkwosr3","""2024-11-12T18:34:08.519Z""","null","+","null","","","","","","",""
"","","","","","image-keyboard-response","313","276245","0.0-17.0-2.3-1.7","p0xgkwosr3","","p0xgkwosr3","""2024-11-12T18:34:08.519Z""","1237","materials/imgs/D92.png","arrowright","","[""materials/imgs/D56.png"",""materials/imgs/D77.png""]","false","validation","","",""
"","","","","","html-keyboard-response","314","276747","0.0-17.0-0.4-0.28","p0xgkwosr3","","p0xgkwosr3","""2024-11-12T18:34:08.519Z""","null","+","null","","","","","","",""
"","","","","","image-keyboard-response","315","277611","0.0-17.0-0.4-1.28","p0xgkwosr3","","p0xgkwosr3","""2024-11-12T18:34:08.519Z""","863","materials/imgs/D34.png","arrowleft","","[""materials/imgs/D68.png"",""materials/imgs/D55.png""]","false","random","","",""
"","","","","","html-keyboard-response","316","278112","0.0-17.0-0.4-0.29","p0xgkwosr3","","p0xgkwosr3","""2024-11-12T18:34:08.519Z""","null","+","null","","","","","","",""
"","","","","","image-keyboard-response","317","278925","0.0-17.0-0.4-1.29","p0xgkwosr3","","p0xgkwosr3","""2024-11-12T18:34:08.519Z""","811","materials/imgs/D75.png","arrowright","","[""materials/imgs/D80.png"",""materials/imgs/D18.png""]","false","random","","",""
"","","","","","html-keyboard-response","318","279426","0.0-17.0-0.4-0.30","p0xgkwosr3","","p0xgkwosr3","""2024-11-12T18:34:08.519Z""","null","+","null","","","","","","",""
"","","","","","image-keyboard-response","319","280113","0.0-17.0-0.4-1.30","p0xgkwosr3","","p0xgkwosr3","""2024-11-12T18:34:08.519Z""","685","materials/imgs/D75.png","arrowleft","","[""materials/imgs/D18.png"",""materials/imgs/D36.png""]","false","random","","",""
"","","","","","html-keyboard-response","320","280615","0.0-17.0-0.4-0.31","p0xgkwosr3","","p0xgkwosr3","""2024-11-12T18:34:08.519Z""","null","+","null","","","","","","",""
"","","","","","image-keyboard-response","321","281198","0.0-17.0-0.4-1.31","p0xgkwosr3","","p0xgkwosr3","""2024-11-12T18:34:08.519Z""","582","materials/imgs/D1.png","arrowright","","[""materials/imgs/D92.png"",""materials/imgs/D25.png""]","false","random","","",""
"","","","","","html-keyboard-response","322","281700","0.0-17.0-0.4-0.32","p0xgkwosr3","","p0xgkwosr3","""2024-11-12T18:34:08.519Z""","null","+","null","","","","","","",""
"","","","","","image-keyboard-response","323","282481","0.0-17.0-0.4-1.32","p0xgkwosr3","","p0xgkwosr3","""2024-11-12T18:34:08.519Z""","779","materials/imgs/D80.png","arrowright","","[""materials/imgs/D82.png"",""materials/imgs/D94.png""]","false","random","","",""
"","","","","","html-keyboard-response","324","282983","0.0-17.0-0.4-0.33","p0xgkwosr3","","p0xgkwosr3","""2024-11-12T18:34:08.519Z""","null","+","null","","","","","","",""
"","","","","","image-keyboard-response","325","283848","0.0-17.0-0.4-1.33","p0xgkwosr3","","p0xgkwosr3","""2024-11-12T18:34:08.519Z""","864","materials/imgs/D14.png","arrowleft","","[""materials/imgs/D78.png"",""materials/imgs/D87.png""]","false","random","","",""
"","","","","","html-keyboard-response","326","284349","0.0-17.0-0.4-0.34","p0xgkwosr3","","p0xgkwosr3","""2024-11-12T18:34:08.519Z""","null","+","null","","","","","","",""
"","","","","","image-keyboard-response","327","285264","0.0-17.0-0.4-1.34","p0xgkwosr3","","p0xgkwosr3","""2024-11-12T18:34:08.519Z""","913","materials/imgs/D95.png","arrowleft","","[""materials/imgs/D56.png"",""materials/imgs/D29.png""]","false","random","","",""
"","","","","","html-keyboard-response","328","285765","0.0-17.0-1.4-0.4","p0xgkwosr3","","p0xgkwosr3","""2024-11-12T18:34:08.519Z""","null","+","null","","","","","","",""
"","","","","","image-keyboard-response","329","288309","0.0-17.0-1.4-1.4","p0xgkwosr3","","p0xgkwosr3","""2024-11-12T18:34:08.519Z""","2542","materials/imgs/D78.png","arrowright","","[""materials/imgs/D76.png"",""materials/imgs/D78.png""]","","check","materials/imgs/D78.png","1","true"
"","","","","","html-keyboard-response","330","288810","0.0-17.0-2.4-0.8","p0xgkwosr3","","p0xgkwosr3","""2024-11-12T18:34:08.519Z""","null","+","null","","","","","","",""
"","","","","","image-keyboard-response","331","296447","0.0-17.0-2.4-1.8","p0xgkwosr3","","p0xgkwosr3","""2024-11-12T18:34:08.519Z""","7636","materials/imgs/D111.png","arrowleft","","[""materials/imgs/D82.png"",""materials/imgs/D95.png""]","false","validation","","",""
"","","","","","html-keyboard-response","332","296948","0.0-17.0-2.4-0.9","p0xgkwosr3","","p0xgkwosr3","""2024-11-12T18:34:08.519Z""","null","+","null","","","","","","",""
"","","","","","image-keyboard-response","333","298587","0.0-17.0-2.4-1.9","p0xgkwosr3","","p0xgkwosr3","""2024-11-12T18:34:08.519Z""","1638","materials/imgs/D77.png","arrowright","","[""materials/imgs/D102.png"",""materials/imgs/D65.png""]","false","validation","","",""
"","","","","","html-button-response","334","299669","0.0-18.0","p0xgkwosr3","","p0xgkwosr3","""2024-11-12T18:34:08.519Z""","1081","You have completed 75% of the trials. Please click 'Continue' when you are ready proceed.","0","","","","","","",""
"","","","","","html-keyboard-response","335","300171","0.0-19.0-0.0-0.0","p0xgkwosr3","","p0xgkwosr3","""2024-11-12T18:34:08.519Z""","null","+","null","","","","","","",""
"","","","","","image-keyboard-response","336","300698","0.0-19.0-0.0-1.0","p0xgkwosr3","","p0xgkwosr3","""2024-11-12T18:34:08.519Z""","525","materials/imgs/D6.png","arrowleft","","[""materials/imgs/D21.png"",""materials/imgs/D46.png""]","false","random","","",""
"","","","","","html-keyboard-response","337","301199","0.0-19.0-0.0-0.1","p0xgkwosr3","","p0xgkwosr3","""2024-11-12T18:34:08.519Z""","null","+","null","","","","","","",""
"","","","","","image-keyboard-response","338","301927","0.0-19.0-0.0-1.1","p0xgkwosr3","","p0xgkwosr3","""2024-11-12T18:34:08.519Z""","726","materials/imgs/D36.png","arrowleft","","[""materials/imgs/D103.png"",""materials/imgs/D1.png""]","false","random","","",""
"","","","","","html-keyboard-response","339","302428","0.0-19.0-0.0-0.2","p0xgkwosr3","","p0xgkwosr3","""2024-11-12T18:34:08.519Z""","null","+","null","","","","","","",""
"","","","","","image-keyboard-response","340","302979","0.0-19.0-0.0-1.2","p0xgkwosr3","","p0xgkwosr3","""2024-11-12T18:34:08.519Z""","549","materials/imgs/D36.png","arrowright","","[""materials/imgs/D48.png"",""materials/imgs/D4.png""]","false","random","","",""
"","","","","","html-keyboard-response","341","303481","0.0-19.0-0.0-0.3","p0xgkwosr3","","p0xgkwosr3","""2024-11-12T18:34:08.519Z""","null","+","null","","","","","","",""
"","","","","","image-keyboard-response","342","304074","0.0-19.0-0.0-1.3","p0xgkwosr3","","p0xgkwosr3","""2024-11-12T18:34:08.519Z""","591","materials/imgs/D51.png","arrowleft","","[""materials/imgs/D32.png"",""materials/imgs/D101.png""]","false","random","","",""
"","","","","","html-keyboard-response","343","304575","0.0-19.0-0.0-0.4","p0xgkwosr3","","p0xgkwosr3","""2024-11-12T18:34:08.519Z""","null","+","null","","","","","","",""
"","","","","","image-keyboard-response","344","306283","0.0-19.0-0.0-1.4","p0xgkwosr3","","p0xgkwosr3","""2024-11-12T18:34:08.519Z""","1706","materials/imgs/D105.png","arrowright","","[""materials/imgs/D18.png"",""materials/imgs/D25.png""]","false","random","","",""
"","","","","","html-keyboard-response","345","306784","0.0-19.0-0.0-0.5","p0xgkwosr3","","p0xgkwosr3","""2024-11-12T18:34:08.519Z""","null","+","null","","","","","","",""
"","","","","","image-keyboard-response","346","308135","0.0-19.0-0.0-1.5","p0xgkwosr3","","p0xgkwosr3","""2024-11-12T18:34:08.519Z""","1350","materials/imgs/D8.png","arrowleft","","[""materials/imgs/D51.png"",""materials/imgs/D36.png""]","false","random","","",""
"","","","","","html-keyboard-response","347","308637","0.0-19.0-0.0-0.6","p0xgkwosr3","","p0xgkwosr3","""2024-11-12T18:34:08.519Z""","null","+","null","","","","","","",""
"","","","","","image-keyboard-response","348","310446","0.0-19.0-0.0-1.6","p0xgkwosr3","","p0xgkwosr3","""2024-11-12T18:34:08.519Z""","1807","materials/imgs/D52.png","arrowright","","[""materials/imgs/D104.png"",""materials/imgs/D35.png""]","false","random","","",""
"","","","","","html-keyboard-response","349","310947","0.0-19.0-1.0-0.0","p0xgkwosr3","","p0xgkwosr3","""2024-11-12T18:34:08.519Z""","null","+","null","","","","","","",""
"","","","","","image-keyboard-response","350","311459","0.0-19.0-1.0-1.0","p0xgkwosr3","","p0xgkwosr3","""2024-11-12T18:34:08.519Z""","510","materials/imgs/D18.png","arrowright","","[""materials/imgs/D8.png"",""materials/imgs/D18.png""]","","check","materials/imgs/D18.png","1","true"
"","","","","","html-keyboard-response","351","311960","0.0-19.0-2.0-0.0","p0xgkwosr3","","p0xgkwosr3","""2024-11-12T18:34:08.519Z""","null","+","null","","","","","","",""
"","","","","","image-keyboard-response","352","313103","0.0-19.0-2.0-1.0","p0xgkwosr3","","p0xgkwosr3","""2024-11-12T18:34:08.519Z""","1141","materials/imgs/D83.png","arrowleft","","[""materials/imgs/D24.png"",""materials/imgs/D8.png""]","false","validation","","",""
"","","","","","html-keyboard-response","353","313604","0.0-19.0-2.0-0.1","p0xgkwosr3","","p0xgkwosr3","""2024-11-12T18:34:08.519Z""","null","+","null","","","","","","",""
"","","","","","image-keyboard-response","354","315349","0.0-19.0-2.0-1.1","p0xgkwosr3","","p0xgkwosr3","""2024-11-12T18:34:08.519Z""","1743","materials/imgs/D35.png","arrowright","","[""materials/imgs/D83.png"",""materials/imgs/D24.png""]","false","validation","","",""
"","","","","","html-keyboard-response","355","315850","0.0-19.0-0.1-0.7","p0xgkwosr3","","p0xgkwosr3","""2024-11-12T18:34:08.519Z""","null","+","null","","","","","","",""
"","","","","","image-keyboard-response","356","317238","0.0-19.0-0.1-1.7","p0xgkwosr3","","p0xgkwosr3","""2024-11-12T18:34:08.519Z""","1386","materials/imgs/D83.png","arrowright","","[""materials/imgs/D95.png"",""materials/imgs/D104.png""]","false","random","","",""
"","","","","","html-keyboard-response","357","317739","0.0-19.0-0.1-0.8","p0xgkwosr3","","p0xgkwosr3","""2024-11-12T18:34:08.519Z""","null","+","null","","","","","","",""
"","","","","","image-keyboard-response","358","319179","0.0-19.0-0.1-1.8","p0xgkwosr3","","p0xgkwosr3","""2024-11-12T18:34:08.519Z""","1438","materials/imgs/D105.png","arrowleft","","[""materials/imgs/D20.png"",""materials/imgs/D46.png""]","false","random","","",""
"","","","","","html-keyboard-response","359","319680","0.0-19.0-0.1-0.9","p0xgkwosr3","","p0xgkwosr3","""2024-11-12T18:34:08.519Z""","null","+","null","","","","","","",""
"","","","","","image-keyboard-response","360","327774","0.0-19.0-0.1-1.9","p0xgkwosr3","","p0xgkwosr3","""2024-11-12T18:34:08.519Z""","8092","materials/imgs/D29.png","arrowright","","[""materials/imgs/D82.png"",""materials/imgs/D9.png""]","false","random","","",""
"","","","","","html-keyboard-response","361","328275","0.0-19.0-0.1-0.10","p0xgkwosr3","","p0xgkwosr3","""2024-11-12T18:34:08.519Z""","null","+","null","","","","","","",""
"","","","","","image-keyboard-response","362","329156","0.0-19.0-0.1-1.10","p0xgkwosr3","","p0xgkwosr3","""2024-11-12T18:34:08.519Z""","879","materials/imgs/D64.png","arrowright","","[""materials/imgs/D83.png"",""materials/imgs/D56.png""]","false","random","","",""
"","","","","","html-keyboard-response","363","329657","0.0-19.0-0.1-0.11","p0xgkwosr3","","p0xgkwosr3","""2024-11-12T18:34:08.519Z""","null","+","null","","","","","","",""
"","","","","","image-keyboard-response","364","330629","0.0-19.0-0.1-1.11","p0xgkwosr3","","p0xgkwosr3","""2024-11-12T18:34:08.519Z""","971","materials/imgs/D74.png","arrowright","","[""materials/imgs/D106.png"",""materials/imgs/D22.png""]","false","random","","",""
"","","","","","html-keyboard-response","365","331131","0.0-19.0-0.1-0.12","p0xgkwosr3","","p0xgkwosr3","""2024-11-12T18:34:08.519Z""","null","+","null","","","","","","",""
"","","","","","image-keyboard-response","366","332822","0.0-19.0-0.1-1.12","p0xgkwosr3","","p0xgkwosr3","""2024-11-12T18:34:08.519Z""","1691","materials/imgs/D56.png","arrowright","","[""materials/imgs/D6.png"",""materials/imgs/D4.png""]","false","random","","",""
"","","","","","html-keyboard-response","367","333323","0.0-19.0-0.1-0.13","p0xgkwosr3","","p0xgkwosr3","""2024-11-12T18:34:08.519Z""","null","+","null","","","","","","",""
"","","","","","image-keyboard-response","368","333990","0.0-19.0-0.1-1.13","p0xgkwosr3","","p0xgkwosr3","""2024-11-12T18:34:08.519Z""","665","materials/imgs/D96.png","arrowright","","[""materials/imgs/D57.png"",""materials/imgs/D79.png""]","false","random","","",""
"","","","","","html-keyboard-response","369","334491","0.0-19.0-1.1-0.1","p0xgkwosr3","","p0xgkwosr3","""2024-11-12T18:34:08.519Z""","null","+","null","","","","","","",""
"","","","","","image-keyboard-response","370","335108","0.0-19.0-1.1-1.1","p0xgkwosr3","","p0xgkwosr3","""2024-11-12T18:34:08.519Z""","616","materials/imgs/D64.png","arrowleft","","[""materials/imgs/D64.png"",""materials/imgs/D53.png""]","","check","materials/imgs/D64.png","0","true"
"","","","","","html-keyboard-response","371","335609","0.0-19.0-2.1-0.2","p0xgkwosr3","","p0xgkwosr3","""2024-11-12T18:34:08.519Z""","null","+","null","","","","","","",""
"","","","","","image-keyboard-response","372","336806","0.0-19.0-2.1-1.2","p0xgkwosr3","","p0xgkwosr3","""2024-11-12T18:34:08.519Z""","1195","materials/imgs/D65.png","arrowright","","[""materials/imgs/D4.png"",""materials/imgs/D16.png""]","false","validation","","",""
"","","","","","html-keyboard-response","373","337307","0.0-19.0-2.1-0.3","p0xgkwosr3","","p0xgkwosr3","""2024-11-12T18:34:08.519Z""","null","+","null","","","","","","",""
"","","","","","image-keyboard-response","374","338444","0.0-19.0-2.1-1.3","p0xgkwosr3","","p0xgkwosr3","""2024-11-12T18:34:08.519Z""","1136","materials/imgs/D103.png","arrowright","","[""materials/imgs/D76.png"",""materials/imgs/D106.png""]","false","validation","","",""
"","","","","","html-keyboard-response","375","338945","0.0-19.0-0.2-0.14","p0xgkwosr3","","p0xgkwosr3","""2024-11-12T18:34:08.519Z""","null","+","null","","","","","","",""
"","","","","","image-keyboard-response","376","339683","0.0-19.0-0.2-1.14","p0xgkwosr3","","p0xgkwosr3","""2024-11-12T18:34:08.519Z""","737","materials/imgs/D51.png","arrowright","","[""materials/imgs/D87.png"",""materials/imgs/D3.png""]","false","random","","",""
"","","","","","html-keyboard-response","377","340184","0.0-19.0-0.2-0.15","p0xgkwosr3","","p0xgkwosr3","""2024-11-12T18:34:08.519Z""","null","+","null","","","","","","",""
"","","","","","image-keyboard-response","378","341025","0.0-19.0-0.2-1.15","p0xgkwosr3","","p0xgkwosr3","""2024-11-12T18:34:08.519Z""","840","materials/imgs/D11.png","arrowright","","[""materials/imgs/D80.png"",""materials/imgs/D105.png""]","false","random","","",""
"","","","","","html-keyboard-response","379","341526","0.0-19.0-0.2-0.16","p0xgkwosr3","","p0xgkwosr3","""2024-11-12T18:34:08.519Z""","null","+","null","","","","","","",""
"","","","","","image-keyboard-response","380","342442","0.0-19.0-0.2-1.16","p0xgkwosr3","","p0xgkwosr3","""2024-11-12T18:34:08.519Z""","914","materials/imgs/D35.png","arrowright","","[""materials/imgs/D77.png"",""materials/imgs/D9.png""]","false","random","","",""
"","","","","","html-keyboard-response","381","342943","0.0-19.0-0.2-0.17","p0xgkwosr3","","p0xgkwosr3","""2024-11-12T18:34:08.519Z""","null","+","null","","","","","","",""
"","","","","","image-keyboard-response","382","344091","0.0-19.0-0.2-1.17","p0xgkwosr3","","p0xgkwosr3","""2024-11-12T18:34:08.519Z""","1146","materials/imgs/D52.png","arrowleft","","[""materials/imgs/D26.png"",""materials/imgs/D74.png""]","false","random","","",""
"","","","","","html-keyboard-response","383","344592","0.0-19.0-0.2-0.18","p0xgkwosr3","","p0xgkwosr3","""2024-11-12T18:34:08.519Z""","null","+","null","","","","","","",""
"","","","","","image-keyboard-response","384","345293","0.0-19.0-0.2-1.18","p0xgkwosr3","","p0xgkwosr3","""2024-11-12T18:34:08.519Z""","700","materials/imgs/D106.png","arrowleft","","[""materials/imgs/D32.png"",""materials/imgs/D74.png""]","false","random","","",""
"","","","","","html-keyboard-response","385","345794","0.0-19.0-0.2-0.19","p0xgkwosr3","","p0xgkwosr3","""2024-11-12T18:34:08.519Z""","null","+","null","","","","","","",""
"","","","","","image-keyboard-response","386","346891","0.0-19.0-0.2-1.19","p0xgkwosr3","","p0xgkwosr3","""2024-11-12T18:34:08.519Z""","1095","materials/imgs/D14.png","arrowleft","","[""materials/imgs/D79.png"",""materials/imgs/D35.png""]","false","random","","",""
"","","","","","html-keyboard-response","387","347393","0.0-19.0-0.2-0.20","p0xgkwosr3","","p0xgkwosr3","""2024-11-12T18:34:08.519Z""","null","+","null","","","","","","",""
"","","","","","image-keyboard-response","388","348864","0.0-19.0-0.2-1.20","p0xgkwosr3","","p0xgkwosr3","""2024-11-12T18:34:08.519Z""","1470","materials/imgs/D82.png","arrowleft","","[""materials/imgs/D9.png"",""materials/imgs/D29.png""]","false","random","","",""
"","","","","","html-keyboard-response","389","349365","0.0-19.0-1.2-0.2","p0xgkwosr3","","p0xgkwosr3","""2024-11-12T18:34:08.519Z""","null","+","null","","","","","","",""
"","","","","","image-keyboard-response","390","349909","0.0-19.0-1.2-1.2","p0xgkwosr3","","p0xgkwosr3","""2024-11-12T18:34:08.519Z""","542","materials/imgs/D46.png","arrowleft","","[""materials/imgs/D46.png"",""materials/imgs/D26.png""]","","check","materials/imgs/D46.png","0","true"
"","","","","","html-keyboard-response","391","350410","0.0-19.0-2.2-0.4","p0xgkwosr3","","p0xgkwosr3","""2024-11-12T18:34:08.519Z""","null","+","null","","","","","","",""
"","","","","","image-keyboard-response","392","351188","0.0-19.0-2.2-1.4","p0xgkwosr3","","p0xgkwosr3","""2024-11-12T18:34:08.519Z""","776","materials/imgs/D6.png","arrowright","","[""materials/imgs/D26.png"",""materials/imgs/D76.png""]","false","validation","","",""
"","","","","","html-keyboard-response","393","351689","0.0-19.0-2.2-0.5","p0xgkwosr3","","p0xgkwosr3","""2024-11-12T18:34:08.519Z""","null","+","null","","","","","","",""
"","","","","","image-keyboard-response","394","352285","0.0-19.0-2.2-1.5","p0xgkwosr3","","p0xgkwosr3","""2024-11-12T18:34:08.519Z""","595","materials/imgs/D11.png","arrowleft","","[""materials/imgs/D83.png"",""materials/imgs/D48.png""]","false","validation","","",""
"","","","","","html-keyboard-response","395","352786","0.0-19.0-0.3-0.21","p0xgkwosr3","","p0xgkwosr3","""2024-11-12T18:34:08.519Z""","null","+","null","","","","","","",""
"","","","","","image-keyboard-response","396","353521","0.0-19.0-0.3-1.21","p0xgkwosr3","","p0xgkwosr3","""2024-11-12T18:34:08.519Z""","733","materials/imgs/D4.png","arrowright","","[""materials/imgs/D49.png"",""materials/imgs/D14.png""]","false","random","","",""
"","","","","","html-keyboard-response","397","354023","0.0-19.0-0.3-0.22","p0xgkwosr3","","p0xgkwosr3","""2024-11-12T18:34:08.519Z""","null","+","null","","","","","","",""
"","","","","","image-keyboard-response","398","354650","0.0-19.0-0.3-1.22","p0xgkwosr3","","p0xgkwosr3","""2024-11-12T18:34:08.519Z""","626","materials/imgs/D37.png","arrowright","","[""materials/imgs/D77.png"",""materials/imgs/D87.png""]","false","random","","",""
"","","","","","html-keyboard-response","399","355152","0.0-19.0-0.3-0.23","p0xgkwosr3","","p0xgkwosr3","""2024-11-12T18:34:08.519Z""","null","+","null","","","","","","",""
"","","","","","image-keyboard-response","400","356312","0.0-19.0-0.3-1.23","p0xgkwosr3","","p0xgkwosr3","""2024-11-12T18:34:08.519Z""","1158","materials/imgs/D46.png","arrowleft","","[""materials/imgs/D68.png"",""materials/imgs/D57.png""]","false","random","","",""
"","","","","","html-keyboard-response","401","356813","0.0-19.0-0.3-0.24","p0xgkwosr3","","p0xgkwosr3","""2024-11-12T18:34:08.519Z""","null","+","null","","","","","","",""
"","","","","","image-keyboard-response","402","357777","0.0-19.0-0.3-1.24","p0xgkwosr3","","p0xgkwosr3","""2024-11-12T18:34:08.519Z""","962","materials/imgs/D77.png","arrowright","","[""materials/imgs/D9.png"",""materials/imgs/D83.png""]","false","random","","",""
"","","","","","html-keyboard-response","403","358278","0.0-19.0-0.3-0.25","p0xgkwosr3","","p0xgkwosr3","""2024-11-12T18:34:08.519Z""","null","+","null","","","","","","",""
"","","","","","image-keyboard-response","404","358926","0.0-19.0-0.3-1.25","p0xgkwosr3","","p0xgkwosr3","""2024-11-12T18:34:08.519Z""","646","materials/imgs/D66.png","arrowleft","","[""materials/imgs/D19.png"",""materials/imgs/D78.png""]","false","random","","",""
"","","","","","html-keyboard-response","405","359428","0.0-19.0-0.3-0.26","p0xgkwosr3","","p0xgkwosr3","""2024-11-12T18:34:08.519Z""","null","+","null","","","","","","",""
"","","","","","image-keyboard-response","406","360453","0.0-19.0-0.3-1.26","p0xgkwosr3","","p0xgkwosr3","""2024-11-12T18:34:08.519Z""","1023","materials/imgs/D64.png","arrowleft","","[""materials/imgs/D76.png"",""materials/imgs/D34.png""]","false","random","","",""
"","","","","","html-keyboard-response","407","360954","0.0-19.0-0.3-0.27","p0xgkwosr3","","p0xgkwosr3","""2024-11-12T18:34:08.519Z""","null","+","null","","","","","","",""
"","","","","","image-keyboard-response","408","361850","0.0-19.0-0.3-1.27","p0xgkwosr3","","p0xgkwosr3","""2024-11-12T18:34:08.519Z""","894","materials/imgs/D83.png","arrowright","","[""materials/imgs/D24.png"",""materials/imgs/D102.png""]","false","random","","",""
"","","","","","html-keyboard-response","409","362351","0.0-19.0-1.3-0.3","p0xgkwosr3","","p0xgkwosr3","""2024-11-12T18:34:08.519Z""","null","+","null","","","","","","",""
"","","","","","image-keyboard-response","410","362887","0.0-19.0-1.3-1.3","p0xgkwosr3","","p0xgkwosr3","""2024-11-12T18:34:08.519Z""","535","materials/imgs/D46.png","arrowleft","","[""materials/imgs/D46.png"",""materials/imgs/D26.png""]","","check","materials/imgs/D46.png","0","true"
"","","","","","html-keyboard-response","411","363388","0.0-19.0-2.3-0.6","p0xgkwosr3","","p0xgkwosr3","""2024-11-12T18:34:08.519Z""","null","+","null","","","","","","",""
"","","","","","image-keyboard-response","412","364024","0.0-19.0-2.3-1.6","p0xgkwosr3","","p0xgkwosr3","""2024-11-12T18:34:08.519Z""","634","materials/imgs/D82.png","arrowright","","[""materials/imgs/D83.png"",""materials/imgs/D22.png""]","false","validation","","",""
"","","","","","html-keyboard-response","413","364525","0.0-19.0-2.3-0.7","p0xgkwosr3","","p0xgkwosr3","""2024-11-12T18:34:08.519Z""","null","+","null","","","","","","",""
"","","","","","image-keyboard-response","414","365931","0.0-19.0-2.3-1.7","p0xgkwosr3","","p0xgkwosr3","""2024-11-12T18:34:08.519Z""","1405","materials/imgs/D37.png","arrowright","","[""materials/imgs/D84.png"",""materials/imgs/D111.png""]","false","validation","","",""
"","","","","","html-keyboard-response","415","366433","0.0-19.0-0.4-0.28","p0xgkwosr3","","p0xgkwosr3","""2024-11-12T18:34:08.519Z""","null","+","null","","","","","","",""
"","","","","","image-keyboard-response","416","367067","0.0-19.0-0.4-1.28","p0xgkwosr3","","p0xgkwosr3","""2024-11-12T18:34:08.519Z""","633","materials/imgs/D80.png","arrowleft","","[""materials/imgs/D78.png"",""materials/imgs/D77.png""]","false","random","","",""
"","","","","","html-keyboard-response","417","367569","0.0-19.0-0.4-0.29","p0xgkwosr3","","p0xgkwosr3","""2024-11-12T18:34:08.519Z""","null","+","null","","","","","","",""
"","","","","","image-keyboard-response","418","368699","0.0-19.0-0.4-1.29","p0xgkwosr3","","p0xgkwosr3","""2024-11-12T18:34:08.519Z""","1128","materials/imgs/D3.png","arrowleft","","[""materials/imgs/D32.png"",""materials/imgs/D80.png""]","false","random","","",""
"","","","","","html-keyboard-response","419","369201","0.0-19.0-0.4-0.30","p0xgkwosr3","","p0xgkwosr3","""2024-11-12T18:34:08.519Z""","null","+","null","","","","","","",""
"","","","","","image-keyboard-response","420","370127","0.0-19.0-0.4-1.30","p0xgkwosr3","","p0xgkwosr3","""2024-11-12T18:34:08.519Z""","924","materials/imgs/D24.png","arrowright","","[""materials/imgs/D52.png"",""materials/imgs/D35.png""]","false","random","","",""
"","","","","","html-keyboard-response","421","370628","0.0-19.0-0.4-0.31","p0xgkwosr3","","p0xgkwosr3","""2024-11-12T18:34:08.519Z""","null","+","null","","","","","","",""
"","","","","","image-keyboard-response","422","371287","0.0-19.0-0.4-1.31","p0xgkwosr3","","p0xgkwosr3","""2024-11-12T18:34:08.519Z""","657","materials/imgs/D81.png","arrowleft","","[""materials/imgs/D85.png"",""materials/imgs/D16.png""]","false","random","","",""
"","","","","","html-keyboard-response","423","371788","0.0-19.0-0.4-0.32","p0xgkwosr3","","p0xgkwosr3","""2024-11-12T18:34:08.519Z""","null","+","null","","","","","","",""
"","","","","","image-keyboard-response","424","372763","0.0-19.0-0.4-1.32","p0xgkwosr3","","p0xgkwosr3","""2024-11-12T18:34:08.519Z""","973","materials/imgs/D81.png","arrowleft","","[""materials/imgs/D16.png"",""materials/imgs/D25.png""]","false","random","","",""
"","","","","","html-keyboard-response","425","373264","0.0-19.0-0.4-0.33","p0xgkwosr3","","p0xgkwosr3","""2024-11-12T18:34:08.519Z""","null","+","null","","","","","","",""
"","","","","","image-keyboard-response","426","374155","0.0-19.0-0.4-1.33","p0xgkwosr3","","p0xgkwosr3","""2024-11-12T18:34:08.519Z""","889","materials/imgs/D9.png","arrowright","","[""materials/imgs/D68.png"",""materials/imgs/D84.png""]","false","random","","",""
"","","","","","html-keyboard-response","427","374656","0.0-19.0-0.4-0.34","p0xgkwosr3","","p0xgkwosr3","""2024-11-12T18:34:08.519Z""","null","+","null","","","","","","",""
"","","","","","image-keyboard-response","428","376170","0.0-19.0-0.4-1.34","p0xgkwosr3","","p0xgkwosr3","""2024-11-12T18:34:08.519Z""","1512","materials/imgs/D74.png","arrowright","","[""materials/imgs/D52.png"",""materials/imgs/D76.png""]","false","random","","",""
"","","","","","html-keyboard-response","429","376672","0.0-19.0-1.4-0.4","p0xgkwosr3","","p0xgkwosr3","""2024-11-12T18:34:08.519Z""","null","+","null","","","","","","",""
"","","","","","image-keyboard-response","430","377262","0.0-19.0-1.4-1.4","p0xgkwosr3","","p0xgkwosr3","""2024-11-12T18:34:08.519Z""","580","materials/imgs/D101.png","arrowright","","[""materials/imgs/D106.png"",""materials/imgs/D101.png""]","","check","materials/imgs/D101.png","1","true"
"","","","","","html-keyboard-response","431","377763","0.0-19.0-2.4-0.8","p0xgkwosr3","","p0xgkwosr3","""2024-11-12T18:34:08.519Z""","null","+","null","","","","","","",""
"","","","","","image-keyboard-response","432","378886","0.0-19.0-2.4-1.8","p0xgkwosr3","","p0xgkwosr3","""2024-11-12T18:34:08.519Z""","1121","materials/imgs/D19.png","arrowleft","","[""materials/imgs/D111.png"",""materials/imgs/D56.png""]","false","validation","","",""
"","","","","","html-keyboard-response","433","379387","0.0-19.0-2.4-0.9","p0xgkwosr3","","p0xgkwosr3","""2024-11-12T18:34:08.519Z""","null","+","null","","","","","","",""
"","","","","","image-keyboard-response","434","380275","0.0-19.0-2.4-1.9","p0xgkwosr3","","p0xgkwosr3","""2024-11-12T18:34:08.519Z""","887","materials/imgs/D36.png","arrowright","","[""materials/imgs/D47.png"",""materials/imgs/D49.png""]","false","validation","","",""
