"success","timeout","failed_images","failed_audio","failed_video","trial_type","trial_index","time_elapsed","internal_node_id","subject_id","sona_id","subjectID","dateInfo","rt","stimulus","response","question_order","choices","speedy","sampleAlg","selected_image","selected_index","correct"
"true","false","[]","[]","[]","preload","0","795","0.0-0.0","pctzqgnru7","","pctzqgnru7","""2024-11-12T18:28:33.211Z""","","","","","","","","","",""
"true","","","","","fullscreen","1","3166","0.0-1.0","pctzqgnru7","","pctzqgnru7","""2024-11-12T18:28:33.211Z""","","","","","","","","","",""
"","","","","","html-keyboard-response","2","3178","0.0-2.0","pctzqgnru7","","pctzqgnru7","""2024-11-12T18:28:33.211Z""","null","","null","","","","","","",""
"","","","","","html-button-response","3","4965","0.0-3.0","pctzqgnru7","","pctzqgnru7","""2024-11-12T18:28:33.211Z""","1786","<div style='text-align:center; font-size:20px; line-height:25px; width: 1200px;'>
                Welcome to our experiment! <br>
                <br>At the bottom of this screen, you will see a button that says 'Begin Experiment.
                <br>Please only click that button when you are ready to complete the 25 minute experiment in one sitting. <br>
                <br> Once you click that button, it will not be possible to restart the experiment. <br><br>","0","","","","","","",""
"true","","","","","fullscreen","4","7666","0.0-4.0","pctzqgnru7","","pctzqgnru7","""2024-11-12T18:28:33.211Z""","","","","","","","","","",""
"","","","","","survey-multi-select","5","14198","0.0-5.0","pctzqgnru7","","pctzqgnru7","""2024-11-12T18:28:33.211Z""","6530","","{""Consent"":[""<strong>I consent</strong>""]}","[0]","","","","","",""
"","","","","","html-button-response","6","15581","0.0-6.0","pctzqgnru7","","pctzqgnru7","""2024-11-12T18:28:33.211Z""","1382","Welcome! <p> This experiment involves two parts: demographic information, followed by the experimental task.<p> It will take about 25 minutes to complete both parts.","0","","","","","","",""
"","","","","","survey-text","7","21717","0.0-7.0","pctzqgnru7","","pctzqgnru7","""2024-11-12T18:28:33.211Z""","6133","","{""Age"":""22"",""Gender"":""Male"",""Race/ethnicity"":""Hispanic""}","","","","","","",""
"","","","","","html-button-response","8","34164","0.0-8.0","pctzqgnru7","","pctzqgnru7","""2024-11-12T18:28:33.211Z""","12446","<div style='text-align: center;'>
      <p>In each trial of this task, you will see three texture images: one target item on top, and two choices beneath the target item.</p>
      <p><strong>Please select the item that is most like the target item.</strong></p>
      <p>To select the option on the <strong>LEFT</strong>, press the <strong>LEFT ARROW</strong> key. 
      To select the option on the <strong>RIGHT</strong>, press the <strong>RIGHT ARROW</strong> key.</p>
                  <!-- Target Image at the Top -->
      <div style='margin: 20px;'>
        <img src='materials/imgs/instruction_images/InstructionImg1D78.png' alt='Target Image' style='width:200px; height:auto;' />
        <p><em>Target Image</em></p>
      </div>

      <!-- Two Choice Images Below -->
      <div style='display: flex; justify-content: center;'>
        <div style='margin-right: 50px;'>
          <img src='materials/imgs/instruction_images/InstructionImg2D34.png' alt='Choice Image 1' style='width:150px; height:auto;' />
          <p><em><strong>LEFT ARROW</strong></em></p>
        </div>
        <div style='margin-left: 50px;'>
          <img src='materials/imgs/instruction_images/InstructionImg3D80.png' alt='Choice Image 2' style='width:150px; height:auto;' />
          <p><em><strong>RIGHT ARROW</strong></em></p>
        </div>
      </div>
    </div>

      <p>When you are ready to proceed, please click 'Continue' to begin practice.</p>","0","","","","","","",""
"","","","","","html-keyboard-response","9","36667","0.0-9.0","pctzqgnru7","","pctzqgnru7","""2024-11-12T18:28:33.211Z""","null","+","null","","","","","","",""
"","","","","","html-keyboard-response","10","37168","0.0-10.0-0.0-0.0","pctzqgnru7","","pctzqgnru7","""2024-11-12T18:28:33.211Z""","null","+","null","","","","","","",""
"","","","","","image-keyboard-response","11","38070","0.0-10.0-0.0-1.0","pctzqgnru7","","pctzqgnru7","""2024-11-12T18:28:33.211Z""","898","materials/imgs/D46.png","arrowleft","","[""materials/imgs/D21.png"",""materials/imgs/D1.png""]","false","random","","",""
"","","","","","html-keyboard-response","12","38571","0.0-10.0-0.0-0.1","pctzqgnru7","","pctzqgnru7","""2024-11-12T18:28:33.211Z""","null","+","null","","","","","","",""
"","","","","","image-keyboard-response","13","39877","0.0-10.0-0.0-1.1","pctzqgnru7","","pctzqgnru7","""2024-11-12T18:28:33.211Z""","1304","materials/imgs/D103.png","arrowright","","[""materials/imgs/D48.png"",""materials/imgs/D37.png""]","false","random","","",""
"","","","","","html-keyboard-response","14","40378","0.0-10.0-0.0-0.2","pctzqgnru7","","pctzqgnru7","""2024-11-12T18:28:33.211Z""","null","+","null","","","","","","",""
"","","","","","image-keyboard-response","15","41458","0.0-10.0-0.0-1.2","pctzqgnru7","","pctzqgnru7","""2024-11-12T18:28:33.211Z""","1079","materials/imgs/D103.png","arrowleft","","[""materials/imgs/D32.png"",""materials/imgs/D21.png""]","false","random","","",""
"","","","","","html-keyboard-response","16","41960","0.0-10.0-0.0-0.3","pctzqgnru7","","pctzqgnru7","""2024-11-12T18:28:33.211Z""","null","+","null","","","","","","",""
"","","","","","image-keyboard-response","17","44569","0.0-10.0-0.0-1.3","pctzqgnru7","","pctzqgnru7","""2024-11-12T18:28:33.211Z""","2608","materials/imgs/D29.png","arrowleft","","[""materials/imgs/D20.png"",""materials/imgs/D101.png""]","false","random","","",""
"","","","","","html-keyboard-response","18","45071","0.0-10.0-0.0-0.4","pctzqgnru7","","pctzqgnru7","""2024-11-12T18:28:33.211Z""","null","+","null","","","","","","",""
"","","","","","image-keyboard-response","19","46119","0.0-10.0-0.0-1.4","pctzqgnru7","","pctzqgnru7","""2024-11-12T18:28:33.211Z""","1047","materials/imgs/D8.png","arrowleft","","[""materials/imgs/D16.png"",""materials/imgs/D25.png""]","false","random","","",""
"","","","","","html-keyboard-response","20","46620","0.0-10.0-0.0-0.5","pctzqgnru7","","pctzqgnru7","""2024-11-12T18:28:33.211Z""","null","+","null","","","","","","",""
"","","","","","image-keyboard-response","21","47381","0.0-10.0-0.0-1.5","pctzqgnru7","","pctzqgnru7","""2024-11-12T18:28:33.211Z""","760","materials/imgs/D16.png","arrowright","","[""materials/imgs/D94.png"",""materials/imgs/D35.png""]","false","random","","",""
"","","","","","html-keyboard-response","22","47883","0.0-10.0-0.0-0.6","pctzqgnru7","","pctzqgnru7","""2024-11-12T18:28:33.211Z""","null","+","null","","","","","","",""
"","","","","","image-keyboard-response","23","48640","0.0-10.0-0.0-1.6","pctzqgnru7","","pctzqgnru7","""2024-11-12T18:28:33.211Z""","756","materials/imgs/D74.png","arrowright","","[""materials/imgs/D83.png"",""materials/imgs/D18.png""]","false","random","","",""
"","","","","","html-keyboard-response","24","49142","0.0-10.0-0.0-0.7","pctzqgnru7","","pctzqgnru7","""2024-11-12T18:28:33.211Z""","null","+","null","","","","","","",""
"","","","","","image-keyboard-response","25","50267","0.0-10.0-0.0-1.7","pctzqgnru7","","pctzqgnru7","""2024-11-12T18:28:33.211Z""","1124","materials/imgs/D111.png","arrowleft","","[""materials/imgs/D21.png"",""materials/imgs/D37.png""]","false","random","","",""
"","","","","","html-keyboard-response","26","50768","0.0-10.0-0.0-0.8","pctzqgnru7","","pctzqgnru7","""2024-11-12T18:28:33.211Z""","null","+","null","","","","","","",""
"","","","","","image-keyboard-response","27","51345","0.0-10.0-0.0-1.8","pctzqgnru7","","pctzqgnru7","""2024-11-12T18:28:33.211Z""","573","materials/imgs/D83.png","arrowright","","[""materials/imgs/D48.png"",""materials/imgs/D65.png""]","false","random","","",""
"","","","","","html-keyboard-response","28","51846","0.0-10.0-0.0-0.9","pctzqgnru7","","pctzqgnru7","""2024-11-12T18:28:33.211Z""","null","+","null","","","","","","",""
"","","","","","image-keyboard-response","29","52549","0.0-10.0-0.0-1.9","pctzqgnru7","","pctzqgnru7","""2024-11-12T18:28:33.211Z""","703","materials/imgs/D32.png","arrowright","","[""materials/imgs/D21.png"",""materials/imgs/D80.png""]","false","random","","",""
"","","","","","html-button-response","30","56946","0.0-11.0","pctzqgnru7","","pctzqgnru7","""2024-11-12T18:28:33.211Z""","4396","<p>Great job!</p>
      <p>You are now ready to begin the experiment.</p>
      <p>There will be around 200 trials. You will have opportunities to take breaks at three stages of the trials.</p>
      <p>When you are ready to begin please click 'Continue'.</p>","0","","","","","","",""
"","","","","","html-keyboard-response","31","59447","0.0-12.0","pctzqgnru7","","pctzqgnru7","""2024-11-12T18:28:33.211Z""","null","+","null","","","","","","",""
"","","","","","html-keyboard-response","32","59949","0.0-13.0-0.0-0.0","pctzqgnru7","","pctzqgnru7","""2024-11-12T18:28:33.211Z""","null","+","null","","","","","","",""
"","","","","","image-keyboard-response","33","60913","0.0-13.0-0.0-1.0","pctzqgnru7","","pctzqgnru7","""2024-11-12T18:28:33.211Z""","963","materials/imgs/D77.png","arrowleft","","[""materials/imgs/D80.png"",""materials/imgs/D65.png""]","false","random","","",""
"","","","","","html-keyboard-response","34","61414","0.0-13.0-0.0-0.1","pctzqgnru7","","pctzqgnru7","""2024-11-12T18:28:33.211Z""","null","+","null","","","","","","",""
"","","","","","image-keyboard-response","35","61926","0.0-13.0-0.0-1.1","pctzqgnru7","","pctzqgnru7","""2024-11-12T18:28:33.211Z""","511","materials/imgs/D57.png","arrowright","","[""materials/imgs/D102.png"",""materials/imgs/D9.png""]","false","random","","",""
"","","","","","html-keyboard-response","36","62427","0.0-13.0-0.0-0.2","pctzqgnru7","","pctzqgnru7","""2024-11-12T18:28:33.211Z""","null","+","null","","","","","","",""
"","","","","","image-keyboard-response","37","62954","0.0-13.0-0.0-1.2","pctzqgnru7","","pctzqgnru7","""2024-11-12T18:28:33.211Z""","526","materials/imgs/D49.png","arrowright","","[""materials/imgs/D111.png"",""materials/imgs/D22.png""]","false","random","","",""
"","","","","","html-keyboard-response","38","63455","0.0-13.0-0.0-0.3","pctzqgnru7","","pctzqgnru7","""2024-11-12T18:28:33.211Z""","null","+","null","","","","","","",""
"","","","","","image-keyboard-response","39","63911","0.0-13.0-0.0-1.3","pctzqgnru7","","pctzqgnru7","""2024-11-12T18:28:33.211Z""","455","materials/imgs/D76.png","arrowright","","[""materials/imgs/D94.png"",""materials/imgs/D65.png""]","true","random","","",""
"","","","","","html-keyboard-response","40","67749","0.0-13.0-0.0-2.3-0.3","pctzqgnru7","","pctzqgnru7","""2024-11-12T18:28:33.211Z""","3838","<p><strong>You're going too fast.</strong><p>Please slow down and assess each triplet.<p>Press 'y' to continue.</p></p>","y","","","","","","",""
"","","","","","html-keyboard-response","41","68250","0.0-13.0-0.0-0.4","pctzqgnru7","","pctzqgnru7","""2024-11-12T18:28:33.211Z""","null","+","null","","","","","","",""
"","","","","","image-keyboard-response","42","68849","0.0-13.0-0.0-1.4","pctzqgnru7","","pctzqgnru7","""2024-11-12T18:28:33.211Z""","597","materials/imgs/D84.png","arrowleft","","[""materials/imgs/D32.png"",""materials/imgs/D20.png""]","false","random","","",""
"","","","","","html-keyboard-response","43","69349","0.0-13.0-0.0-0.5","pctzqgnru7","","pctzqgnru7","""2024-11-12T18:28:33.211Z""","null","+","null","","","","","","",""
"","","","","","image-keyboard-response","44","70192","0.0-13.0-0.0-1.5","pctzqgnru7","","pctzqgnru7","""2024-11-12T18:28:33.211Z""","841","materials/imgs/D102.png","arrowright","","[""materials/imgs/D101.png"",""materials/imgs/D92.png""]","false","random","","",""
"","","","","","html-keyboard-response","45","70693","0.0-13.0-0.0-0.6","pctzqgnru7","","pctzqgnru7","""2024-11-12T18:28:33.211Z""","null","+","null","","","","","","",""
"","","","","","image-keyboard-response","46","71586","0.0-13.0-0.0-1.6","pctzqgnru7","","pctzqgnru7","""2024-11-12T18:28:33.211Z""","891","materials/imgs/D32.png","arrowright","","[""materials/imgs/D18.png"",""materials/imgs/D9.png""]","false","random","","",""
"","","","","","html-keyboard-response","47","72087","0.0-13.0-1.0-0.0","pctzqgnru7","","pctzqgnru7","""2024-11-12T18:28:33.211Z""","null","+","null","","","","","","",""
"","","","","","image-keyboard-response","48","73023","0.0-13.0-1.0-1.0","pctzqgnru7","","pctzqgnru7","""2024-11-12T18:28:33.211Z""","934","materials/imgs/D101.png","arrowright","","[""materials/imgs/D106.png"",""materials/imgs/D101.png""]","","check","materials/imgs/D101.png","1","true"
"","","","","","html-keyboard-response","49","73524","0.0-13.0-2.0-0.0","pctzqgnru7","","pctzqgnru7","""2024-11-12T18:28:33.211Z""","null","+","null","","","","","","",""
"","","","","","image-keyboard-response","50","74450","0.0-13.0-2.0-1.0","pctzqgnru7","","pctzqgnru7","""2024-11-12T18:28:33.211Z""","925","materials/imgs/D82.png","arrowright","","[""materials/imgs/D83.png"",""materials/imgs/D22.png""]","false","validation","","",""
"","","","","","html-keyboard-response","51","74952","0.0-13.0-2.0-0.1","pctzqgnru7","","pctzqgnru7","""2024-11-12T18:28:33.211Z""","null","+","null","","","","","","",""
"","","","","","image-keyboard-response","52","75808","0.0-13.0-2.0-1.1","pctzqgnru7","","pctzqgnru7","""2024-11-12T18:28:33.211Z""","855","materials/imgs/D26.png","arrowleft","","[""materials/imgs/D36.png"",""materials/imgs/D92.png""]","false","validation","","",""
"","","","","","html-keyboard-response","53","76310","0.0-13.0-0.1-0.7","pctzqgnru7","","pctzqgnru7","""2024-11-12T18:28:33.211Z""","null","+","null","","","","","","",""
"","","","","","image-keyboard-response","54","76970","0.0-13.0-0.1-1.7","pctzqgnru7","","pctzqgnru7","""2024-11-12T18:28:33.211Z""","659","materials/imgs/D9.png","arrowleft","","[""materials/imgs/D24.png"",""materials/imgs/D95.png""]","false","random","","",""
"","","","","","html-keyboard-response","55","77472","0.0-13.0-0.1-0.8","pctzqgnru7","","pctzqgnru7","""2024-11-12T18:28:33.211Z""","null","+","null","","","","","","",""
"","","","","","image-keyboard-response","56","78355","0.0-13.0-0.1-1.8","pctzqgnru7","","pctzqgnru7","""2024-11-12T18:28:33.211Z""","882","materials/imgs/D3.png","arrowleft","","[""materials/imgs/D52.png"",""materials/imgs/D6.png""]","false","random","","",""
"","","","","","html-keyboard-response","57","78856","0.0-13.0-0.1-0.9","pctzqgnru7","","pctzqgnru7","""2024-11-12T18:28:33.211Z""","null","+","null","","","","","","",""
"","","","","","image-keyboard-response","58","79995","0.0-13.0-0.1-1.9","pctzqgnru7","","pctzqgnru7","""2024-11-12T18:28:33.211Z""","1138","materials/imgs/D21.png","arrowright","","[""materials/imgs/D74.png"",""materials/imgs/D56.png""]","false","random","","",""
"","","","","","html-keyboard-response","59","80496","0.0-13.0-0.1-0.10","pctzqgnru7","","pctzqgnru7","""2024-11-12T18:28:33.211Z""","null","+","null","","","","","","",""
"","","","","","image-keyboard-response","60","81458","0.0-13.0-0.1-1.10","pctzqgnru7","","pctzqgnru7","""2024-11-12T18:28:33.211Z""","960","materials/imgs/D57.png","arrowright","","[""materials/imgs/D16.png"",""materials/imgs/D82.png""]","false","random","","",""
"","","","","","html-keyboard-response","61","81958","0.0-13.0-0.1-0.11","pctzqgnru7","","pctzqgnru7","""2024-11-12T18:28:33.211Z""","null","+","null","","","","","","",""
"","","","","","image-keyboard-response","62","83346","0.0-13.0-0.1-1.11","pctzqgnru7","","pctzqgnru7","""2024-11-12T18:28:33.211Z""","1386","materials/imgs/D24.png","arrowright","","[""materials/imgs/D16.png"",""materials/imgs/D4.png""]","false","random","","",""
"","","","","","html-keyboard-response","63","83846","0.0-13.0-0.1-0.12","pctzqgnru7","","pctzqgnru7","""2024-11-12T18:28:33.211Z""","null","+","null","","","","","","",""
"","","","","","image-keyboard-response","64","84660","0.0-13.0-0.1-1.12","pctzqgnru7","","pctzqgnru7","""2024-11-12T18:28:33.211Z""","813","materials/imgs/D4.png","arrowleft","","[""materials/imgs/D49.png"",""materials/imgs/D26.png""]","false","random","","",""
"","","","","","html-keyboard-response","65","85162","0.0-13.0-0.1-0.13","pctzqgnru7","","pctzqgnru7","""2024-11-12T18:28:33.211Z""","null","+","null","","","","","","",""
"","","","","","image-keyboard-response","66","86035","0.0-13.0-0.1-1.13","pctzqgnru7","","pctzqgnru7","""2024-11-12T18:28:33.211Z""","871","materials/imgs/D46.png","arrowleft","","[""materials/imgs/D47.png"",""materials/imgs/D82.png""]","false","random","","",""
"","","","","","html-keyboard-response","67","86537","0.0-13.0-1.1-0.1","pctzqgnru7","","pctzqgnru7","""2024-11-12T18:28:33.211Z""","null","+","null","","","","","","",""
"","","","","","image-keyboard-response","68","87317","0.0-13.0-1.1-1.1","pctzqgnru7","","pctzqgnru7","""2024-11-12T18:28:33.211Z""","779","materials/imgs/D78.png","arrowright","","[""materials/imgs/D76.png"",""materials/imgs/D78.png""]","","check","materials/imgs/D78.png","1","true"
"","","","","","html-keyboard-response","69","87817","0.0-13.0-2.1-0.2","pctzqgnru7","","pctzqgnru7","""2024-11-12T18:28:33.211Z""","null","+","null","","","","","","",""
"","","","","","image-keyboard-response","70","88601","0.0-13.0-2.1-1.2","pctzqgnru7","","pctzqgnru7","""2024-11-12T18:28:33.211Z""","783","materials/imgs/D111.png","arrowleft","","[""materials/imgs/D82.png"",""materials/imgs/D95.png""]","false","validation","","",""
"","","","","","html-keyboard-response","71","89103","0.0-13.0-2.1-0.3","pctzqgnru7","","pctzqgnru7","""2024-11-12T18:28:33.211Z""","null","+","null","","","","","","",""
"","","","","","image-keyboard-response","72","89926","0.0-13.0-2.1-1.3","pctzqgnru7","","pctzqgnru7","""2024-11-12T18:28:33.211Z""","822","materials/imgs/D47.png","arrowleft","","[""materials/imgs/D1.png"",""materials/imgs/D52.png""]","false","validation","","",""
"","","","","","html-keyboard-response","73","90427","0.0-13.0-0.2-0.14","pctzqgnru7","","pctzqgnru7","""2024-11-12T18:28:33.211Z""","null","+","null","","","","","","",""
"","","","","","image-keyboard-response","74","91364","0.0-13.0-0.2-1.14","pctzqgnru7","","pctzqgnru7","""2024-11-12T18:28:33.211Z""","936","materials/imgs/D74.png","arrowright","","[""materials/imgs/D21.png"",""materials/imgs/D77.png""]","false","random","","",""
"","","","","","html-keyboard-response","75","91865","0.0-13.0-0.2-0.15","pctzqgnru7","","pctzqgnru7","""2024-11-12T18:28:33.211Z""","null","+","null","","","","","","",""
"","","","","","image-keyboard-response","76","93547","0.0-13.0-0.2-1.15","pctzqgnru7","","pctzqgnru7","""2024-11-12T18:28:33.211Z""","1681","materials/imgs/D76.png","arrowleft","","[""materials/imgs/D3.png"",""materials/imgs/D56.png""]","false","random","","",""
"","","","","","html-keyboard-response","77","94049","0.0-13.0-0.2-0.16","pctzqgnru7","","pctzqgnru7","""2024-11-12T18:28:33.211Z""","null","+","null","","","","","","",""
"","","","","","image-keyboard-response","78","94756","0.0-13.0-0.2-1.16","pctzqgnru7","","pctzqgnru7","""2024-11-12T18:28:33.211Z""","706","materials/imgs/D74.png","arrowleft","","[""materials/imgs/D101.png"",""materials/imgs/D103.png""]","false","random","","",""
"","","","","","html-keyboard-response","79","95257","0.0-13.0-0.2-0.17","pctzqgnru7","","pctzqgnru7","""2024-11-12T18:28:33.211Z""","null","+","null","","","","","","",""
"","","","","","image-keyboard-response","80","96023","0.0-13.0-0.2-1.17","pctzqgnru7","","pctzqgnru7","""2024-11-12T18:28:33.211Z""","765","materials/imgs/D78.png","arrowleft","","[""materials/imgs/D106.png"",""materials/imgs/D77.png""]","false","random","","",""
"","","","","","html-keyboard-response","81","96524","0.0-13.0-0.2-0.18","pctzqgnru7","","pctzqgnru7","""2024-11-12T18:28:33.211Z""","null","+","null","","","","","","",""
"","","","","","image-keyboard-response","82","97381","0.0-13.0-0.2-1.18","pctzqgnru7","","pctzqgnru7","""2024-11-12T18:28:33.211Z""","856","materials/imgs/D75.png","arrowleft","","[""materials/imgs/D64.png"",""materials/imgs/D20.png""]","false","random","","",""
"","","","","","html-keyboard-response","83","97883","0.0-13.0-0.2-0.19","pctzqgnru7","","pctzqgnru7","""2024-11-12T18:28:33.211Z""","null","+","null","","","","","","",""
"","","","","","image-keyboard-response","84","98694","0.0-13.0-0.2-1.19","pctzqgnru7","","pctzqgnru7","""2024-11-12T18:28:33.211Z""","810","materials/imgs/D64.png","arrowright","","[""materials/imgs/D3.png"",""materials/imgs/D32.png""]","false","random","","",""
"","","","","","html-keyboard-response","85","99195","0.0-13.0-0.2-0.20","pctzqgnru7","","pctzqgnru7","""2024-11-12T18:28:33.211Z""","null","+","null","","","","","","",""
"","","","","","image-keyboard-response","86","99878","0.0-13.0-0.2-1.20","pctzqgnru7","","pctzqgnru7","""2024-11-12T18:28:33.211Z""","681","materials/imgs/D57.png","arrowleft","","[""materials/imgs/D52.png"",""materials/imgs/D53.png""]","false","random","","",""
"","","","","","html-keyboard-response","87","100379","0.0-13.0-1.2-0.2","pctzqgnru7","","pctzqgnru7","""2024-11-12T18:28:33.211Z""","null","+","null","","","","","","",""
"","","","","","image-keyboard-response","88","101154","0.0-13.0-1.2-1.2","pctzqgnru7","","pctzqgnru7","""2024-11-12T18:28:33.211Z""","773","materials/imgs/D106.png","arrowleft","","[""materials/imgs/D106.png"",""materials/imgs/D101.png""]","","check","materials/imgs/D106.png","0","true"
"","","","","","html-keyboard-response","89","101655","0.0-13.0-2.2-0.4","pctzqgnru7","","pctzqgnru7","""2024-11-12T18:28:33.211Z""","null","+","null","","","","","","",""
"","","","","","image-keyboard-response","90","102495","0.0-13.0-2.2-1.4","pctzqgnru7","","pctzqgnru7","""2024-11-12T18:28:33.211Z""","839","materials/imgs/D68.png","arrowright","","[""materials/imgs/D96.png"",""materials/imgs/D48.png""]","false","validation","","",""
"","","","","","html-keyboard-response","91","102995","0.0-13.0-2.2-0.5","pctzqgnru7","","pctzqgnru7","""2024-11-12T18:28:33.211Z""","null","+","null","","","","","","",""
"","","","","","image-keyboard-response","92","103757","0.0-13.0-2.2-1.5","pctzqgnru7","","pctzqgnru7","""2024-11-12T18:28:33.211Z""","761","materials/imgs/D66.png","arrowright","","[""materials/imgs/D85.png"",""materials/imgs/D25.png""]","false","validation","","",""
"","","","","","html-keyboard-response","93","104258","0.0-13.0-0.3-0.21","pctzqgnru7","","pctzqgnru7","""2024-11-12T18:28:33.211Z""","null","+","null","","","","","","",""
"","","","","","image-keyboard-response","94","104949","0.0-13.0-0.3-1.21","pctzqgnru7","","pctzqgnru7","""2024-11-12T18:28:33.211Z""","690","materials/imgs/D37.png","arrowleft","","[""materials/imgs/D111.png"",""materials/imgs/D106.png""]","false","random","","",""
"","","","","","html-keyboard-response","95","105451","0.0-13.0-0.3-0.22","pctzqgnru7","","pctzqgnru7","""2024-11-12T18:28:33.211Z""","null","+","null","","","","","","",""
"","","","","","image-keyboard-response","96","106111","0.0-13.0-0.3-1.22","pctzqgnru7","","pctzqgnru7","""2024-11-12T18:28:33.211Z""","659","materials/imgs/D32.png","arrowright","","[""materials/imgs/D94.png"",""materials/imgs/D68.png""]","false","random","","",""
"","","","","","html-keyboard-response","97","106613","0.0-13.0-0.3-0.23","pctzqgnru7","","pctzqgnru7","""2024-11-12T18:28:33.211Z""","null","+","null","","","","","","",""
"","","","","","image-keyboard-response","98","107521","0.0-13.0-0.3-1.23","pctzqgnru7","","pctzqgnru7","""2024-11-12T18:28:33.211Z""","907","materials/imgs/D85.png","arrowright","","[""materials/imgs/D57.png"",""materials/imgs/D34.png""]","false","random","","",""
"","","","","","html-keyboard-response","99","108022","0.0-13.0-0.3-0.24","pctzqgnru7","","pctzqgnru7","""2024-11-12T18:28:33.211Z""","null","+","null","","","","","","",""
"","","","","","image-keyboard-response","100","108757","0.0-13.0-0.3-1.24","pctzqgnru7","","pctzqgnru7","""2024-11-12T18:28:33.211Z""","734","materials/imgs/D111.png","arrowright","","[""materials/imgs/D106.png"",""materials/imgs/D24.png""]","false","random","","",""
"","","","","","html-keyboard-response","101","109259","0.0-13.0-0.3-0.25","pctzqgnru7","","pctzqgnru7","""2024-11-12T18:28:33.211Z""","null","+","null","","","","","","",""
"","","","","","image-keyboard-response","102","110005","0.0-13.0-0.3-1.25","pctzqgnru7","","pctzqgnru7","""2024-11-12T18:28:33.211Z""","744","materials/imgs/D37.png","arrowleft","","[""materials/imgs/D75.png"",""materials/imgs/D21.png""]","false","random","","",""
"","","","","","html-keyboard-response","103","110506","0.0-13.0-0.3-0.26","pctzqgnru7","","pctzqgnru7","""2024-11-12T18:28:33.211Z""","null","+","null","","","","","","",""
"","","","","","image-keyboard-response","104","111240","0.0-13.0-0.3-1.26","pctzqgnru7","","pctzqgnru7","""2024-11-12T18:28:33.211Z""","733","materials/imgs/D106.png","arrowright","","[""materials/imgs/D77.png"",""materials/imgs/D103.png""]","false","random","","",""
"","","","","","html-keyboard-response","105","111741","0.0-13.0-0.3-0.27","pctzqgnru7","","pctzqgnru7","""2024-11-12T18:28:33.211Z""","null","+","null","","","","","","",""
"","","","","","image-keyboard-response","106","112608","0.0-13.0-0.3-1.27","pctzqgnru7","","pctzqgnru7","""2024-11-12T18:28:33.211Z""","865","materials/imgs/D78.png","arrowright","","[""materials/imgs/D20.png"",""materials/imgs/D81.png""]","false","random","","",""
"","","","","","html-keyboard-response","107","113109","0.0-13.0-1.3-0.3","pctzqgnru7","","pctzqgnru7","""2024-11-12T18:28:33.211Z""","null","+","null","","","","","","",""
"","","","","","image-keyboard-response","108","113762","0.0-13.0-1.3-1.3","pctzqgnru7","","pctzqgnru7","""2024-11-12T18:28:33.211Z""","652","materials/imgs/D64.png","arrowleft","","[""materials/imgs/D64.png"",""materials/imgs/D53.png""]","","check","materials/imgs/D64.png","0","true"
"","","","","","html-keyboard-response","109","114264","0.0-13.0-2.3-0.6","pctzqgnru7","","pctzqgnru7","""2024-11-12T18:28:33.211Z""","null","+","null","","","","","","",""
"","","","","","image-keyboard-response","110","115022","0.0-13.0-2.3-1.6","pctzqgnru7","","pctzqgnru7","""2024-11-12T18:28:33.211Z""","757","materials/imgs/D65.png","arrowright","","[""materials/imgs/D4.png"",""materials/imgs/D16.png""]","false","validation","","",""
"","","","","","html-keyboard-response","111","115524","0.0-13.0-2.3-0.7","pctzqgnru7","","pctzqgnru7","""2024-11-12T18:28:33.211Z""","null","+","null","","","","","","",""
"","","","","","image-keyboard-response","112","116218","0.0-13.0-2.3-1.7","pctzqgnru7","","pctzqgnru7","""2024-11-12T18:28:33.211Z""","693","materials/imgs/D102.png","arrowright","","[""materials/imgs/D32.png"",""materials/imgs/D111.png""]","false","validation","","",""
"","","","","","html-keyboard-response","113","116720","0.0-13.0-0.4-0.28","pctzqgnru7","","pctzqgnru7","""2024-11-12T18:28:33.211Z""","null","+","null","","","","","","",""
"","","","","","image-keyboard-response","114","117394","0.0-13.0-0.4-1.28","pctzqgnru7","","pctzqgnru7","""2024-11-12T18:28:33.211Z""","674","materials/imgs/D8.png","arrowright","","[""materials/imgs/D53.png"",""materials/imgs/D47.png""]","false","random","","",""
"","","","","","html-keyboard-response","115","117896","0.0-13.0-0.4-0.29","pctzqgnru7","","pctzqgnru7","""2024-11-12T18:28:33.211Z""","null","+","null","","","","","","",""
"","","","","","image-keyboard-response","116","118499","0.0-13.0-0.4-1.29","pctzqgnru7","","pctzqgnru7","""2024-11-12T18:28:33.211Z""","602","materials/imgs/D81.png","arrowleft","","[""materials/imgs/D57.png"",""materials/imgs/D47.png""]","false","random","","",""
"","","","","","html-keyboard-response","117","119001","0.0-13.0-0.4-0.30","pctzqgnru7","","pctzqgnru7","""2024-11-12T18:28:33.211Z""","null","+","null","","","","","","",""
"","","","","","image-keyboard-response","118","119872","0.0-13.0-0.4-1.30","pctzqgnru7","","pctzqgnru7","""2024-11-12T18:28:33.211Z""","870","materials/imgs/D84.png","arrowleft","","[""materials/imgs/D20.png"",""materials/imgs/D77.png""]","false","random","","",""
"","","","","","html-keyboard-response","119","120373","0.0-13.0-0.4-0.31","pctzqgnru7","","pctzqgnru7","""2024-11-12T18:28:33.211Z""","null","+","null","","","","","","",""
"","","","","","image-keyboard-response","120","120967","0.0-13.0-0.4-1.31","pctzqgnru7","","pctzqgnru7","""2024-11-12T18:28:33.211Z""","593","materials/imgs/D57.png","arrowleft","","[""materials/imgs/D32.png"",""materials/imgs/D48.png""]","false","random","","",""
"","","","","","html-keyboard-response","121","121468","0.0-13.0-0.4-0.32","pctzqgnru7","","pctzqgnru7","""2024-11-12T18:28:33.211Z""","null","+","null","","","","","","",""
"","","","","","image-keyboard-response","122","122153","0.0-13.0-0.4-1.32","pctzqgnru7","","pctzqgnru7","""2024-11-12T18:28:33.211Z""","684","materials/imgs/D4.png","arrowleft","","[""materials/imgs/D35.png"",""materials/imgs/D47.png""]","false","random","","",""
"","","","","","html-keyboard-response","123","122655","0.0-13.0-0.4-0.33","pctzqgnru7","","pctzqgnru7","""2024-11-12T18:28:33.211Z""","null","+","null","","","","","","",""
"","","","","","image-keyboard-response","124","123076","0.0-13.0-0.4-1.33","pctzqgnru7","","pctzqgnru7","""2024-11-12T18:28:33.211Z""","420","materials/imgs/D3.png","arrowright","","[""materials/imgs/D14.png"",""materials/imgs/D65.png""]","true","random","","",""
"","","","","","html-keyboard-response","125","124809","0.0-13.0-0.4-2.33-0.33","pctzqgnru7","","pctzqgnru7","""2024-11-12T18:28:33.211Z""","1732","<p><strong>You're going too fast.</strong><p>Please slow down and assess each triplet.<p>Press 'y' to continue.</p></p>","y","","","","","","",""
"","","","","","html-keyboard-response","126","125310","0.0-13.0-0.4-0.34","pctzqgnru7","","pctzqgnru7","""2024-11-12T18:28:33.211Z""","null","+","null","","","","","","",""
"","","","","","image-keyboard-response","127","125651","0.0-13.0-0.4-1.34","pctzqgnru7","","pctzqgnru7","""2024-11-12T18:28:33.211Z""","339","materials/imgs/D35.png","arrowleft","","[""materials/imgs/D101.png"",""materials/imgs/D21.png""]","true","random","","",""
"","","","","","html-keyboard-response","128","127051","0.0-13.0-0.4-2.34-0.34","pctzqgnru7","","pctzqgnru7","""2024-11-12T18:28:33.211Z""","1400","<p><strong>You're going too fast.</strong><p>Please slow down and assess each triplet.<p>Press 'y' to continue.</p></p>","y","","","","","","",""
"","","","","","html-keyboard-response","129","127553","0.0-13.0-1.4-0.4","pctzqgnru7","","pctzqgnru7","""2024-11-12T18:28:33.211Z""","null","+","null","","","","","","",""
"","","","","","image-keyboard-response","130","128158","0.0-13.0-1.4-1.4","pctzqgnru7","","pctzqgnru7","""2024-11-12T18:28:33.211Z""","604","materials/imgs/D8.png","arrowright","","[""materials/imgs/D18.png"",""materials/imgs/D8.png""]","","check","materials/imgs/D8.png","1","true"
"","","","","","html-keyboard-response","131","128659","0.0-13.0-2.4-0.8","pctzqgnru7","","pctzqgnru7","""2024-11-12T18:28:33.211Z""","null","+","null","","","","","","",""
"","","","","","image-keyboard-response","132","129233","0.0-13.0-2.4-1.8","pctzqgnru7","","pctzqgnru7","""2024-11-12T18:28:33.211Z""","572","materials/imgs/D95.png","arrowright","","[""materials/imgs/D36.png"",""materials/imgs/D4.png""]","false","validation","","",""
"","","","","","html-keyboard-response","133","129734","0.0-13.0-2.4-0.9","pctzqgnru7","","pctzqgnru7","""2024-11-12T18:28:33.211Z""","null","+","null","","","","","","",""
"","","","","","image-keyboard-response","134","130296","0.0-13.0-2.4-1.9","pctzqgnru7","","pctzqgnru7","""2024-11-12T18:28:33.211Z""","560","materials/imgs/D92.png","arrowleft","","[""materials/imgs/D56.png"",""materials/imgs/D77.png""]","false","validation","","",""
"","","","","","html-button-response","135","132445","0.0-14.0","pctzqgnru7","","pctzqgnru7","""2024-11-12T18:28:33.211Z""","2149","You have completed 25% of the trials. Please click 'Continue' when you are ready proceed.","0","","","","","","",""
"","","","","","html-keyboard-response","136","132946","0.0-15.0-0.0-0.0","pctzqgnru7","","pctzqgnru7","""2024-11-12T18:28:33.211Z""","null","+","null","","","","","","",""
"","","","","","image-keyboard-response","137","133422","0.0-15.0-0.0-1.0","pctzqgnru7","","pctzqgnru7","""2024-11-12T18:28:33.211Z""","475","materials/imgs/D52.png","arrowright","","[""materials/imgs/D21.png"",""materials/imgs/D26.png""]","true","random","","",""
"","","","","","html-keyboard-response","138","134643","0.0-15.0-0.0-2.0-0.0","pctzqgnru7","","pctzqgnru7","""2024-11-12T18:28:33.211Z""","1220","<p><strong>You're going too fast.</strong><p>Please slow down and assess each triplet.<p>Press 'y' to continue.</p></p>","y","","","","","","",""
"","","","","","html-keyboard-response","139","135143","0.0-15.0-0.0-0.1","pctzqgnru7","","pctzqgnru7","""2024-11-12T18:28:33.211Z""","null","+","null","","","","","","",""
"","","","","","image-keyboard-response","140","135771","0.0-15.0-0.0-1.1","pctzqgnru7","","pctzqgnru7","""2024-11-12T18:28:33.211Z""","626","materials/imgs/D85.png","arrowright","","[""materials/imgs/D75.png"",""materials/imgs/D16.png""]","false","random","","",""
"","","","","","html-keyboard-response","141","136271","0.0-15.0-0.0-0.2","pctzqgnru7","","pctzqgnru7","""2024-11-12T18:28:33.211Z""","null","+","null","","","","","","",""
"","","","","","image-keyboard-response","142","136782","0.0-15.0-0.0-1.2","pctzqgnru7","","pctzqgnru7","""2024-11-12T18:28:33.211Z""","509","materials/imgs/D22.png","arrowright","","[""materials/imgs/D66.png"",""materials/imgs/D85.png""]","false","random","","",""
"","","","","","html-keyboard-response","143","137283","0.0-15.0-0.0-0.3","pctzqgnru7","","pctzqgnru7","""2024-11-12T18:28:33.211Z""","null","+","null","","","","","","",""
"","","","","","image-keyboard-response","144","137932","0.0-15.0-0.0-1.3","pctzqgnru7","","pctzqgnru7","""2024-11-12T18:28:33.211Z""","647","materials/imgs/D48.png","arrowleft","","[""materials/imgs/D68.png"",""materials/imgs/D8.png""]","false","random","","",""
"","","","","","html-keyboard-response","145","138434","0.0-15.0-0.0-0.4","pctzqgnru7","","pctzqgnru7","""2024-11-12T18:28:33.211Z""","null","+","null","","","","","","",""
"","","","","","image-keyboard-response","146","139089","0.0-15.0-0.0-1.4","pctzqgnru7","","pctzqgnru7","""2024-11-12T18:28:33.211Z""","654","materials/imgs/D104.png","arrowright","","[""materials/imgs/D84.png"",""materials/imgs/D106.png""]","false","random","","",""
"","","","","","html-keyboard-response","147","139591","0.0-15.0-0.0-0.5","pctzqgnru7","","pctzqgnru7","""2024-11-12T18:28:33.211Z""","null","+","null","","","","","","",""
"","","","","","image-keyboard-response","148","140182","0.0-15.0-0.0-1.5","pctzqgnru7","","pctzqgnru7","""2024-11-12T18:28:33.211Z""","590","materials/imgs/D75.png","arrowright","","[""materials/imgs/D16.png"",""materials/imgs/D53.png""]","false","random","","",""
"","","","","","html-keyboard-response","149","140683","0.0-15.0-0.0-0.6","pctzqgnru7","","pctzqgnru7","""2024-11-12T18:28:33.211Z""","null","+","null","","","","","","",""
"","","","","","image-keyboard-response","150","141258","0.0-15.0-0.0-1.6","pctzqgnru7","","pctzqgnru7","""2024-11-12T18:28:33.211Z""","573","materials/imgs/D20.png","arrowleft","","[""materials/imgs/D34.png"",""materials/imgs/D76.png""]","false","random","","",""
"","","","","","html-keyboard-response","151","141758","0.0-15.0-1.0-0.0","pctzqgnru7","","pctzqgnru7","""2024-11-12T18:28:33.211Z""","null","+","null","","","","","","",""
"","","","","","image-keyboard-response","152","142488","0.0-15.0-1.0-1.0","pctzqgnru7","","pctzqgnru7","""2024-11-12T18:28:33.211Z""","729","materials/imgs/D106.png","arrowright","","[""materials/imgs/D106.png"",""materials/imgs/D101.png""]","","check","materials/imgs/D101.png","1","false"
"","","","","","html-keyboard-response","153","144065","0.0-15.0-1.0-2.0-0.0","pctzqgnru7","","pctzqgnru7","""2024-11-12T18:28:33.211Z""","1576","<p><strong>Incorrect!</strong></p>That was an attention check. Please pay attention while completing this task.<p>Press 'y' to continue.</p>","y","","","","","","",""
"","","","","","html-keyboard-response","154","144565","0.0-15.0-2.0-0.0","pctzqgnru7","","pctzqgnru7","""2024-11-12T18:28:33.211Z""","null","+","null","","","","","","",""
"","","","","","image-keyboard-response","155","145157","0.0-15.0-2.0-1.0","pctzqgnru7","","pctzqgnru7","""2024-11-12T18:28:33.211Z""","591","materials/imgs/D49.png","arrowleft","","[""materials/imgs/D8.png"",""materials/imgs/D101.png""]","false","validation","","",""
"","","","","","html-keyboard-response","156","145658","0.0-15.0-2.0-0.1","pctzqgnru7","","pctzqgnru7","""2024-11-12T18:28:33.211Z""","null","+","null","","","","","","",""
"","","","","","image-keyboard-response","157","146419","0.0-15.0-2.0-1.1","pctzqgnru7","","pctzqgnru7","""2024-11-12T18:28:33.211Z""","760","materials/imgs/D11.png","arrowleft","","[""materials/imgs/D83.png"",""materials/imgs/D48.png""]","false","validation","","",""
"","","","","","html-keyboard-response","158","146920","0.0-15.0-0.1-0.7","pctzqgnru7","","pctzqgnru7","""2024-11-12T18:28:33.211Z""","null","+","null","","","","","","",""
"","","","","","image-keyboard-response","159","147502","0.0-15.0-0.1-1.7","pctzqgnru7","","pctzqgnru7","""2024-11-12T18:28:33.211Z""","577","materials/imgs/D53.png","arrowleft","","[""materials/imgs/D14.png"",""materials/imgs/D19.png""]","false","random","","",""
"","","","","","html-keyboard-response","160","148003","0.0-15.0-0.1-0.8","pctzqgnru7","","pctzqgnru7","""2024-11-12T18:28:33.211Z""","null","+","null","","","","","","",""
"","","","","","image-keyboard-response","161","148952","0.0-15.0-0.1-1.8","pctzqgnru7","","pctzqgnru7","""2024-11-12T18:28:33.211Z""","948","materials/imgs/D14.png","arrowright","","[""materials/imgs/D68.png"",""materials/imgs/D24.png""]","false","random","","",""
"","","","","","html-keyboard-response","162","149453","0.0-15.0-0.1-0.9","pctzqgnru7","","pctzqgnru7","""2024-11-12T18:28:33.211Z""","null","+","null","","","","","","",""
"","","","","","image-keyboard-response","163","150412","0.0-15.0-0.1-1.9","pctzqgnru7","","pctzqgnru7","""2024-11-12T18:28:33.211Z""","957","materials/imgs/D6.png","arrowleft","","[""materials/imgs/D95.png"",""materials/imgs/D3.png""]","false","random","","",""
"","","","","","html-keyboard-response","164","150913","0.0-15.0-0.1-0.10","pctzqgnru7","","pctzqgnru7","""2024-11-12T18:28:33.211Z""","null","+","null","","","","","","",""
"","","","","","image-keyboard-response","165","151688","0.0-15.0-0.1-1.10","pctzqgnru7","","pctzqgnru7","""2024-11-12T18:28:33.211Z""","774","materials/imgs/D1.png","arrowright","","[""materials/imgs/D46.png"",""materials/imgs/D80.png""]","false","random","","",""
"","","","","","html-keyboard-response","166","152189","0.0-15.0-0.1-0.11","pctzqgnru7","","pctzqgnru7","""2024-11-12T18:28:33.211Z""","null","+","null","","","","","","",""
"","","","","","image-keyboard-response","167","152588","0.0-15.0-0.1-1.11","pctzqgnru7","","pctzqgnru7","""2024-11-12T18:28:33.211Z""","397","materials/imgs/D75.png","arrowright","","[""materials/imgs/D101.png"",""materials/imgs/D83.png""]","true","random","","",""
"","","","","","html-keyboard-response","168","155279","0.0-15.0-0.1-2.11-0.11","pctzqgnru7","","pctzqgnru7","""2024-11-12T18:28:33.211Z""","2691","<p><strong>You're going too fast.</strong><p>Please slow down and assess each triplet.<p>Press 'y' to continue.</p></p>","y","","","","","","",""
"","","","","","html-keyboard-response","169","155780","0.0-15.0-0.1-0.12","pctzqgnru7","","pctzqgnru7","""2024-11-12T18:28:33.211Z""","null","+","null","","","","","","",""
"","","","","","image-keyboard-response","170","156365","0.0-15.0-0.1-1.12","pctzqgnru7","","pctzqgnru7","""2024-11-12T18:28:33.211Z""","584","materials/imgs/D74.png","arrowright","","[""materials/imgs/D21.png"",""materials/imgs/D46.png""]","false","random","","",""
"","","","","","html-keyboard-response","171","156867","0.0-15.0-0.1-0.13","pctzqgnru7","","pctzqgnru7","""2024-11-12T18:28:33.211Z""","null","+","null","","","","","","",""
"","","","","","image-keyboard-response","172","157584","0.0-15.0-0.1-1.13","pctzqgnru7","","pctzqgnru7","""2024-11-12T18:28:33.211Z""","716","materials/imgs/D95.png","arrowleft","","[""materials/imgs/D76.png"",""materials/imgs/D21.png""]","false","random","","",""
"","","","","","html-keyboard-response","173","158086","0.0-15.0-1.1-0.1","pctzqgnru7","","pctzqgnru7","""2024-11-12T18:28:33.211Z""","null","+","null","","","","","","",""
"","","","","","image-keyboard-response","174","158863","0.0-15.0-1.1-1.1","pctzqgnru7","","pctzqgnru7","""2024-11-12T18:28:33.211Z""","776","materials/imgs/D18.png","arrowright","","[""materials/imgs/D8.png"",""materials/imgs/D18.png""]","","check","materials/imgs/D18.png","1","true"
"","","","","","html-keyboard-response","175","159364","0.0-15.0-2.1-0.2","pctzqgnru7","","pctzqgnru7","""2024-11-12T18:28:33.211Z""","null","+","null","","","","","","",""
"","","","","","image-keyboard-response","176","160150","0.0-15.0-2.1-1.2","pctzqgnru7","","pctzqgnru7","""2024-11-12T18:28:33.211Z""","784","materials/imgs/D77.png","arrowright","","[""materials/imgs/D102.png"",""materials/imgs/D65.png""]","false","validation","","",""
"","","","","","html-keyboard-response","177","160651","0.0-15.0-2.1-0.3","pctzqgnru7","","pctzqgnru7","""2024-11-12T18:28:33.211Z""","null","+","null","","","","","","",""
"","","","","","image-keyboard-response","178","161142","0.0-15.0-2.1-1.3","pctzqgnru7","","pctzqgnru7","""2024-11-12T18:28:33.211Z""","490","materials/imgs/D79.png","arrowright","","[""materials/imgs/D51.png"",""materials/imgs/D64.png""]","true","validation","","",""
"","","","","","html-keyboard-response","179","162960","0.0-15.0-2.1-2.3-0.3","pctzqgnru7","","pctzqgnru7","""2024-11-12T18:28:33.211Z""","1818","<p><strong>You're going too fast.</strong><p>Please slow down and assess each triplet.<p>Press 'y' to continue.</p></p>","y","","","","","","",""
"","","","","","html-keyboard-response","180","163462","0.0-15.0-0.2-0.14","pctzqgnru7","","pctzqgnru7","""2024-11-12T18:28:33.211Z""","null","+","null","","","","","","",""
"","","","","","image-keyboard-response","181","163885","0.0-15.0-0.2-1.14","pctzqgnru7","","pctzqgnru7","""2024-11-12T18:28:33.211Z""","423","materials/imgs/D11.png","arrowleft","","[""materials/imgs/D87.png"",""materials/imgs/D21.png""]","true","random","","",""
"","","","","","html-keyboard-response","182","165170","0.0-15.0-0.2-2.14-0.14","pctzqgnru7","","pctzqgnru7","""2024-11-12T18:28:33.211Z""","1284","<p><strong>You're going too fast.</strong><p>Please slow down and assess each triplet.<p>Press 'y' to continue.</p></p>","y","","","","","","",""
"","","","","","html-keyboard-response","183","165672","0.0-15.0-0.2-0.15","pctzqgnru7","","pctzqgnru7","""2024-11-12T18:28:33.211Z""","null","+","null","","","","","","",""
"","","","","","image-keyboard-response","184","166489","0.0-15.0-0.2-1.15","pctzqgnru7","","pctzqgnru7","""2024-11-12T18:28:33.211Z""","816","materials/imgs/D1.png","arrowleft","","[""materials/imgs/D83.png"",""materials/imgs/D3.png""]","false","random","","",""
"","","","","","html-keyboard-response","185","166991","0.0-15.0-0.2-0.16","pctzqgnru7","","pctzqgnru7","""2024-11-12T18:28:33.211Z""","null","+","null","","","","","","",""
"","","","","","image-keyboard-response","186","168567","0.0-15.0-0.2-1.16","pctzqgnru7","","pctzqgnru7","""2024-11-12T18:28:33.211Z""","1575","materials/imgs/D20.png","arrowleft","","[""materials/imgs/D82.png"",""materials/imgs/D8.png""]","false","random","","",""
"","","","","","html-keyboard-response","187","169068","0.0-15.0-0.2-0.17","pctzqgnru7","","pctzqgnru7","""2024-11-12T18:28:33.211Z""","null","+","null","","","","","","",""
"","","","","","image-keyboard-response","188","170347","0.0-15.0-0.2-1.17","pctzqgnru7","","pctzqgnru7","""2024-11-12T18:28:33.211Z""","1278","materials/imgs/D76.png","arrowright","","[""materials/imgs/D11.png"",""materials/imgs/D17.png""]","false","random","","",""
"","","","","","html-keyboard-response","189","170849","0.0-15.0-0.2-0.18","pctzqgnru7","","pctzqgnru7","""2024-11-12T18:28:33.211Z""","null","+","null","","","","","","",""
"","","","","","image-keyboard-response","190","171763","0.0-15.0-0.2-1.18","pctzqgnru7","","pctzqgnru7","""2024-11-12T18:28:33.211Z""","913","materials/imgs/D32.png","arrowright","","[""materials/imgs/D53.png"",""materials/imgs/D14.png""]","false","random","","",""
"","","","","","html-keyboard-response","191","172265","0.0-15.0-0.2-0.19","pctzqgnru7","","pctzqgnru7","""2024-11-12T18:28:33.211Z""","null","+","null","","","","","","",""
"","","","","","image-keyboard-response","192","173212","0.0-15.0-0.2-1.19","pctzqgnru7","","pctzqgnru7","""2024-11-12T18:28:33.211Z""","946","materials/imgs/D104.png","arrowright","","[""materials/imgs/D57.png"",""materials/imgs/D106.png""]","false","random","","",""
"","","","","","html-keyboard-response","193","173714","0.0-15.0-0.2-0.20","pctzqgnru7","","pctzqgnru7","""2024-11-12T18:28:33.211Z""","null","+","null","","","","","","",""
"","","","","","image-keyboard-response","194","174400","0.0-15.0-0.2-1.20","pctzqgnru7","","pctzqgnru7","""2024-11-12T18:28:33.211Z""","685","materials/imgs/D6.png","arrowright","","[""materials/imgs/D80.png"",""materials/imgs/D35.png""]","false","random","","",""
"","","","","","html-keyboard-response","195","174901","0.0-15.0-1.2-0.2","pctzqgnru7","","pctzqgnru7","""2024-11-12T18:28:33.211Z""","null","+","null","","","","","","",""
"","","","","","image-keyboard-response","196","175682","0.0-15.0-1.2-1.2","pctzqgnru7","","pctzqgnru7","""2024-11-12T18:28:33.211Z""","781","materials/imgs/D64.png","arrowright","","[""materials/imgs/D64.png"",""materials/imgs/D53.png""]","","check","materials/imgs/D53.png","1","false"
"","","","","","html-keyboard-response","197","181183","0.0-15.0-1.2-2.2-0.2","pctzqgnru7","","pctzqgnru7","""2024-11-12T18:28:33.211Z""","5500","<p><strong>Incorrect!</strong></p>That was an attention check. Please pay attention while completing this task.<p>Press 'y' to continue.</p>","y","","","","","","",""
"","","","","","html-keyboard-response","198","181684","0.0-15.0-2.2-0.4","pctzqgnru7","","pctzqgnru7","""2024-11-12T18:28:33.211Z""","null","+","null","","","","","","",""
"","","","","","image-keyboard-response","199","183908","0.0-15.0-2.2-1.4","pctzqgnru7","","pctzqgnru7","""2024-11-12T18:28:33.211Z""","2224","materials/imgs/D32.png","arrowleft","","[""materials/imgs/D68.png"",""materials/imgs/D96.png""]","false","validation","","",""
"","","","","","html-keyboard-response","200","184410","0.0-15.0-2.2-0.5","pctzqgnru7","","pctzqgnru7","""2024-11-12T18:28:33.211Z""","null","+","null","","","","","","",""
"","","","","","image-keyboard-response","201","185368","0.0-15.0-2.2-1.5","pctzqgnru7","","pctzqgnru7","""2024-11-12T18:28:33.211Z""","956","materials/imgs/D82.png","arrowright","","[""materials/imgs/D83.png"",""materials/imgs/D22.png""]","false","validation","","",""
"","","","","","html-keyboard-response","202","185869","0.0-15.0-0.3-0.21","pctzqgnru7","","pctzqgnru7","""2024-11-12T18:28:33.211Z""","null","+","null","","","","","","",""
"","","","","","image-keyboard-response","203","186581","0.0-15.0-0.3-1.21","pctzqgnru7","","pctzqgnru7","""2024-11-12T18:28:33.211Z""","712","materials/imgs/D80.png","arrowleft","","[""materials/imgs/D103.png"",""materials/imgs/D25.png""]","false","random","","",""
"","","","","","html-keyboard-response","204","187083","0.0-15.0-0.3-0.22","pctzqgnru7","","pctzqgnru7","""2024-11-12T18:28:33.211Z""","null","+","null","","","","","","",""
"","","","","","image-keyboard-response","205","188120","0.0-15.0-0.3-1.22","pctzqgnru7","","pctzqgnru7","""2024-11-12T18:28:33.211Z""","1036","materials/imgs/D35.png","arrowleft","","[""materials/imgs/D34.png"",""materials/imgs/D8.png""]","false","random","","",""
"","","","","","html-keyboard-response","206","188621","0.0-15.0-0.3-0.23","pctzqgnru7","","pctzqgnru7","""2024-11-12T18:28:33.211Z""","null","+","null","","","","","","",""
"","","","","","image-keyboard-response","207","189252","0.0-15.0-0.3-1.23","pctzqgnru7","","pctzqgnru7","""2024-11-12T18:28:33.211Z""","629","materials/imgs/D48.png","arrowleft","","[""materials/imgs/D16.png"",""materials/imgs/D105.png""]","false","random","","",""
"","","","","","html-keyboard-response","208","189753","0.0-15.0-0.3-0.24","pctzqgnru7","","pctzqgnru7","""2024-11-12T18:28:33.211Z""","null","+","null","","","","","","",""
"","","","","","image-keyboard-response","209","190353","0.0-15.0-0.3-1.24","pctzqgnru7","","pctzqgnru7","""2024-11-12T18:28:33.211Z""","599","materials/imgs/D105.png","arrowright","","[""materials/imgs/D76.png"",""materials/imgs/D37.png""]","false","random","","",""
"","","","","","html-keyboard-response","210","190853","0.0-15.0-0.3-0.25","pctzqgnru7","","pctzqgnru7","""2024-11-12T18:28:33.211Z""","null","+","null","","","","","","",""
"","","","","","image-keyboard-response","211","191587","0.0-15.0-0.3-1.25","pctzqgnru7","","pctzqgnru7","""2024-11-12T18:28:33.211Z""","733","materials/imgs/D74.png","arrowleft","","[""materials/imgs/D47.png"",""materials/imgs/D22.png""]","false","random","","",""
"","","","","","html-keyboard-response","212","192088","0.0-15.0-0.3-0.26","pctzqgnru7","","pctzqgnru7","""2024-11-12T18:28:33.211Z""","null","+","null","","","","","","",""
"","","","","","image-keyboard-response","213","192766","0.0-15.0-0.3-1.26","pctzqgnru7","","pctzqgnru7","""2024-11-12T18:28:33.211Z""","677","materials/imgs/D94.png","arrowleft","","[""materials/imgs/D37.png"",""materials/imgs/D53.png""]","false","random","","",""
"","","","","","html-keyboard-response","214","193267","0.0-15.0-0.3-0.27","pctzqgnru7","","pctzqgnru7","""2024-11-12T18:28:33.211Z""","null","+","null","","","","","","",""
"","","","","","image-keyboard-response","215","193992","0.0-15.0-0.3-1.27","pctzqgnru7","","pctzqgnru7","""2024-11-12T18:28:33.211Z""","723","materials/imgs/D79.png","arrowright","","[""materials/imgs/D84.png"",""materials/imgs/D106.png""]","false","random","","",""
"","","","","","html-keyboard-response","216","194494","0.0-15.0-1.3-0.3","pctzqgnru7","","pctzqgnru7","""2024-11-12T18:28:33.211Z""","null","+","null","","","","","","",""
"","","","","","image-keyboard-response","217","195054","0.0-15.0-1.3-1.3","pctzqgnru7","","pctzqgnru7","""2024-11-12T18:28:33.211Z""","559","materials/imgs/D106.png","arrowleft","","[""materials/imgs/D106.png"",""materials/imgs/D101.png""]","","check","materials/imgs/D106.png","0","true"
"","","","","","html-keyboard-response","218","195555","0.0-15.0-2.3-0.6","pctzqgnru7","","pctzqgnru7","""2024-11-12T18:28:33.211Z""","null","+","null","","","","","","",""
"","","","","","image-keyboard-response","219","196321","0.0-15.0-2.3-1.6","pctzqgnru7","","pctzqgnru7","""2024-11-12T18:28:33.211Z""","765","materials/imgs/D8.png","arrowleft","","[""materials/imgs/D101.png"",""materials/imgs/D52.png""]","false","validation","","",""
"","","","","","html-keyboard-response","220","196823","0.0-15.0-2.3-0.7","pctzqgnru7","","pctzqgnru7","""2024-11-12T18:28:33.211Z""","null","+","null","","","","","","",""
"","","","","","image-keyboard-response","221","197402","0.0-15.0-2.3-1.7","pctzqgnru7","","pctzqgnru7","""2024-11-12T18:28:33.211Z""","578","materials/imgs/D24.png","arrowleft","","[""materials/imgs/D36.png"",""materials/imgs/D8.png""]","false","validation","","",""
"","","","","","html-keyboard-response","222","197902","0.0-15.0-0.4-0.28","pctzqgnru7","","pctzqgnru7","""2024-11-12T18:28:33.211Z""","null","+","null","","","","","","",""
"","","","","","image-keyboard-response","223","198528","0.0-15.0-0.4-1.28","pctzqgnru7","","pctzqgnru7","""2024-11-12T18:28:33.211Z""","625","materials/imgs/D82.png","arrowright","","[""materials/imgs/D17.png"",""materials/imgs/D9.png""]","false","random","","",""
"","","","","","html-keyboard-response","224","199029","0.0-15.0-0.4-0.29","pctzqgnru7","","pctzqgnru7","""2024-11-12T18:28:33.211Z""","null","+","null","","","","","","",""
"","","","","","image-keyboard-response","225","199583","0.0-15.0-0.4-1.29","pctzqgnru7","","pctzqgnru7","""2024-11-12T18:28:33.211Z""","553","materials/imgs/D51.png","arrowleft","","[""materials/imgs/D29.png"",""materials/imgs/D32.png""]","false","random","","",""
"","","","","","html-keyboard-response","226","200084","0.0-15.0-0.4-0.30","pctzqgnru7","","pctzqgnru7","""2024-11-12T18:28:33.211Z""","null","+","null","","","","","","",""
"","","","","","image-keyboard-response","227","200790","0.0-15.0-0.4-1.30","pctzqgnru7","","pctzqgnru7","""2024-11-12T18:28:33.211Z""","706","materials/imgs/D104.png","arrowright","","[""materials/imgs/D52.png"",""materials/imgs/D37.png""]","false","random","","",""
"","","","","","html-keyboard-response","228","201292","0.0-15.0-0.4-0.31","pctzqgnru7","","pctzqgnru7","""2024-11-12T18:28:33.211Z""","null","+","null","","","","","","",""
"","","","","","image-keyboard-response","229","202505","0.0-15.0-0.4-1.31","pctzqgnru7","","pctzqgnru7","""2024-11-12T18:28:33.211Z""","1212","materials/imgs/D64.png","arrowright","","[""materials/imgs/D32.png"",""materials/imgs/D84.png""]","false","random","","",""
"","","","","","html-keyboard-response","230","203006","0.0-15.0-0.4-0.32","pctzqgnru7","","pctzqgnru7","""2024-11-12T18:28:33.211Z""","null","+","null","","","","","","",""
"","","","","","image-keyboard-response","231","203764","0.0-15.0-0.4-1.32","pctzqgnru7","","pctzqgnru7","""2024-11-12T18:28:33.211Z""","757","materials/imgs/D80.png","arrowleft","","[""materials/imgs/D84.png"",""materials/imgs/D8.png""]","false","random","","",""
"","","","","","html-keyboard-response","232","204266","0.0-15.0-0.4-0.33","pctzqgnru7","","pctzqgnru7","""2024-11-12T18:28:33.211Z""","null","+","null","","","","","","",""
"","","","","","image-keyboard-response","233","204904","0.0-15.0-0.4-1.33","pctzqgnru7","","pctzqgnru7","""2024-11-12T18:28:33.211Z""","637","materials/imgs/D26.png","arrowright","","[""materials/imgs/D57.png"",""materials/imgs/D104.png""]","false","random","","",""
"","","","","","html-keyboard-response","234","205405","0.0-15.0-0.4-0.34","pctzqgnru7","","pctzqgnru7","""2024-11-12T18:28:33.211Z""","null","+","null","","","","","","",""
"","","","","","image-keyboard-response","235","206100","0.0-15.0-0.4-1.34","pctzqgnru7","","pctzqgnru7","""2024-11-12T18:28:33.211Z""","693","materials/imgs/D95.png","arrowright","","[""materials/imgs/D22.png"",""materials/imgs/D84.png""]","false","random","","",""
"","","","","","html-keyboard-response","236","206600","0.0-15.0-1.4-0.4","pctzqgnru7","","pctzqgnru7","""2024-11-12T18:28:33.211Z""","null","+","null","","","","","","",""
"","","","","","image-keyboard-response","237","207138","0.0-15.0-1.4-1.4","pctzqgnru7","","pctzqgnru7","""2024-11-12T18:28:33.211Z""","536","materials/imgs/D101.png","arrowright","","[""materials/imgs/D106.png"",""materials/imgs/D101.png""]","","check","materials/imgs/D101.png","1","true"
"","","","","","html-keyboard-response","238","207639","0.0-15.0-2.4-0.8","pctzqgnru7","","pctzqgnru7","""2024-11-12T18:28:33.211Z""","null","+","null","","","","","","",""
"","","","","","image-keyboard-response","239","208307","0.0-15.0-2.4-1.8","pctzqgnru7","","pctzqgnru7","""2024-11-12T18:28:33.211Z""","667","materials/imgs/D35.png","arrowleft","","[""materials/imgs/D83.png"",""materials/imgs/D24.png""]","false","validation","","",""
"","","","","","html-keyboard-response","240","208808","0.0-15.0-2.4-0.9","pctzqgnru7","","pctzqgnru7","""2024-11-12T18:28:33.211Z""","null","+","null","","","","","","",""
"","","","","","image-keyboard-response","241","209477","0.0-15.0-2.4-1.9","pctzqgnru7","","pctzqgnru7","""2024-11-12T18:28:33.211Z""","668","materials/imgs/D20.png","arrowright","","[""materials/imgs/D84.png"",""materials/imgs/D85.png""]","false","validation","","",""
"","","","","","html-button-response","242","212175","0.0-16.0","pctzqgnru7","","pctzqgnru7","""2024-11-12T18:28:33.211Z""","2698","You have completed 50% of the trials. Please click 'Continue' when you are ready proceed.","0","","","","","","",""
"","","","","","html-keyboard-response","243","212677","0.0-17.0-0.0-0.0","pctzqgnru7","","pctzqgnru7","""2024-11-12T18:28:33.211Z""","null","+","null","","","","","","",""
"","","","","","image-keyboard-response","244","213350","0.0-17.0-0.0-1.0","pctzqgnru7","","pctzqgnru7","""2024-11-12T18:28:33.211Z""","672","materials/imgs/D95.png","arrowleft","","[""materials/imgs/D56.png"",""materials/imgs/D37.png""]","false","random","","",""
"","","","","","html-keyboard-response","245","213851","0.0-17.0-0.0-0.1","pctzqgnru7","","pctzqgnru7","""2024-11-12T18:28:33.211Z""","null","+","null","","","","","","",""
"","","","","","image-keyboard-response","246","214390","0.0-17.0-0.0-1.1","pctzqgnru7","","pctzqgnru7","""2024-11-12T18:28:33.211Z""","537","materials/imgs/D78.png","arrowright","","[""materials/imgs/D56.png"",""materials/imgs/D84.png""]","false","random","","",""
"","","","","","html-keyboard-response","247","214891","0.0-17.0-0.0-0.2","pctzqgnru7","","pctzqgnru7","""2024-11-12T18:28:33.211Z""","null","+","null","","","","","","",""
"","","","","","image-keyboard-response","248","215589","0.0-17.0-0.0-1.2","pctzqgnru7","","pctzqgnru7","""2024-11-12T18:28:33.211Z""","696","materials/imgs/D65.png","arrowright","","[""materials/imgs/D19.png"",""materials/imgs/D74.png""]","false","random","","",""
"","","","","","html-keyboard-response","249","216090","0.0-17.0-0.0-0.3","pctzqgnru7","","pctzqgnru7","""2024-11-12T18:28:33.211Z""","null","+","null","","","","","","",""
"","","","","","image-keyboard-response","250","217835","0.0-17.0-0.0-1.3","pctzqgnru7","","pctzqgnru7","""2024-11-12T18:28:33.211Z""","1743","materials/imgs/D74.png","arrowright","","[""materials/imgs/D52.png"",""materials/imgs/D16.png""]","false","random","","",""
"","","","","","html-keyboard-response","251","218336","0.0-17.0-0.0-0.4","pctzqgnru7","","pctzqgnru7","""2024-11-12T18:28:33.211Z""","null","+","null","","","","","","",""
"","","","","","image-keyboard-response","252","218958","0.0-17.0-0.0-1.4","pctzqgnru7","","pctzqgnru7","""2024-11-12T18:28:33.211Z""","621","materials/imgs/D81.png","arrowleft","","[""materials/imgs/D37.png"",""materials/imgs/D101.png""]","false","random","","",""
"","","","","","html-keyboard-response","253","219459","0.0-17.0-0.0-0.5","pctzqgnru7","","pctzqgnru7","""2024-11-12T18:28:33.211Z""","null","+","null","","","","","","",""
"","","","","","image-keyboard-response","254","220222","0.0-17.0-0.0-1.5","pctzqgnru7","","pctzqgnru7","""2024-11-12T18:28:33.211Z""","762","materials/imgs/D81.png","arrowright","","[""materials/imgs/D87.png"",""materials/imgs/D9.png""]","false","random","","",""
"","","","","","html-keyboard-response","255","220724","0.0-17.0-0.0-0.6","pctzqgnru7","","pctzqgnru7","""2024-11-12T18:28:33.211Z""","null","+","null","","","","","","",""
"","","","","","image-keyboard-response","256","221201","0.0-17.0-0.0-1.6","pctzqgnru7","","pctzqgnru7","""2024-11-12T18:28:33.211Z""","476","materials/imgs/D81.png","arrowright","","[""materials/imgs/D76.png"",""materials/imgs/D9.png""]","true","random","","",""
"","","","","","html-keyboard-response","257","222415","0.0-17.0-0.0-2.6-0.6","pctzqgnru7","","pctzqgnru7","""2024-11-12T18:28:33.211Z""","1213","<p><strong>You're going too fast.</strong><p>Please slow down and assess each triplet.<p>Press 'y' to continue.</p></p>","y","","","","","","",""
"","","","","","html-keyboard-response","258","222916","0.0-17.0-1.0-0.0","pctzqgnru7","","pctzqgnru7","""2024-11-12T18:28:33.211Z""","null","+","null","","","","","","",""
"","","","","","image-keyboard-response","259","223447","0.0-17.0-1.0-1.0","pctzqgnru7","","pctzqgnru7","""2024-11-12T18:28:33.211Z""","530","materials/imgs/D64.png","arrowleft","","[""materials/imgs/D64.png"",""materials/imgs/D53.png""]","","check","materials/imgs/D64.png","0","true"
"","","","","","html-keyboard-response","260","223949","0.0-17.0-2.0-0.0","pctzqgnru7","","pctzqgnru7","""2024-11-12T18:28:33.211Z""","null","+","null","","","","","","",""
"","","","","","image-keyboard-response","261","225879","0.0-17.0-2.0-1.0","pctzqgnru7","","pctzqgnru7","""2024-11-12T18:28:33.211Z""","1929","materials/imgs/D84.png","arrowright","","[""materials/imgs/D106.png"",""materials/imgs/D37.png""]","false","validation","","",""
"","","","","","html-keyboard-response","262","226380","0.0-17.0-2.0-0.1","pctzqgnru7","","pctzqgnru7","""2024-11-12T18:28:33.211Z""","null","+","null","","","","","","",""
"","","","","","image-keyboard-response","263","227598","0.0-17.0-2.0-1.1","pctzqgnru7","","pctzqgnru7","""2024-11-12T18:28:33.211Z""","1218","materials/imgs/D51.png","arrowright","","[""materials/imgs/D92.png"",""materials/imgs/D20.png""]","false","validation","","",""
"","","","","","html-keyboard-response","264","228099","0.0-17.0-0.1-0.7","pctzqgnru7","","pctzqgnru7","""2024-11-12T18:28:33.211Z""","null","+","null","","","","","","",""
"","","","","","image-keyboard-response","265","229211","0.0-17.0-0.1-1.7","pctzqgnru7","","pctzqgnru7","""2024-11-12T18:28:33.211Z""","1111","materials/imgs/D8.png","arrowright","","[""materials/imgs/D78.png"",""materials/imgs/D11.png""]","false","random","","",""
"","","","","","html-keyboard-response","266","229712","0.0-17.0-0.1-0.8","pctzqgnru7","","pctzqgnru7","""2024-11-12T18:28:33.211Z""","null","+","null","","","","","","",""
"","","","","","image-keyboard-response","267","230348","0.0-17.0-0.1-1.8","pctzqgnru7","","pctzqgnru7","""2024-11-12T18:28:33.211Z""","635","materials/imgs/D8.png","arrowleft","","[""materials/imgs/D56.png"",""materials/imgs/D104.png""]","false","random","","",""
"","","","","","html-keyboard-response","268","230849","0.0-17.0-0.1-0.9","pctzqgnru7","","pctzqgnru7","""2024-11-12T18:28:33.211Z""","null","+","null","","","","","","",""
"","","","","","image-keyboard-response","269","231399","0.0-17.0-0.1-1.9","pctzqgnru7","","pctzqgnru7","""2024-11-12T18:28:33.211Z""","549","materials/imgs/D85.png","arrowright","","[""materials/imgs/D19.png"",""materials/imgs/D29.png""]","false","random","","",""
"","","","","","html-keyboard-response","270","231900","0.0-17.0-0.1-0.10","pctzqgnru7","","pctzqgnru7","""2024-11-12T18:28:33.211Z""","null","+","null","","","","","","",""
"","","","","","image-keyboard-response","271","233305","0.0-17.0-0.1-1.10","pctzqgnru7","","pctzqgnru7","""2024-11-12T18:28:33.211Z""","1404","materials/imgs/D9.png","arrowright","","[""materials/imgs/D76.png"",""materials/imgs/D79.png""]","false","random","","",""
"","","","","","html-keyboard-response","272","233806","0.0-17.0-0.1-0.11","pctzqgnru7","","pctzqgnru7","""2024-11-12T18:28:33.211Z""","null","+","null","","","","","","",""
"","","","","","image-keyboard-response","273","234724","0.0-17.0-0.1-1.11","pctzqgnru7","","pctzqgnru7","""2024-11-12T18:28:33.211Z""","916","materials/imgs/D3.png","arrowright","","[""materials/imgs/D83.png"",""materials/imgs/D14.png""]","false","random","","",""
"","","","","","html-keyboard-response","274","235225","0.0-17.0-0.1-0.12","pctzqgnru7","","pctzqgnru7","""2024-11-12T18:28:33.211Z""","null","+","null","","","","","","",""
"","","","","","image-keyboard-response","275","236362","0.0-17.0-0.1-1.12","pctzqgnru7","","pctzqgnru7","""2024-11-12T18:28:33.211Z""","1137","materials/imgs/D3.png","arrowright","","[""materials/imgs/D84.png"",""materials/imgs/D35.png""]","false","random","","",""
"","","","","","html-keyboard-response","276","236864","0.0-17.0-0.1-0.13","pctzqgnru7","","pctzqgnru7","""2024-11-12T18:28:33.211Z""","null","+","null","","","","","","",""
"","","","","","image-keyboard-response","277","237711","0.0-17.0-0.1-1.13","pctzqgnru7","","pctzqgnru7","""2024-11-12T18:28:33.211Z""","847","materials/imgs/D37.png","arrowright","","[""materials/imgs/D55.png"",""materials/imgs/D1.png""]","false","random","","",""
"","","","","","html-keyboard-response","278","238213","0.0-17.0-1.1-0.1","pctzqgnru7","","pctzqgnru7","""2024-11-12T18:28:33.211Z""","null","+","null","","","","","","",""
"","","","","","image-keyboard-response","279","238855","0.0-17.0-1.1-1.1","pctzqgnru7","","pctzqgnru7","""2024-11-12T18:28:33.211Z""","641","materials/imgs/D46.png","arrowleft","","[""materials/imgs/D46.png"",""materials/imgs/D26.png""]","","check","materials/imgs/D46.png","0","true"
"","","","","","html-keyboard-response","280","239356","0.0-17.0-2.1-0.2","pctzqgnru7","","pctzqgnru7","""2024-11-12T18:28:33.211Z""","null","+","null","","","","","","",""
"","","","","","image-keyboard-response","281","240182","0.0-17.0-2.1-1.2","pctzqgnru7","","pctzqgnru7","""2024-11-12T18:28:33.211Z""","825","materials/imgs/D47.png","arrowleft","","[""materials/imgs/D1.png"",""materials/imgs/D52.png""]","false","validation","","",""
"","","","","","html-keyboard-response","282","240684","0.0-17.0-2.1-0.3","pctzqgnru7","","pctzqgnru7","""2024-11-12T18:28:33.211Z""","null","+","null","","","","","","",""
"","","","","","image-keyboard-response","283","241935","0.0-17.0-2.1-1.3","pctzqgnru7","","pctzqgnru7","""2024-11-12T18:28:33.211Z""","1251","materials/imgs/D105.png","arrowleft","","[""materials/imgs/D106.png"",""materials/imgs/D52.png""]","false","validation","","",""
"","","","","","html-keyboard-response","284","242437","0.0-17.0-0.2-0.14","pctzqgnru7","","pctzqgnru7","""2024-11-12T18:28:33.211Z""","null","+","null","","","","","","",""
"","","","","","image-keyboard-response","285","243052","0.0-17.0-0.2-1.14","pctzqgnru7","","pctzqgnru7","""2024-11-12T18:28:33.211Z""","614","materials/imgs/D52.png","arrowleft","","[""materials/imgs/D56.png"",""materials/imgs/D81.png""]","false","random","","",""
"","","","","","html-keyboard-response","286","243553","0.0-17.0-0.2-0.15","pctzqgnru7","","pctzqgnru7","""2024-11-12T18:28:33.211Z""","null","+","null","","","","","","",""
"","","","","","image-keyboard-response","287","244363","0.0-17.0-0.2-1.15","pctzqgnru7","","pctzqgnru7","""2024-11-12T18:28:33.211Z""","810","materials/imgs/D76.png","arrowleft","","[""materials/imgs/D64.png"",""materials/imgs/D6.png""]","false","random","","",""
"","","","","","html-keyboard-response","288","244865","0.0-17.0-0.2-0.16","pctzqgnru7","","pctzqgnru7","""2024-11-12T18:28:33.211Z""","null","+","null","","","","","","",""
"","","","","","image-keyboard-response","289","246332","0.0-17.0-0.2-1.16","pctzqgnru7","","pctzqgnru7","""2024-11-12T18:28:33.211Z""","1466","materials/imgs/D35.png","arrowleft","","[""materials/imgs/D53.png"",""materials/imgs/D46.png""]","false","random","","",""
"","","","","","html-keyboard-response","290","246833","0.0-17.0-0.2-0.17","pctzqgnru7","","pctzqgnru7","""2024-11-12T18:28:33.211Z""","null","+","null","","","","","","",""
"","","","","","image-keyboard-response","291","247520","0.0-17.0-0.2-1.17","pctzqgnru7","","pctzqgnru7","""2024-11-12T18:28:33.211Z""","684","materials/imgs/D35.png","arrowleft","","[""materials/imgs/D4.png"",""materials/imgs/D24.png""]","false","random","","",""
"","","","","","html-keyboard-response","292","248022","0.0-17.0-0.2-0.18","pctzqgnru7","","pctzqgnru7","""2024-11-12T18:28:33.211Z""","null","+","null","","","","","","",""
"","","","","","image-keyboard-response","293","248793","0.0-17.0-0.2-1.18","pctzqgnru7","","pctzqgnru7","""2024-11-12T18:28:33.211Z""","770","materials/imgs/D68.png","arrowleft","","[""materials/imgs/D55.png"",""materials/imgs/D49.png""]","false","random","","",""
"","","","","","html-keyboard-response","294","249294","0.0-17.0-0.2-0.19","pctzqgnru7","","pctzqgnru7","""2024-11-12T18:28:33.211Z""","null","+","null","","","","","","",""
"","","","","","image-keyboard-response","295","250298","0.0-17.0-0.2-1.19","pctzqgnru7","","pctzqgnru7","""2024-11-12T18:28:33.211Z""","1003","materials/imgs/D52.png","arrowleft","","[""materials/imgs/D102.png"",""materials/imgs/D47.png""]","false","random","","",""
"","","","","","html-keyboard-response","296","250799","0.0-17.0-0.2-0.20","pctzqgnru7","","pctzqgnru7","""2024-11-12T18:28:33.211Z""","null","+","null","","","","","","",""
"","","","","","image-keyboard-response","297","251706","0.0-17.0-0.2-1.20","pctzqgnru7","","pctzqgnru7","""2024-11-12T18:28:33.211Z""","906","materials/imgs/D17.png","arrowleft","","[""materials/imgs/D103.png"",""materials/imgs/D36.png""]","false","random","","",""
"","","","","","html-keyboard-response","298","252208","0.0-17.0-1.2-0.2","pctzqgnru7","","pctzqgnru7","""2024-11-12T18:28:33.211Z""","null","+","null","","","","","","",""
"","","","","","image-keyboard-response","299","253136","0.0-17.0-1.2-1.2","pctzqgnru7","","pctzqgnru7","""2024-11-12T18:28:33.211Z""","928","materials/imgs/D64.png","arrowleft","","[""materials/imgs/D64.png"",""materials/imgs/D53.png""]","","check","materials/imgs/D64.png","0","true"
"","","","","","html-keyboard-response","300","253637","0.0-17.0-2.2-0.4","pctzqgnru7","","pctzqgnru7","""2024-11-12T18:28:33.211Z""","null","+","null","","","","","","",""
"","","","","","image-keyboard-response","301","254321","0.0-17.0-2.2-1.4","pctzqgnru7","","pctzqgnru7","""2024-11-12T18:28:33.211Z""","683","materials/imgs/D81.png","arrowright","","[""materials/imgs/D105.png"",""materials/imgs/D24.png""]","false","validation","","",""
"","","","","","html-keyboard-response","302","254823","0.0-17.0-2.2-0.5","pctzqgnru7","","pctzqgnru7","""2024-11-12T18:28:33.211Z""","null","+","null","","","","","","",""
"","","","","","image-keyboard-response","303","255753","0.0-17.0-2.2-1.5","pctzqgnru7","","pctzqgnru7","""2024-11-12T18:28:33.211Z""","930","materials/imgs/D1.png","arrowleft","","[""materials/imgs/D57.png"",""materials/imgs/D76.png""]","false","validation","","",""
"","","","","","html-keyboard-response","304","256255","0.0-17.0-0.3-0.21","pctzqgnru7","","pctzqgnru7","""2024-11-12T18:28:33.211Z""","null","+","null","","","","","","",""
"","","","","","image-keyboard-response","305","256851","0.0-17.0-0.3-1.21","pctzqgnru7","","pctzqgnru7","""2024-11-12T18:28:33.211Z""","595","materials/imgs/D64.png","arrowleft","","[""materials/imgs/D96.png"",""materials/imgs/D34.png""]","false","random","","",""
"","","","","","html-keyboard-response","306","257352","0.0-17.0-0.3-0.22","pctzqgnru7","","pctzqgnru7","""2024-11-12T18:28:33.211Z""","null","+","null","","","","","","",""
"","","","","","image-keyboard-response","307","257952","0.0-17.0-0.3-1.22","pctzqgnru7","","pctzqgnru7","""2024-11-12T18:28:33.211Z""","598","materials/imgs/D21.png","arrowright","","[""materials/imgs/D94.png"",""materials/imgs/D49.png""]","false","random","","",""
"","","","","","html-keyboard-response","308","258453","0.0-17.0-0.3-0.23","pctzqgnru7","","pctzqgnru7","""2024-11-12T18:28:33.211Z""","null","+","null","","","","","","",""
"","","","","","image-keyboard-response","309","259220","0.0-17.0-0.3-1.23","pctzqgnru7","","pctzqgnru7","""2024-11-12T18:28:33.211Z""","767","materials/imgs/D101.png","arrowleft","","[""materials/imgs/D47.png"",""materials/imgs/D34.png""]","false","random","","",""
"","","","","","html-keyboard-response","310","259721","0.0-17.0-0.3-0.24","pctzqgnru7","","pctzqgnru7","""2024-11-12T18:28:33.211Z""","null","+","null","","","","","","",""
"","","","","","image-keyboard-response","311","260281","0.0-17.0-0.3-1.24","pctzqgnru7","","pctzqgnru7","""2024-11-12T18:28:33.211Z""","559","materials/imgs/D75.png","arrowleft","","[""materials/imgs/D32.png"",""materials/imgs/D77.png""]","false","random","","",""
"","","","","","html-keyboard-response","312","260783","0.0-17.0-0.3-0.25","pctzqgnru7","","pctzqgnru7","""2024-11-12T18:28:33.211Z""","null","+","null","","","","","","",""
"","","","","","image-keyboard-response","313","261301","0.0-17.0-0.3-1.25","pctzqgnru7","","pctzqgnru7","""2024-11-12T18:28:33.211Z""","517","materials/imgs/D68.png","arrowright","","[""materials/imgs/D22.png"",""materials/imgs/D85.png""]","false","random","","",""
"","","","","","html-keyboard-response","314","261801","0.0-17.0-0.3-0.26","pctzqgnru7","","pctzqgnru7","""2024-11-12T18:28:33.211Z""","null","+","null","","","","","","",""
"","","","","","image-keyboard-response","315","262598","0.0-17.0-0.3-1.26","pctzqgnru7","","pctzqgnru7","""2024-11-12T18:28:33.211Z""","795","materials/imgs/D76.png","arrowright","","[""materials/imgs/D87.png"",""materials/imgs/D66.png""]","false","random","","",""
"","","","","","html-keyboard-response","316","263099","0.0-17.0-0.3-0.27","pctzqgnru7","","pctzqgnru7","""2024-11-12T18:28:33.211Z""","null","+","null","","","","","","",""
"","","","","","image-keyboard-response","317","263759","0.0-17.0-0.3-1.27","pctzqgnru7","","pctzqgnru7","""2024-11-12T18:28:33.211Z""","659","materials/imgs/D104.png","arrowleft","","[""materials/imgs/D79.png"",""materials/imgs/D106.png""]","false","random","","",""
"","","","","","html-keyboard-response","318","264261","0.0-17.0-1.3-0.3","pctzqgnru7","","pctzqgnru7","""2024-11-12T18:28:33.211Z""","null","+","null","","","","","","",""
"","","","","","image-keyboard-response","319","264756","0.0-17.0-1.3-1.3","pctzqgnru7","","pctzqgnru7","""2024-11-12T18:28:33.211Z""","495","materials/imgs/D18.png","arrowright","","[""materials/imgs/D8.png"",""materials/imgs/D18.png""]","","check","materials/imgs/D18.png","1","true"
"","","","","","html-keyboard-response","320","265258","0.0-17.0-2.3-0.6","pctzqgnru7","","pctzqgnru7","""2024-11-12T18:28:33.211Z""","null","+","null","","","","","","",""
"","","","","","image-keyboard-response","321","265889","0.0-17.0-2.3-1.6","pctzqgnru7","","pctzqgnru7","""2024-11-12T18:28:33.211Z""","631","materials/imgs/D76.png","arrowleft","","[""materials/imgs/D83.png"",""materials/imgs/D6.png""]","false","validation","","",""
"","","","","","html-keyboard-response","322","266391","0.0-17.0-2.3-0.7","pctzqgnru7","","pctzqgnru7","""2024-11-12T18:28:33.211Z""","null","+","null","","","","","","",""
"","","","","","image-keyboard-response","323","267247","0.0-17.0-2.3-1.7","pctzqgnru7","","pctzqgnru7","""2024-11-12T18:28:33.211Z""","855","materials/imgs/D105.png","arrowleft","","[""materials/imgs/D106.png"",""materials/imgs/D52.png""]","false","validation","","",""
"","","","","","html-keyboard-response","324","267749","0.0-17.0-0.4-0.28","pctzqgnru7","","pctzqgnru7","""2024-11-12T18:28:33.211Z""","null","+","null","","","","","","",""
"","","","","","image-keyboard-response","325","268352","0.0-17.0-0.4-1.28","pctzqgnru7","","pctzqgnru7","""2024-11-12T18:28:33.211Z""","601","materials/imgs/D65.png","arrowleft","","[""materials/imgs/D101.png"",""materials/imgs/D25.png""]","false","random","","",""
"","","","","","html-keyboard-response","326","268853","0.0-17.0-0.4-0.29","pctzqgnru7","","pctzqgnru7","""2024-11-12T18:28:33.211Z""","null","+","null","","","","","","",""
"","","","","","image-keyboard-response","327","269536","0.0-17.0-0.4-1.29","pctzqgnru7","","pctzqgnru7","""2024-11-12T18:28:33.211Z""","681","materials/imgs/D47.png","arrowleft","","[""materials/imgs/D111.png"",""materials/imgs/D105.png""]","false","random","","",""
"","","","","","html-keyboard-response","328","270037","0.0-17.0-0.4-0.30","pctzqgnru7","","pctzqgnru7","""2024-11-12T18:28:33.211Z""","null","+","null","","","","","","",""
"","","","","","image-keyboard-response","329","270702","0.0-17.0-0.4-1.30","pctzqgnru7","","pctzqgnru7","""2024-11-12T18:28:33.211Z""","664","materials/imgs/D25.png","arrowleft","","[""materials/imgs/D94.png"",""materials/imgs/D105.png""]","false","random","","",""
"","","","","","html-keyboard-response","330","271204","0.0-17.0-0.4-0.31","pctzqgnru7","","pctzqgnru7","""2024-11-12T18:28:33.211Z""","null","+","null","","","","","","",""
"","","","","","image-keyboard-response","331","271741","0.0-17.0-0.4-1.31","pctzqgnru7","","pctzqgnru7","""2024-11-12T18:28:33.211Z""","536","materials/imgs/D47.png","arrowright","","[""materials/imgs/D34.png"",""materials/imgs/D25.png""]","false","random","","",""
"","","","","","html-keyboard-response","332","272241","0.0-17.0-0.4-0.32","pctzqgnru7","","pctzqgnru7","""2024-11-12T18:28:33.211Z""","null","+","null","","","","","","",""
"","","","","","image-keyboard-response","333","272825","0.0-17.0-0.4-1.32","pctzqgnru7","","pctzqgnru7","""2024-11-12T18:28:33.211Z""","583","materials/imgs/D82.png","arrowleft","","[""materials/imgs/D83.png"",""materials/imgs/D77.png""]","false","random","","",""
"","","","","","html-keyboard-response","334","273327","0.0-17.0-0.4-0.33","pctzqgnru7","","pctzqgnru7","""2024-11-12T18:28:33.211Z""","null","+","null","","","","","","",""
"","","","","","image-keyboard-response","335","274038","0.0-17.0-0.4-1.33","pctzqgnru7","","pctzqgnru7","""2024-11-12T18:28:33.211Z""","710","materials/imgs/D18.png","arrowleft","","[""materials/imgs/D103.png"",""materials/imgs/D105.png""]","false","random","","",""
"","","","","","html-keyboard-response","336","274540","0.0-17.0-0.4-0.34","pctzqgnru7","","pctzqgnru7","""2024-11-12T18:28:33.211Z""","null","+","null","","","","","","",""
"","","","","","image-keyboard-response","337","275130","0.0-17.0-0.4-1.34","pctzqgnru7","","pctzqgnru7","""2024-11-12T18:28:33.211Z""","590","materials/imgs/D16.png","arrowright","","[""materials/imgs/D32.png"",""materials/imgs/D106.png""]","false","random","","",""
"","","","","","html-keyboard-response","338","275632","0.0-17.0-1.4-0.4","pctzqgnru7","","pctzqgnru7","""2024-11-12T18:28:33.211Z""","null","+","null","","","","","","",""
"","","","","","image-keyboard-response","339","276196","0.0-17.0-1.4-1.4","pctzqgnru7","","pctzqgnru7","""2024-11-12T18:28:33.211Z""","564","materials/imgs/D101.png","arrowright","","[""materials/imgs/D106.png"",""materials/imgs/D101.png""]","","check","materials/imgs/D101.png","1","true"
"","","","","","html-keyboard-response","340","276698","0.0-17.0-2.4-0.8","pctzqgnru7","","pctzqgnru7","""2024-11-12T18:28:33.211Z""","null","+","null","","","","","","",""
"","","","","","image-keyboard-response","341","277319","0.0-17.0-2.4-1.8","pctzqgnru7","","pctzqgnru7","""2024-11-12T18:28:33.211Z""","621","materials/imgs/D36.png","arrowleft","","[""materials/imgs/D47.png"",""materials/imgs/D49.png""]","false","validation","","",""
"","","","","","html-keyboard-response","342","277820","0.0-17.0-2.4-0.9","pctzqgnru7","","pctzqgnru7","""2024-11-12T18:28:33.211Z""","null","+","null","","","","","","",""
"","","","","","image-keyboard-response","343","278361","0.0-17.0-2.4-1.9","pctzqgnru7","","pctzqgnru7","""2024-11-12T18:28:33.211Z""","539","materials/imgs/D19.png","arrowright","","[""materials/imgs/D111.png"",""materials/imgs/D56.png""]","false","validation","","",""
"","","","","","html-button-response","344","279424","0.0-18.0","pctzqgnru7","","pctzqgnru7","""2024-11-12T18:28:33.211Z""","1063","You have completed 75% of the trials. Please click 'Continue' when you are ready proceed.","0","","","","","","",""
"","","","","","html-keyboard-response","345","279925","0.0-19.0-0.0-0.0","pctzqgnru7","","pctzqgnru7","""2024-11-12T18:28:33.211Z""","null","+","null","","","","","","",""
"","","","","","image-keyboard-response","346","280415","0.0-19.0-0.0-1.0","pctzqgnru7","","pctzqgnru7","""2024-11-12T18:28:33.211Z""","488","materials/imgs/D16.png","arrowleft","","[""materials/imgs/D37.png"",""materials/imgs/D34.png""]","true","random","","",""
"","","","","","html-keyboard-response","347","281795","0.0-19.0-0.0-2.0-0.0","pctzqgnru7","","pctzqgnru7","""2024-11-12T18:28:33.211Z""","1380","<p><strong>You're going too fast.</strong><p>Please slow down and assess each triplet.<p>Press 'y' to continue.</p></p>","y","","","","","","",""
"","","","","","html-keyboard-response","348","282296","0.0-19.0-0.0-0.1","pctzqgnru7","","pctzqgnru7","""2024-11-12T18:28:33.211Z""","null","+","null","","","","","","",""
"","","","","","image-keyboard-response","349","282878","0.0-19.0-0.0-1.1","pctzqgnru7","","pctzqgnru7","""2024-11-12T18:28:33.211Z""","581","materials/imgs/D82.png","arrowleft","","[""materials/imgs/D53.png"",""materials/imgs/D94.png""]","false","random","","",""
"","","","","","html-keyboard-response","350","283379","0.0-19.0-0.0-0.2","pctzqgnru7","","pctzqgnru7","""2024-11-12T18:28:33.211Z""","null","+","null","","","","","","",""
"","","","","","image-keyboard-response","351","284066","0.0-19.0-0.0-1.2","pctzqgnru7","","pctzqgnru7","""2024-11-12T18:28:33.211Z""","686","materials/imgs/D55.png","arrowleft","","[""materials/imgs/D77.png"",""materials/imgs/D94.png""]","false","random","","",""
"","","","","","html-keyboard-response","352","284566","0.0-19.0-0.0-0.3","pctzqgnru7","","pctzqgnru7","""2024-11-12T18:28:33.211Z""","null","+","null","","","","","","",""
"","","","","","image-keyboard-response","353","285117","0.0-19.0-0.0-1.3","pctzqgnru7","","pctzqgnru7","""2024-11-12T18:28:33.211Z""","550","materials/imgs/D22.png","arrowleft","","[""materials/imgs/D104.png"",""materials/imgs/D6.png""]","false","random","","",""
"","","","","","html-keyboard-response","354","285618","0.0-19.0-0.0-0.4","pctzqgnru7","","pctzqgnru7","""2024-11-12T18:28:33.211Z""","null","+","null","","","","","","",""
"","","","","","image-keyboard-response","355","286422","0.0-19.0-0.0-1.4","pctzqgnru7","","pctzqgnru7","""2024-11-12T18:28:33.211Z""","803","materials/imgs/D87.png","arrowleft","","[""materials/imgs/D24.png"",""materials/imgs/D37.png""]","false","random","","",""
"","","","","","html-keyboard-response","356","286923","0.0-19.0-0.0-0.5","pctzqgnru7","","pctzqgnru7","""2024-11-12T18:28:33.211Z""","null","+","null","","","","","","",""
"","","","","","image-keyboard-response","357","287595","0.0-19.0-0.0-1.5","pctzqgnru7","","pctzqgnru7","""2024-11-12T18:28:33.211Z""","671","materials/imgs/D21.png","arrowright","","[""materials/imgs/D29.png"",""materials/imgs/D51.png""]","false","random","","",""
"","","","","","html-keyboard-response","358","288097","0.0-19.0-0.0-0.6","pctzqgnru7","","pctzqgnru7","""2024-11-12T18:28:33.211Z""","null","+","null","","","","","","",""
"","","","","","image-keyboard-response","359","292418","0.0-19.0-0.0-1.6","pctzqgnru7","","pctzqgnru7","""2024-11-12T18:28:33.211Z""","4320","materials/imgs/D47.png","arrowright","","[""materials/imgs/D78.png"",""materials/imgs/D64.png""]","false","random","","",""
"","","","","","html-keyboard-response","360","292919","0.0-19.0-1.0-0.0","pctzqgnru7","","pctzqgnru7","""2024-11-12T18:28:33.211Z""","null","+","null","","","","","","",""
"","","","","","image-keyboard-response","361","293594","0.0-19.0-1.0-1.0","pctzqgnru7","","pctzqgnru7","""2024-11-12T18:28:33.211Z""","674","materials/imgs/D53.png","arrowright","","[""materials/imgs/D64.png"",""materials/imgs/D53.png""]","","check","materials/imgs/D53.png","1","true"
"","","","","","html-keyboard-response","362","294095","0.0-19.0-2.0-0.0","pctzqgnru7","","pctzqgnru7","""2024-11-12T18:28:33.211Z""","null","+","null","","","","","","",""
"","","","","","image-keyboard-response","363","294798","0.0-19.0-2.0-1.0","pctzqgnru7","","pctzqgnru7","""2024-11-12T18:28:33.211Z""","702","materials/imgs/D8.png","arrowleft","","[""materials/imgs/D101.png"",""materials/imgs/D52.png""]","false","validation","","",""
"","","","","","html-keyboard-response","364","295299","0.0-19.0-2.0-0.1","pctzqgnru7","","pctzqgnru7","""2024-11-12T18:28:33.211Z""","null","+","null","","","","","","",""
"","","","","","image-keyboard-response","365","295790","0.0-19.0-2.0-1.1","pctzqgnru7","","pctzqgnru7","""2024-11-12T18:28:33.211Z""","490","materials/imgs/D64.png","arrowright","","[""materials/imgs/D6.png"",""materials/imgs/D81.png""]","true","validation","","",""
"","","","","","html-keyboard-response","366","297013","0.0-19.0-2.0-2.1-0.1","pctzqgnru7","","pctzqgnru7","""2024-11-12T18:28:33.211Z""","1222","<p><strong>You're going too fast.</strong><p>Please slow down and assess each triplet.<p>Press 'y' to continue.</p></p>","y","","","","","","",""
"","","","","","html-keyboard-response","367","297514","0.0-19.0-0.1-0.7","pctzqgnru7","","pctzqgnru7","""2024-11-12T18:28:33.211Z""","null","+","null","","","","","","",""
"","","","","","image-keyboard-response","368","298677","0.0-19.0-0.1-1.7","pctzqgnru7","","pctzqgnru7","""2024-11-12T18:28:33.211Z""","1161","materials/imgs/D48.png","arrowright","","[""materials/imgs/D95.png"",""materials/imgs/D26.png""]","false","random","","",""
"","","","","","html-keyboard-response","369","299178","0.0-19.0-0.1-0.8","pctzqgnru7","","pctzqgnru7","""2024-11-12T18:28:33.211Z""","null","+","null","","","","","","",""
"","","","","","image-keyboard-response","370","299845","0.0-19.0-0.1-1.8","pctzqgnru7","","pctzqgnru7","""2024-11-12T18:28:33.211Z""","666","materials/imgs/D106.png","arrowright","","[""materials/imgs/D53.png"",""materials/imgs/D17.png""]","false","random","","",""
"","","","","","html-keyboard-response","371","300346","0.0-19.0-0.1-0.9","pctzqgnru7","","pctzqgnru7","""2024-11-12T18:28:33.211Z""","null","+","null","","","","","","",""
"","","","","","image-keyboard-response","372","301478","0.0-19.0-0.1-1.9","pctzqgnru7","","pctzqgnru7","""2024-11-12T18:28:33.211Z""","1131","materials/imgs/D32.png","arrowright","","[""materials/imgs/D22.png"",""materials/imgs/D76.png""]","false","random","","",""
"","","","","","html-keyboard-response","373","301979","0.0-19.0-0.1-0.10","pctzqgnru7","","pctzqgnru7","""2024-11-12T18:28:33.211Z""","null","+","null","","","","","","",""
"","","","","","image-keyboard-response","374","307401","0.0-19.0-0.1-1.10","pctzqgnru7","","pctzqgnru7","""2024-11-12T18:28:33.211Z""","5421","materials/imgs/D11.png","arrowleft","","[""materials/imgs/D95.png"",""materials/imgs/D46.png""]","false","random","","",""
"","","","","","html-keyboard-response","375","307902","0.0-19.0-0.1-0.11","pctzqgnru7","","pctzqgnru7","""2024-11-12T18:28:33.211Z""","null","+","null","","","","","","",""
"","","","","","image-keyboard-response","376","308457","0.0-19.0-0.1-1.11","pctzqgnru7","","pctzqgnru7","""2024-11-12T18:28:33.211Z""","555","materials/imgs/D17.png","arrowright","","[""materials/imgs/D1.png"",""materials/imgs/D16.png""]","false","random","","",""
"","","","","","html-keyboard-response","377","308958","0.0-19.0-0.1-0.12","pctzqgnru7","","pctzqgnru7","""2024-11-12T18:28:33.211Z""","null","+","null","","","","","","",""
"","","","","","image-keyboard-response","378","309536","0.0-19.0-0.1-1.12","pctzqgnru7","","pctzqgnru7","""2024-11-12T18:28:33.211Z""","577","materials/imgs/D74.png","arrowright","","[""materials/imgs/D20.png"",""materials/imgs/D64.png""]","false","random","","",""
"","","","","","html-keyboard-response","379","310037","0.0-19.0-0.1-0.13","pctzqgnru7","","pctzqgnru7","""2024-11-12T18:28:33.211Z""","null","+","null","","","","","","",""
"","","","","","image-keyboard-response","380","310752","0.0-19.0-0.1-1.13","pctzqgnru7","","pctzqgnru7","""2024-11-12T18:28:33.211Z""","713","materials/imgs/D102.png","arrowleft","","[""materials/imgs/D48.png"",""materials/imgs/D95.png""]","false","random","","",""
"","","","","","html-keyboard-response","381","311253","0.0-19.0-1.1-0.1","pctzqgnru7","","pctzqgnru7","""2024-11-12T18:28:33.211Z""","null","+","null","","","","","","",""
"","","","","","image-keyboard-response","382","311873","0.0-19.0-1.1-1.1","pctzqgnru7","","pctzqgnru7","""2024-11-12T18:28:33.211Z""","619","materials/imgs/D106.png","arrowleft","","[""materials/imgs/D106.png"",""materials/imgs/D101.png""]","","check","materials/imgs/D106.png","0","true"
"","","","","","html-keyboard-response","383","312374","0.0-19.0-2.1-0.2","pctzqgnru7","","pctzqgnru7","""2024-11-12T18:28:33.211Z""","null","+","null","","","","","","",""
"","","","","","image-keyboard-response","384","312948","0.0-19.0-2.1-1.2","pctzqgnru7","","pctzqgnru7","""2024-11-12T18:28:33.211Z""","573","materials/imgs/D101.png","arrowleft","","[""materials/imgs/D76.png"",""materials/imgs/D47.png""]","false","validation","","",""
"","","","","","html-keyboard-response","385","313449","0.0-19.0-2.1-0.3","pctzqgnru7","","pctzqgnru7","""2024-11-12T18:28:33.211Z""","null","+","null","","","","","","",""
"","","","","","image-keyboard-response","386","314066","0.0-19.0-2.1-1.3","pctzqgnru7","","pctzqgnru7","""2024-11-12T18:28:33.211Z""","617","materials/imgs/D25.png","arrowright","","[""materials/imgs/D103.png"",""materials/imgs/D64.png""]","false","validation","","",""
"","","","","","html-keyboard-response","387","314568","0.0-19.0-0.2-0.14","pctzqgnru7","","pctzqgnru7","""2024-11-12T18:28:33.211Z""","null","+","null","","","","","","",""
"","","","","","image-keyboard-response","388","315489","0.0-19.0-0.2-1.14","pctzqgnru7","","pctzqgnru7","""2024-11-12T18:28:33.211Z""","920","materials/imgs/D84.png","arrowleft","","[""materials/imgs/D21.png"",""materials/imgs/D94.png""]","false","random","","",""
"","","","","","html-keyboard-response","389","315991","0.0-19.0-0.2-0.15","pctzqgnru7","","pctzqgnru7","""2024-11-12T18:28:33.211Z""","null","+","null","","","","","","",""
"","","","","","image-keyboard-response","390","316920","0.0-19.0-0.2-1.15","pctzqgnru7","","pctzqgnru7","""2024-11-12T18:28:33.211Z""","928","materials/imgs/D9.png","arrowright","","[""materials/imgs/D64.png"",""materials/imgs/D83.png""]","false","random","","",""
"","","","","","html-keyboard-response","391","317421","0.0-19.0-0.2-0.16","pctzqgnru7","","pctzqgnru7","""2024-11-12T18:28:33.211Z""","null","+","null","","","","","","",""
"","","","","","image-keyboard-response","392","318328","0.0-19.0-0.2-1.16","pctzqgnru7","","pctzqgnru7","""2024-11-12T18:28:33.211Z""","906","materials/imgs/D111.png","arrowleft","","[""materials/imgs/D81.png"",""materials/imgs/D101.png""]","false","random","","",""
"","","","","","html-keyboard-response","393","318829","0.0-19.0-0.2-0.17","pctzqgnru7","","pctzqgnru7","""2024-11-12T18:28:33.211Z""","null","+","null","","","","","","",""
"","","","","","image-keyboard-response","394","319642","0.0-19.0-0.2-1.17","pctzqgnru7","","pctzqgnru7","""2024-11-12T18:28:33.211Z""","811","materials/imgs/D96.png","arrowleft","","[""materials/imgs/D94.png"",""materials/imgs/D51.png""]","false","random","","",""
"","","","","","html-keyboard-response","395","320144","0.0-19.0-0.2-0.18","pctzqgnru7","","pctzqgnru7","""2024-11-12T18:28:33.211Z""","null","+","null","","","","","","",""
"","","","","","image-keyboard-response","396","320917","0.0-19.0-0.2-1.18","pctzqgnru7","","pctzqgnru7","""2024-11-12T18:28:33.211Z""","772","materials/imgs/D51.png","arrowright","","[""materials/imgs/D104.png"",""materials/imgs/D85.png""]","false","random","","",""
"","","","","","html-keyboard-response","397","321418","0.0-19.0-0.2-0.19","pctzqgnru7","","pctzqgnru7","""2024-11-12T18:28:33.211Z""","null","+","null","","","","","","",""
"","","","","","image-keyboard-response","398","322548","0.0-19.0-0.2-1.19","pctzqgnru7","","pctzqgnru7","""2024-11-12T18:28:33.211Z""","1128","materials/imgs/D103.png","arrowright","","[""materials/imgs/D25.png"",""materials/imgs/D66.png""]","false","random","","",""
"","","","","","html-keyboard-response","399","323049","0.0-19.0-0.2-0.20","pctzqgnru7","","pctzqgnru7","""2024-11-12T18:28:33.211Z""","null","+","null","","","","","","",""
"","","","","","image-keyboard-response","400","324524","0.0-19.0-0.2-1.20","pctzqgnru7","","pctzqgnru7","""2024-11-12T18:28:33.211Z""","1474","materials/imgs/D25.png","arrowright","","[""materials/imgs/D22.png"",""materials/imgs/D29.png""]","false","random","","",""
"","","","","","html-keyboard-response","401","325026","0.0-19.0-1.2-0.2","pctzqgnru7","","pctzqgnru7","""2024-11-12T18:28:33.211Z""","null","+","null","","","","","","",""
"","","","","","image-keyboard-response","402","326012","0.0-19.0-1.2-1.2","pctzqgnru7","","pctzqgnru7","""2024-11-12T18:28:33.211Z""","986","materials/imgs/D101.png","arrowright","","[""materials/imgs/D106.png"",""materials/imgs/D101.png""]","","check","materials/imgs/D101.png","1","true"
"","","","","","html-keyboard-response","403","326514","0.0-19.0-2.2-0.4","pctzqgnru7","","pctzqgnru7","""2024-11-12T18:28:33.211Z""","null","+","null","","","","","","",""
"","","","","","image-keyboard-response","404","327187","0.0-19.0-2.2-1.4","pctzqgnru7","","pctzqgnru7","""2024-11-12T18:28:33.211Z""","672","materials/imgs/D101.png","arrowleft","","[""materials/imgs/D76.png"",""materials/imgs/D47.png""]","false","validation","","",""
"","","","","","html-keyboard-response","405","327688","0.0-19.0-2.2-0.5","pctzqgnru7","","pctzqgnru7","""2024-11-12T18:28:33.211Z""","null","+","null","","","","","","",""
"","","","","","image-keyboard-response","406","328421","0.0-19.0-2.2-1.5","pctzqgnru7","","pctzqgnru7","""2024-11-12T18:28:33.211Z""","732","materials/imgs/D46.png","arrowleft","","[""materials/imgs/D92.png"",""materials/imgs/D77.png""]","false","validation","","",""
"","","","","","html-keyboard-response","407","328922","0.0-19.0-0.3-0.21","pctzqgnru7","","pctzqgnru7","""2024-11-12T18:28:33.211Z""","null","+","null","","","","","","",""
"","","","","","image-keyboard-response","408","329587","0.0-19.0-0.3-1.21","pctzqgnru7","","pctzqgnru7","""2024-11-12T18:28:33.211Z""","663","materials/imgs/D46.png","arrowleft","","[""materials/imgs/D9.png"",""materials/imgs/D57.png""]","false","random","","",""
"","","","","","html-keyboard-response","409","330087","0.0-19.0-0.3-0.22","pctzqgnru7","","pctzqgnru7","""2024-11-12T18:28:33.211Z""","null","+","null","","","","","","",""
"","","","","","image-keyboard-response","410","330701","0.0-19.0-0.3-1.22","pctzqgnru7","","pctzqgnru7","""2024-11-12T18:28:33.211Z""","613","materials/imgs/D56.png","arrowright","","[""materials/imgs/D24.png"",""materials/imgs/D104.png""]","false","random","","",""
"","","","","","html-keyboard-response","411","331202","0.0-19.0-0.3-0.23","pctzqgnru7","","pctzqgnru7","""2024-11-12T18:28:33.211Z""","null","+","null","","","","","","",""
"","","","","","image-keyboard-response","412","331748","0.0-19.0-0.3-1.23","pctzqgnru7","","pctzqgnru7","""2024-11-12T18:28:33.211Z""","544","materials/imgs/D16.png","arrowright","","[""materials/imgs/D32.png"",""materials/imgs/D36.png""]","false","random","","",""
"","","","","","html-keyboard-response","413","332249","0.0-19.0-0.3-0.24","pctzqgnru7","","pctzqgnru7","""2024-11-12T18:28:33.211Z""","null","+","null","","","","","","",""
"","","","","","image-keyboard-response","414","332980","0.0-19.0-0.3-1.24","pctzqgnru7","","pctzqgnru7","""2024-11-12T18:28:33.211Z""","730","materials/imgs/D35.png","arrowleft","","[""materials/imgs/D104.png"",""materials/imgs/D3.png""]","false","random","","",""
"","","","","","html-keyboard-response","415","333482","0.0-19.0-0.3-0.25","pctzqgnru7","","pctzqgnru7","""2024-11-12T18:28:33.211Z""","null","+","null","","","","","","",""
"","","","","","image-keyboard-response","416","334334","0.0-19.0-0.3-1.25","pctzqgnru7","","pctzqgnru7","""2024-11-12T18:28:33.211Z""","851","materials/imgs/D55.png","arrowright","","[""materials/imgs/D111.png"",""materials/imgs/D95.png""]","false","random","","",""
"","","","","","html-keyboard-response","417","334836","0.0-19.0-0.3-0.26","pctzqgnru7","","pctzqgnru7","""2024-11-12T18:28:33.211Z""","null","+","null","","","","","","",""
"","","","","","image-keyboard-response","418","335611","0.0-19.0-0.3-1.26","pctzqgnru7","","pctzqgnru7","""2024-11-12T18:28:33.211Z""","775","materials/imgs/D22.png","arrowright","","[""materials/imgs/D47.png"",""materials/imgs/D3.png""]","false","random","","",""
"","","","","","html-keyboard-response","419","336113","0.0-19.0-0.3-0.27","pctzqgnru7","","pctzqgnru7","""2024-11-12T18:28:33.211Z""","null","+","null","","","","","","",""
"","","","","","image-keyboard-response","420","337079","0.0-19.0-0.3-1.27","pctzqgnru7","","pctzqgnru7","""2024-11-12T18:28:33.211Z""","964","materials/imgs/D22.png","arrowright","","[""materials/imgs/D37.png"",""materials/imgs/D87.png""]","false","random","","",""
"","","","","","html-keyboard-response","421","337580","0.0-19.0-1.3-0.3","pctzqgnru7","","pctzqgnru7","""2024-11-12T18:28:33.211Z""","null","+","null","","","","","","",""
"","","","","","image-keyboard-response","422","338595","0.0-19.0-1.3-1.3","pctzqgnru7","","pctzqgnru7","""2024-11-12T18:28:33.211Z""","1014","materials/imgs/D101.png","arrowright","","[""materials/imgs/D106.png"",""materials/imgs/D101.png""]","","check","materials/imgs/D101.png","1","true"
"","","","","","html-keyboard-response","423","339096","0.0-19.0-2.3-0.6","pctzqgnru7","","pctzqgnru7","""2024-11-12T18:28:33.211Z""","null","+","null","","","","","","",""
"","","","","","image-keyboard-response","424","341158","0.0-19.0-2.3-1.6","pctzqgnru7","","pctzqgnru7","""2024-11-12T18:28:33.211Z""","2061","materials/imgs/D24.png","arrowleft","","[""materials/imgs/D36.png"",""materials/imgs/D8.png""]","false","validation","","",""
"","","","","","html-keyboard-response","425","341660","0.0-19.0-2.3-0.7","pctzqgnru7","","pctzqgnru7","""2024-11-12T18:28:33.211Z""","null","+","null","","","","","","",""
"","","","","","image-keyboard-response","426","342658","0.0-19.0-2.3-1.7","pctzqgnru7","","pctzqgnru7","""2024-11-12T18:28:33.211Z""","997","materials/imgs/D48.png","arrowright","","[""materials/imgs/D4.png"",""materials/imgs/D37.png""]","false","validation","","",""
"","","","","","html-keyboard-response","427","343160","0.0-19.0-0.4-0.28","pctzqgnru7","","pctzqgnru7","""2024-11-12T18:28:33.211Z""","null","+","null","","","","","","",""
"","","","","","image-keyboard-response","428","343949","0.0-19.0-0.4-1.28","pctzqgnru7","","pctzqgnru7","""2024-11-12T18:28:33.211Z""","787","materials/imgs/D111.png","arrowright","","[""materials/imgs/D79.png"",""materials/imgs/D52.png""]","false","random","","",""
"","","","","","html-keyboard-response","429","344451","0.0-19.0-0.4-0.29","pctzqgnru7","","pctzqgnru7","""2024-11-12T18:28:33.211Z""","null","+","null","","","","","","",""
"","","","","","image-keyboard-response","430","345706","0.0-19.0-0.4-1.29","pctzqgnru7","","pctzqgnru7","""2024-11-12T18:28:33.211Z""","1254","materials/imgs/D32.png","arrowleft","","[""materials/imgs/D87.png"",""materials/imgs/D26.png""]","false","random","","",""
"","","","","","html-keyboard-response","431","346207","0.0-19.0-0.4-0.30","pctzqgnru7","","pctzqgnru7","""2024-11-12T18:28:33.211Z""","null","+","null","","","","","","",""
"","","","","","image-keyboard-response","432","348025","0.0-19.0-0.4-1.30","pctzqgnru7","","pctzqgnru7","""2024-11-12T18:28:33.211Z""","1817","materials/imgs/D37.png","arrowleft","","[""materials/imgs/D95.png"",""materials/imgs/D47.png""]","false","random","","",""
"","","","","","html-keyboard-response","433","348526","0.0-19.0-0.4-0.31","pctzqgnru7","","pctzqgnru7","""2024-11-12T18:28:33.211Z""","null","+","null","","","","","","",""
"","","","","","image-keyboard-response","434","349355","0.0-19.0-0.4-1.31","pctzqgnru7","","pctzqgnru7","""2024-11-12T18:28:33.211Z""","828","materials/imgs/D56.png","arrowleft","","[""materials/imgs/D1.png"",""materials/imgs/D29.png""]","false","random","","",""
"","","","","","html-keyboard-response","435","349856","0.0-19.0-0.4-0.32","pctzqgnru7","","pctzqgnru7","""2024-11-12T18:28:33.211Z""","null","+","null","","","","","","",""
"","","","","","image-keyboard-response","436","350517","0.0-19.0-0.4-1.32","pctzqgnru7","","pctzqgnru7","""2024-11-12T18:28:33.211Z""","660","materials/imgs/D84.png","arrowleft","","[""materials/imgs/D34.png"",""materials/imgs/D51.png""]","false","random","","",""
