"success","timeout","failed_images","failed_audio","failed_video","trial_type","trial_index","time_elapsed","internal_node_id","subject_id","sona_id","subjectID","dateInfo","rt","stimulus","response","question_order","choices","speedy","sampleAlg","selected_image","selected_index","correct"
"true","false","[]","[]","[]","preload","0","977","0.0-0.0","qcddhjhtue","","qcddhjhtue","""2024-11-13T02:32:15.315Z""","","","","","","","","","",""
"true","","","","","fullscreen","1","3619","0.0-1.0","qcddhjhtue","","qcddhjhtue","""2024-11-13T02:32:15.315Z""","","","","","","","","","",""
"","","","","","html-keyboard-response","2","3631","0.0-2.0","qcddhjhtue","","qcddhjhtue","""2024-11-13T02:32:15.315Z""","null","","null","","","","","","",""
"","","","","","html-button-response","3","7398","0.0-3.0","qcddhjhtue","","qcddhjhtue","""2024-11-13T02:32:15.315Z""","3764","<div style='text-align:center; font-size:20px; line-height:25px; width: 1200px;'>
                Welcome to our experiment! <br>
                <br>At the bottom of this screen, you will see a button that says 'Begin Experiment.
                <br>Please only click that button when you are ready to complete the 25 minute experiment in one sitting. <br>
                <br> Once you click that button, it will not be possible to restart the experiment. <br><br>","0","","","","","","",""
"true","","","","","fullscreen","4","9831","0.0-4.0","qcddhjhtue","","qcddhjhtue","""2024-11-13T02:32:15.315Z""","","","","","","","","","",""
"","","","","","survey-multi-select","5","36839","0.0-5.0","qcddhjhtue","","qcddhjhtue","""2024-11-13T02:32:15.315Z""","27000","","{""Consent"":[""<strong>I consent</strong>""]}","[0]","","","","","",""
"","","","","","html-button-response","6","38422","0.0-6.0","qcddhjhtue","","qcddhjhtue","""2024-11-13T02:32:15.315Z""","1582","Welcome! <p> This experiment involves two parts: demographic information, followed by the experimental task.<p> It will take about 25 minutes to complete both parts.","0","","","","","","",""
"","","","","","survey-text","7","44959","0.0-7.0","qcddhjhtue","","qcddhjhtue","""2024-11-13T02:32:15.315Z""","6533","","{""Age"":""18"",""Gender"":""Female"",""Race/ethnicity"":""White""}","","","","","","",""
"","","","","","html-button-response","8","73311","0.0-8.0","qcddhjhtue","","qcddhjhtue","""2024-11-13T02:32:15.315Z""","28352","<div style='text-align: center;'>
      <p>In each trial of this task, you will see three texture images: one target item on top, and two choices beneath the target item.</p>
      <p><strong>Please select the item that is most like the target item.</strong></p>
      <p>To select the option on the <strong>LEFT</strong>, press the <strong>LEFT ARROW</strong> key. 
      To select the option on the <strong>RIGHT</strong>, press the <strong>RIGHT ARROW</strong> key.</p>
                  <!-- Target Image at the Top -->
      <div style='margin: 20px;'>
        <img src='materials/imgs/instruction_images/InstructionImg1D78.png' alt='Target Image' style='width:200px; height:auto;' />
        <p><em>Target Image</em></p>
      </div>

      <!-- Two Choice Images Below -->
      <div style='display: flex; justify-content: center;'>
        <div style='margin-right: 50px;'>
          <img src='materials/imgs/instruction_images/InstructionImg2D34.png' alt='Choice Image 1' style='width:150px; height:auto;' />
          <p><em><strong>LEFT ARROW</strong></em></p>
        </div>
        <div style='margin-left: 50px;'>
          <img src='materials/imgs/instruction_images/InstructionImg3D80.png' alt='Choice Image 2' style='width:150px; height:auto;' />
          <p><em><strong>RIGHT ARROW</strong></em></p>
        </div>
      </div>
    </div>

      <p>When you are ready to proceed, please click 'Continue' to begin practice.</p>","0","","","","","","",""
"","","","","","html-keyboard-response","9","75825","0.0-9.0","qcddhjhtue","","qcddhjhtue","""2024-11-13T02:32:15.315Z""","null","+","null","","","","","","",""
"","","","","","html-keyboard-response","10","76341","0.0-10.0-0.0-0.0","qcddhjhtue","","qcddhjhtue","""2024-11-13T02:32:15.315Z""","null","+","null","","","","","","",""
"","","","","","image-keyboard-response","11","80452","0.0-10.0-0.0-1.0","qcddhjhtue","","qcddhjhtue","""2024-11-13T02:32:15.315Z""","4105","materials/imgs/D11.png","arrowleft","","[""materials/imgs/D56.png"",""materials/imgs/D47.png""]","false","random","","",""
"","","","","","html-keyboard-response","12","80967","0.0-10.0-0.0-0.1","qcddhjhtue","","qcddhjhtue","""2024-11-13T02:32:15.315Z""","null","+","null","","","","","","",""
"","","","","","image-keyboard-response","13","84974","0.0-10.0-0.0-1.1","qcddhjhtue","","qcddhjhtue","""2024-11-13T02:32:15.315Z""","4002","materials/imgs/D34.png","arrowright","","[""materials/imgs/D111.png"",""materials/imgs/D102.png""]","false","random","","",""
"","","","","","html-keyboard-response","14","85481","0.0-10.0-0.0-0.2","qcddhjhtue","","qcddhjhtue","""2024-11-13T02:32:15.315Z""","null","+","null","","","","","","",""
"","","","","","image-keyboard-response","15","89737","0.0-10.0-0.0-1.2","qcddhjhtue","","qcddhjhtue","""2024-11-13T02:32:15.315Z""","4252","materials/imgs/D55.png","arrowleft","","[""materials/imgs/D29.png"",""materials/imgs/D51.png""]","false","random","","",""
"","","","","","html-keyboard-response","16","90241","0.0-10.0-0.0-0.3","qcddhjhtue","","qcddhjhtue","""2024-11-13T02:32:15.315Z""","null","+","null","","","","","","",""
"","","","","","image-keyboard-response","17","95089","0.0-10.0-0.0-1.3","qcddhjhtue","","qcddhjhtue","""2024-11-13T02:32:15.315Z""","4845","materials/imgs/D19.png","arrowleft","","[""materials/imgs/D103.png"",""materials/imgs/D64.png""]","false","random","","",""
"","","","","","html-keyboard-response","18","95604","0.0-10.0-0.0-0.4","qcddhjhtue","","qcddhjhtue","""2024-11-13T02:32:15.315Z""","null","+","null","","","","","","",""
"","","","","","image-keyboard-response","19","106854","0.0-10.0-0.0-1.4","qcddhjhtue","","qcddhjhtue","""2024-11-13T02:32:15.315Z""","11247","materials/imgs/D47.png","arrowleft","","[""materials/imgs/D4.png"",""materials/imgs/D22.png""]","false","random","","",""
"","","","","","html-keyboard-response","20","107358","0.0-10.0-0.0-0.5","qcddhjhtue","","qcddhjhtue","""2024-11-13T02:32:15.315Z""","null","+","null","","","","","","",""
"","","","","","image-keyboard-response","21","110888","0.0-10.0-0.0-1.5","qcddhjhtue","","qcddhjhtue","""2024-11-13T02:32:15.315Z""","3526","materials/imgs/D65.png","arrowright","","[""materials/imgs/D53.png"",""materials/imgs/D47.png""]","false","random","","",""
"","","","","","html-keyboard-response","22","111398","0.0-10.0-0.0-0.6","qcddhjhtue","","qcddhjhtue","""2024-11-13T02:32:15.315Z""","null","+","null","","","","","","",""
"","","","","","image-keyboard-response","23","112984","0.0-10.0-0.0-1.6","qcddhjhtue","","qcddhjhtue","""2024-11-13T02:32:15.315Z""","1582","materials/imgs/D53.png","arrowright","","[""materials/imgs/D111.png"",""materials/imgs/D20.png""]","false","random","","",""
"","","","","","html-keyboard-response","24","113486","0.0-10.0-0.0-0.7","qcddhjhtue","","qcddhjhtue","""2024-11-13T02:32:15.315Z""","null","+","null","","","","","","",""
"","","","","","image-keyboard-response","25","116970","0.0-10.0-0.0-1.7","qcddhjhtue","","qcddhjhtue","""2024-11-13T02:32:15.315Z""","3481","materials/imgs/D78.png","arrowright","","[""materials/imgs/D96.png"",""materials/imgs/D19.png""]","false","random","","",""
"","","","","","html-keyboard-response","26","117472","0.0-10.0-0.0-0.8","qcddhjhtue","","qcddhjhtue","""2024-11-13T02:32:15.315Z""","null","+","null","","","","","","",""
"","","","","","image-keyboard-response","27","119510","0.0-10.0-0.0-1.8","qcddhjhtue","","qcddhjhtue","""2024-11-13T02:32:15.315Z""","2033","materials/imgs/D85.png","arrowright","","[""materials/imgs/D25.png"",""materials/imgs/D49.png""]","false","random","","",""
"","","","","","html-keyboard-response","28","120025","0.0-10.0-0.0-0.9","qcddhjhtue","","qcddhjhtue","""2024-11-13T02:32:15.315Z""","null","+","null","","","","","","",""
"","","","","","image-keyboard-response","29","124951","0.0-10.0-0.0-1.9","qcddhjhtue","","qcddhjhtue","""2024-11-13T02:32:15.315Z""","4922","materials/imgs/D29.png","arrowleft","","[""materials/imgs/D68.png"",""materials/imgs/D53.png""]","false","random","","",""
"","","","","","html-button-response","30","132204","0.0-11.0","qcddhjhtue","","qcddhjhtue","""2024-11-13T02:32:15.315Z""","7251","<p>Great job!</p>
      <p>You are now ready to begin the experiment.</p>
      <p>There will be around 200 trials. You will have opportunities to take breaks at three stages of the trials.</p>
      <p>When you are ready to begin please click 'Continue'.</p>","0","","","","","","",""
"","","","","","html-keyboard-response","31","134715","0.0-12.0","qcddhjhtue","","qcddhjhtue","""2024-11-13T02:32:15.315Z""","null","+","null","","","","","","",""
"","","","","","html-keyboard-response","32","135231","0.0-13.0-0.0-0.0","qcddhjhtue","","qcddhjhtue","""2024-11-13T02:32:15.315Z""","null","+","null","","","","","","",""
"","","","","","image-keyboard-response","33","137333","0.0-13.0-0.0-1.0","qcddhjhtue","","qcddhjhtue","""2024-11-13T02:32:15.315Z""","2099","materials/imgs/D68.png","arrowleft","","[""materials/imgs/D19.png"",""materials/imgs/D102.png""]","false","random","","",""
"","","","","","html-keyboard-response","34","137840","0.0-13.0-0.0-0.1","qcddhjhtue","","qcddhjhtue","""2024-11-13T02:32:15.315Z""","null","+","null","","","","","","",""
"","","","","","image-keyboard-response","35","141199","0.0-13.0-0.0-1.1","qcddhjhtue","","qcddhjhtue","""2024-11-13T02:32:15.315Z""","3357","materials/imgs/D82.png","arrowright","","[""materials/imgs/D66.png"",""materials/imgs/D32.png""]","false","random","","",""
"","","","","","html-keyboard-response","36","141702","0.0-13.0-0.0-0.2","qcddhjhtue","","qcddhjhtue","""2024-11-13T02:32:15.315Z""","null","+","null","","","","","","",""
"","","","","","image-keyboard-response","37","143298","0.0-13.0-0.0-1.2","qcddhjhtue","","qcddhjhtue","""2024-11-13T02:32:15.315Z""","1593","materials/imgs/D49.png","arrowleft","","[""materials/imgs/D85.png"",""materials/imgs/D52.png""]","false","random","","",""
"","","","","","html-keyboard-response","38","143803","0.0-13.0-0.0-0.3","qcddhjhtue","","qcddhjhtue","""2024-11-13T02:32:15.315Z""","null","+","null","","","","","","",""
"","","","","","image-keyboard-response","39","147204","0.0-13.0-0.0-1.3","qcddhjhtue","","qcddhjhtue","""2024-11-13T02:32:15.315Z""","3398","materials/imgs/D3.png","arrowright","","[""materials/imgs/D111.png"",""materials/imgs/D17.png""]","false","random","","",""
"","","","","","html-keyboard-response","40","147710","0.0-13.0-0.0-0.4","qcddhjhtue","","qcddhjhtue","""2024-11-13T02:32:15.315Z""","null","+","null","","","","","","",""
"","","","","","image-keyboard-response","41","148971","0.0-13.0-0.0-1.4","qcddhjhtue","","qcddhjhtue","""2024-11-13T02:32:15.315Z""","1257","materials/imgs/D76.png","arrowright","","[""materials/imgs/D84.png"",""materials/imgs/D79.png""]","false","random","","",""
"","","","","","html-keyboard-response","42","149480","0.0-13.0-0.0-0.5","qcddhjhtue","","qcddhjhtue","""2024-11-13T02:32:15.315Z""","null","+","null","","","","","","",""
"","","","","","image-keyboard-response","43","150668","0.0-13.0-0.0-1.5","qcddhjhtue","","qcddhjhtue","""2024-11-13T02:32:15.315Z""","1185","materials/imgs/D66.png","arrowleft","","[""materials/imgs/D82.png"",""materials/imgs/D32.png""]","false","random","","",""
"","","","","","html-keyboard-response","44","151172","0.0-13.0-0.0-0.6","qcddhjhtue","","qcddhjhtue","""2024-11-13T02:32:15.315Z""","null","+","null","","","","","","",""
"","","","","","image-keyboard-response","45","152525","0.0-13.0-0.0-1.6","qcddhjhtue","","qcddhjhtue","""2024-11-13T02:32:15.315Z""","1351","materials/imgs/D101.png","arrowleft","","[""materials/imgs/D29.png"",""materials/imgs/D49.png""]","false","random","","",""
"","","","","","html-keyboard-response","46","153031","0.0-13.0-1.0-0.0","qcddhjhtue","","qcddhjhtue","""2024-11-13T02:32:15.315Z""","null","+","null","","","","","","",""
"","","","","","image-keyboard-response","47","156027","0.0-13.0-1.0-1.0","qcddhjhtue","","qcddhjhtue","""2024-11-13T02:32:15.315Z""","2994","materials/imgs/D78.png","arrowright","","[""materials/imgs/D76.png"",""materials/imgs/D78.png""]","","check","materials/imgs/D78.png","1","true"
"","","","","","html-keyboard-response","48","156530","0.0-13.0-2.0-0.0","qcddhjhtue","","qcddhjhtue","""2024-11-13T02:32:15.315Z""","null","+","null","","","","","","",""
"","","","","","image-keyboard-response","49","160767","0.0-13.0-2.0-1.0","qcddhjhtue","","qcddhjhtue","""2024-11-13T02:32:15.315Z""","4235","materials/imgs/D95.png","arrowleft","","[""materials/imgs/D36.png"",""materials/imgs/D4.png""]","false","validation","","",""
"","","","","","html-keyboard-response","50","161278","0.0-13.0-2.0-0.1","qcddhjhtue","","qcddhjhtue","""2024-11-13T02:32:15.315Z""","null","+","null","","","","","","",""
"","","","","","image-keyboard-response","51","166888","0.0-13.0-2.0-1.1","qcddhjhtue","","qcddhjhtue","""2024-11-13T02:32:15.315Z""","5608","materials/imgs/D56.png","arrowright","","[""materials/imgs/D25.png"",""materials/imgs/D105.png""]","false","validation","","",""
"","","","","","html-keyboard-response","52","167403","0.0-13.0-0.1-0.7","qcddhjhtue","","qcddhjhtue","""2024-11-13T02:32:15.315Z""","null","+","null","","","","","","",""
"","","","","","image-keyboard-response","53","169881","0.0-13.0-0.1-1.7","qcddhjhtue","","qcddhjhtue","""2024-11-13T02:32:15.315Z""","2475","materials/imgs/D78.png","arrowleft","","[""materials/imgs/D80.png"",""materials/imgs/D1.png""]","false","random","","",""
"","","","","","html-keyboard-response","54","170386","0.0-13.0-0.1-0.8","qcddhjhtue","","qcddhjhtue","""2024-11-13T02:32:15.315Z""","null","+","null","","","","","","",""
"","","","","","image-keyboard-response","55","173246","0.0-13.0-0.1-1.8","qcddhjhtue","","qcddhjhtue","""2024-11-13T02:32:15.315Z""","2856","materials/imgs/D65.png","arrowright","","[""materials/imgs/D17.png"",""materials/imgs/D104.png""]","false","random","","",""
"","","","","","html-keyboard-response","56","173751","0.0-13.0-0.1-0.9","qcddhjhtue","","qcddhjhtue","""2024-11-13T02:32:15.315Z""","null","+","null","","","","","","",""
"","","","","","image-keyboard-response","57","174527","0.0-13.0-0.1-1.9","qcddhjhtue","","qcddhjhtue","""2024-11-13T02:32:15.315Z""","772","materials/imgs/D21.png","arrowright","","[""materials/imgs/D8.png"",""materials/imgs/D6.png""]","false","random","","",""
"","","","","","html-keyboard-response","58","175041","0.0-13.0-0.1-0.10","qcddhjhtue","","qcddhjhtue","""2024-11-13T02:32:15.315Z""","null","+","null","","","","","","",""
"","","","","","image-keyboard-response","59","178079","0.0-13.0-0.1-1.10","qcddhjhtue","","qcddhjhtue","""2024-11-13T02:32:15.315Z""","3035","materials/imgs/D94.png","arrowright","","[""materials/imgs/D87.png"",""materials/imgs/D105.png""]","false","random","","",""
"","","","","","html-keyboard-response","60","178590","0.0-13.0-0.1-0.11","qcddhjhtue","","qcddhjhtue","""2024-11-13T02:32:15.315Z""","null","+","null","","","","","","",""
"","","","","","image-keyboard-response","61","180805","0.0-13.0-0.1-1.11","qcddhjhtue","","qcddhjhtue","""2024-11-13T02:32:15.315Z""","2213","materials/imgs/D92.png","arrowleft","","[""materials/imgs/D20.png"",""materials/imgs/D78.png""]","false","random","","",""
"","","","","","html-keyboard-response","62","181319","0.0-13.0-0.1-0.12","qcddhjhtue","","qcddhjhtue","""2024-11-13T02:32:15.315Z""","null","+","null","","","","","","",""
"","","","","","image-keyboard-response","63","182174","0.0-13.0-0.1-1.12","qcddhjhtue","","qcddhjhtue","""2024-11-13T02:32:15.315Z""","851","materials/imgs/D78.png","arrowright","","[""materials/imgs/D56.png"",""materials/imgs/D81.png""]","false","random","","",""
"","","","","","html-keyboard-response","64","182689","0.0-13.0-0.1-0.13","qcddhjhtue","","qcddhjhtue","""2024-11-13T02:32:15.315Z""","null","+","null","","","","","","",""
"","","","","","image-keyboard-response","65","184794","0.0-13.0-0.1-1.13","qcddhjhtue","","qcddhjhtue","""2024-11-13T02:32:15.315Z""","2103","materials/imgs/D57.png","arrowright","","[""materials/imgs/D46.png"",""materials/imgs/D34.png""]","false","random","","",""
"","","","","","html-keyboard-response","66","185301","0.0-13.0-1.1-0.1","qcddhjhtue","","qcddhjhtue","""2024-11-13T02:32:15.315Z""","null","+","null","","","","","","",""
"","","","","","image-keyboard-response","67","186291","0.0-13.0-1.1-1.1","qcddhjhtue","","qcddhjhtue","""2024-11-13T02:32:15.315Z""","985","materials/imgs/D53.png","arrowright","","[""materials/imgs/D64.png"",""materials/imgs/D53.png""]","","check","materials/imgs/D53.png","1","true"
"","","","","","html-keyboard-response","68","186796","0.0-13.0-2.1-0.2","qcddhjhtue","","qcddhjhtue","""2024-11-13T02:32:15.315Z""","null","+","null","","","","","","",""
"","","","","","image-keyboard-response","69","188563","0.0-13.0-2.1-1.2","qcddhjhtue","","qcddhjhtue","""2024-11-13T02:32:15.315Z""","1765","materials/imgs/D16.png","arrowleft","","[""materials/imgs/D52.png"",""materials/imgs/D25.png""]","false","validation","","",""
"","","","","","html-keyboard-response","70","189065","0.0-13.0-2.1-0.3","qcddhjhtue","","qcddhjhtue","""2024-11-13T02:32:15.315Z""","null","+","null","","","","","","",""
"","","","","","image-keyboard-response","71","189981","0.0-13.0-2.1-1.3","qcddhjhtue","","qcddhjhtue","""2024-11-13T02:32:15.315Z""","913","materials/imgs/D57.png","arrowright","","[""materials/imgs/D111.png"",""materials/imgs/D4.png""]","false","validation","","",""
"","","","","","html-keyboard-response","72","190495","0.0-13.0-0.2-0.14","qcddhjhtue","","qcddhjhtue","""2024-11-13T02:32:15.315Z""","null","+","null","","","","","","",""
"","","","","","image-keyboard-response","73","193885","0.0-13.0-0.2-1.14","qcddhjhtue","","qcddhjhtue","""2024-11-13T02:32:15.315Z""","3388","materials/imgs/D65.png","arrowright","","[""materials/imgs/D3.png"",""materials/imgs/D87.png""]","false","random","","",""
"","","","","","html-keyboard-response","74","194387","0.0-13.0-0.2-0.15","qcddhjhtue","","qcddhjhtue","""2024-11-13T02:32:15.315Z""","null","+","null","","","","","","",""
"","","","","","image-keyboard-response","75","198212","0.0-13.0-0.2-1.15","qcddhjhtue","","qcddhjhtue","""2024-11-13T02:32:15.315Z""","3821","materials/imgs/D34.png","arrowright","","[""materials/imgs/D103.png"",""materials/imgs/D102.png""]","false","random","","",""
"","","","","","html-keyboard-response","76","198717","0.0-13.0-0.2-0.16","qcddhjhtue","","qcddhjhtue","""2024-11-13T02:32:15.315Z""","null","+","null","","","","","","",""
"","","","","","image-keyboard-response","77","200936","0.0-13.0-0.2-1.16","qcddhjhtue","","qcddhjhtue","""2024-11-13T02:32:15.315Z""","2215","materials/imgs/D96.png","arrowleft","","[""materials/imgs/D26.png"",""materials/imgs/D22.png""]","false","random","","",""
"","","","","","html-keyboard-response","78","201442","0.0-13.0-0.2-0.17","qcddhjhtue","","qcddhjhtue","""2024-11-13T02:32:15.315Z""","null","+","null","","","","","","",""
"","","","","","image-keyboard-response","79","204375","0.0-13.0-0.2-1.17","qcddhjhtue","","qcddhjhtue","""2024-11-13T02:32:15.315Z""","2930","materials/imgs/D17.png","arrowright","","[""materials/imgs/D102.png"",""materials/imgs/D29.png""]","false","random","","",""
"","","","","","html-keyboard-response","80","204885","0.0-13.0-0.2-0.18","qcddhjhtue","","qcddhjhtue","""2024-11-13T02:32:15.315Z""","null","+","null","","","","","","",""
"","","","","","image-keyboard-response","81","206633","0.0-13.0-0.2-1.18","qcddhjhtue","","qcddhjhtue","""2024-11-13T02:32:15.315Z""","1746","materials/imgs/D92.png","arrowright","","[""materials/imgs/D36.png"",""materials/imgs/D104.png""]","false","random","","",""
"","","","","","html-keyboard-response","82","207137","0.0-13.0-0.2-0.19","qcddhjhtue","","qcddhjhtue","""2024-11-13T02:32:15.315Z""","null","+","null","","","","","","",""
"","","","","","image-keyboard-response","83","209639","0.0-13.0-0.2-1.19","qcddhjhtue","","qcddhjhtue","""2024-11-13T02:32:15.315Z""","2499","materials/imgs/D96.png","arrowright","","[""materials/imgs/D102.png"",""materials/imgs/D56.png""]","false","random","","",""
"","","","","","html-keyboard-response","84","210153","0.0-13.0-0.2-0.20","qcddhjhtue","","qcddhjhtue","""2024-11-13T02:32:15.315Z""","null","+","null","","","","","","",""
"","","","","","image-keyboard-response","85","211752","0.0-13.0-0.2-1.20","qcddhjhtue","","qcddhjhtue","""2024-11-13T02:32:15.315Z""","1596","materials/imgs/D6.png","arrowright","","[""materials/imgs/D51.png"",""materials/imgs/D101.png""]","false","random","","",""
"","","","","","html-keyboard-response","86","212257","0.0-13.0-1.2-0.2","qcddhjhtue","","qcddhjhtue","""2024-11-13T02:32:15.315Z""","null","+","null","","","","","","",""
"","","","","","image-keyboard-response","87","212966","0.0-13.0-1.2-1.2","qcddhjhtue","","qcddhjhtue","""2024-11-13T02:32:15.315Z""","705","materials/imgs/D8.png","arrowright","","[""materials/imgs/D18.png"",""materials/imgs/D8.png""]","","check","materials/imgs/D8.png","1","true"
"","","","","","html-keyboard-response","88","213471","0.0-13.0-2.2-0.4","qcddhjhtue","","qcddhjhtue","""2024-11-13T02:32:15.315Z""","null","+","null","","","","","","",""
"","","","","","image-keyboard-response","89","216846","0.0-13.0-2.2-1.4","qcddhjhtue","","qcddhjhtue","""2024-11-13T02:32:15.315Z""","3373","materials/imgs/D82.png","arrowright","","[""materials/imgs/D83.png"",""materials/imgs/D22.png""]","false","validation","","",""
"","","","","","html-keyboard-response","90","217347","0.0-13.0-2.2-0.5","qcddhjhtue","","qcddhjhtue","""2024-11-13T02:32:15.315Z""","null","+","null","","","","","","",""
"","","","","","image-keyboard-response","91","221270","0.0-13.0-2.2-1.5","qcddhjhtue","","qcddhjhtue","""2024-11-13T02:32:15.315Z""","3919","materials/imgs/D32.png","arrowleft","","[""materials/imgs/D68.png"",""materials/imgs/D96.png""]","false","validation","","",""
"","","","","","html-keyboard-response","92","221784","0.0-13.0-0.3-0.21","qcddhjhtue","","qcddhjhtue","""2024-11-13T02:32:15.315Z""","null","+","null","","","","","","",""
"","","","","","image-keyboard-response","93","222557","0.0-13.0-0.3-1.21","qcddhjhtue","","qcddhjhtue","""2024-11-13T02:32:15.315Z""","770","materials/imgs/D65.png","arrowright","","[""materials/imgs/D26.png"",""materials/imgs/D66.png""]","false","random","","",""
"","","","","","html-keyboard-response","94","223065","0.0-13.0-0.3-0.22","qcddhjhtue","","qcddhjhtue","""2024-11-13T02:32:15.315Z""","null","+","null","","","","","","",""
"","","","","","image-keyboard-response","95","227593","0.0-13.0-0.3-1.22","qcddhjhtue","","qcddhjhtue","""2024-11-13T02:32:15.315Z""","4525","materials/imgs/D49.png","arrowright","","[""materials/imgs/D16.png"",""materials/imgs/D105.png""]","false","random","","",""
"","","","","","html-keyboard-response","96","228099","0.0-13.0-0.3-0.23","qcddhjhtue","","qcddhjhtue","""2024-11-13T02:32:15.315Z""","null","+","null","","","","","","",""
"","","","","","image-keyboard-response","97","229453","0.0-13.0-0.3-1.23","qcddhjhtue","","qcddhjhtue","""2024-11-13T02:32:15.315Z""","1351","materials/imgs/D87.png","arrowright","","[""materials/imgs/D1.png"",""materials/imgs/D81.png""]","false","random","","",""
"","","","","","html-keyboard-response","98","229968","0.0-13.0-0.3-0.24","qcddhjhtue","","qcddhjhtue","""2024-11-13T02:32:15.315Z""","null","+","null","","","","","","",""
"","","","","","image-keyboard-response","99","232499","0.0-13.0-0.3-1.24","qcddhjhtue","","qcddhjhtue","""2024-11-13T02:32:15.315Z""","2530","materials/imgs/D34.png","arrowleft","","[""materials/imgs/D104.png"",""materials/imgs/D68.png""]","false","random","","",""
"","","","","","html-keyboard-response","100","233003","0.0-13.0-0.3-0.25","qcddhjhtue","","qcddhjhtue","""2024-11-13T02:32:15.315Z""","null","+","null","","","","","","",""
"","","","","","image-keyboard-response","101","234324","0.0-13.0-0.3-1.25","qcddhjhtue","","qcddhjhtue","""2024-11-13T02:32:15.315Z""","1317","materials/imgs/D94.png","arrowright","","[""materials/imgs/D53.png"",""materials/imgs/D1.png""]","false","random","","",""
"","","","","","html-keyboard-response","102","234839","0.0-13.0-0.3-0.26","qcddhjhtue","","qcddhjhtue","""2024-11-13T02:32:15.315Z""","null","+","null","","","","","","",""
"","","","","","image-keyboard-response","103","242695","0.0-13.0-0.3-1.26","qcddhjhtue","","qcddhjhtue","""2024-11-13T02:32:15.315Z""","7853","materials/imgs/D101.png","arrowleft","","[""materials/imgs/D29.png"",""materials/imgs/D74.png""]","false","random","","",""
"","","","","","html-keyboard-response","104","243199","0.0-13.0-0.3-0.27","qcddhjhtue","","qcddhjhtue","""2024-11-13T02:32:15.315Z""","null","+","null","","","","","","",""
"","","","","","image-keyboard-response","105","244864","0.0-13.0-0.3-1.27","qcddhjhtue","","qcddhjhtue","""2024-11-13T02:32:15.315Z""","1663","materials/imgs/D92.png","arrowright","","[""materials/imgs/D1.png"",""materials/imgs/D52.png""]","false","random","","",""
"","","","","","html-keyboard-response","106","245380","0.0-13.0-1.3-0.3","qcddhjhtue","","qcddhjhtue","""2024-11-13T02:32:15.315Z""","null","+","null","","","","","","",""
"","","","","","image-keyboard-response","107","246118","0.0-13.0-1.3-1.3","qcddhjhtue","","qcddhjhtue","""2024-11-13T02:32:15.315Z""","735","materials/imgs/D8.png","arrowright","","[""materials/imgs/D18.png"",""materials/imgs/D8.png""]","","check","materials/imgs/D8.png","1","true"
"","","","","","html-keyboard-response","108","246627","0.0-13.0-2.3-0.6","qcddhjhtue","","qcddhjhtue","""2024-11-13T02:32:15.315Z""","null","+","null","","","","","","",""
"","","","","","image-keyboard-response","109","250202","0.0-13.0-2.3-1.6","qcddhjhtue","","qcddhjhtue","""2024-11-13T02:32:15.315Z""","3573","materials/imgs/D103.png","arrowleft","","[""materials/imgs/D76.png"",""materials/imgs/D106.png""]","false","validation","","",""
"","","","","","html-keyboard-response","110","250712","0.0-13.0-2.3-0.7","qcddhjhtue","","qcddhjhtue","""2024-11-13T02:32:15.315Z""","null","+","null","","","","","","",""
"","","","","","image-keyboard-response","111","259336","0.0-13.0-2.3-1.7","qcddhjhtue","","qcddhjhtue","""2024-11-13T02:32:15.315Z""","8621","materials/imgs/D48.png","arrowright","","[""materials/imgs/D4.png"",""materials/imgs/D37.png""]","false","validation","","",""
"","","","","","html-keyboard-response","112","259845","0.0-13.0-0.4-0.28","qcddhjhtue","","qcddhjhtue","""2024-11-13T02:32:15.315Z""","null","+","null","","","","","","",""
"","","","","","image-keyboard-response","113","261543","0.0-13.0-0.4-1.28","qcddhjhtue","","qcddhjhtue","""2024-11-13T02:32:15.315Z""","1695","materials/imgs/D76.png","arrowright","","[""materials/imgs/D55.png"",""materials/imgs/D4.png""]","false","random","","",""
"","","","","","html-keyboard-response","114","262052","0.0-13.0-0.4-0.29","qcddhjhtue","","qcddhjhtue","""2024-11-13T02:32:15.315Z""","null","+","null","","","","","","",""
"","","","","","image-keyboard-response","115","263340","0.0-13.0-0.4-1.29","qcddhjhtue","","qcddhjhtue","""2024-11-13T02:32:15.315Z""","1285","materials/imgs/D21.png","arrowleft","","[""materials/imgs/D84.png"",""materials/imgs/D18.png""]","false","random","","",""
"","","","","","html-keyboard-response","116","263848","0.0-13.0-0.4-0.30","qcddhjhtue","","qcddhjhtue","""2024-11-13T02:32:15.315Z""","null","+","null","","","","","","",""
"","","","","","image-keyboard-response","117","264646","0.0-13.0-0.4-1.30","qcddhjhtue","","qcddhjhtue","""2024-11-13T02:32:15.315Z""","796","materials/imgs/D22.png","arrowright","","[""materials/imgs/D83.png"",""materials/imgs/D36.png""]","false","random","","",""
"","","","","","html-keyboard-response","118","265158","0.0-13.0-0.4-0.31","qcddhjhtue","","qcddhjhtue","""2024-11-13T02:32:15.315Z""","null","+","null","","","","","","",""
"","","","","","image-keyboard-response","119","266772","0.0-13.0-0.4-1.31","qcddhjhtue","","qcddhjhtue","""2024-11-13T02:32:15.315Z""","1610","materials/imgs/D101.png","arrowright","","[""materials/imgs/D37.png"",""materials/imgs/D56.png""]","false","random","","",""
"","","","","","html-keyboard-response","120","267275","0.0-13.0-0.4-0.32","qcddhjhtue","","qcddhjhtue","""2024-11-13T02:32:15.315Z""","null","+","null","","","","","","",""
"","","","","","image-keyboard-response","121","269649","0.0-13.0-0.4-1.32","qcddhjhtue","","qcddhjhtue","""2024-11-13T02:32:15.315Z""","2371","materials/imgs/D20.png","arrowright","","[""materials/imgs/D57.png"",""materials/imgs/D22.png""]","false","random","","",""
"","","","","","html-keyboard-response","122","270154","0.0-13.0-0.4-0.33","qcddhjhtue","","qcddhjhtue","""2024-11-13T02:32:15.315Z""","null","+","null","","","","","","",""
"","","","","","image-keyboard-response","123","271639","0.0-13.0-0.4-1.33","qcddhjhtue","","qcddhjhtue","""2024-11-13T02:32:15.315Z""","1481","materials/imgs/D76.png","arrowleft","","[""materials/imgs/D92.png"",""materials/imgs/D66.png""]","false","random","","",""
"","","","","","html-keyboard-response","124","272147","0.0-13.0-0.4-0.34","qcddhjhtue","","qcddhjhtue","""2024-11-13T02:32:15.315Z""","null","+","null","","","","","","",""
"","","","","","image-keyboard-response","125","273512","0.0-13.0-0.4-1.34","qcddhjhtue","","qcddhjhtue","""2024-11-13T02:32:15.315Z""","1362","materials/imgs/D48.png","arrowright","","[""materials/imgs/D105.png"",""materials/imgs/D8.png""]","false","random","","",""
"","","","","","html-keyboard-response","126","274024","0.0-13.0-1.4-0.4","qcddhjhtue","","qcddhjhtue","""2024-11-13T02:32:15.315Z""","null","+","null","","","","","","",""
"","","","","","image-keyboard-response","127","274808","0.0-13.0-1.4-1.4","qcddhjhtue","","qcddhjhtue","""2024-11-13T02:32:15.315Z""","782","materials/imgs/D8.png","arrowright","","[""materials/imgs/D18.png"",""materials/imgs/D8.png""]","","check","materials/imgs/D8.png","1","true"
"","","","","","html-keyboard-response","128","275312","0.0-13.0-2.4-0.8","qcddhjhtue","","qcddhjhtue","""2024-11-13T02:32:15.315Z""","null","+","null","","","","","","",""
"","","","","","image-keyboard-response","129","276577","0.0-13.0-2.4-1.8","qcddhjhtue","","qcddhjhtue","""2024-11-13T02:32:15.315Z""","1262","materials/imgs/D76.png","arrowleft","","[""materials/imgs/D83.png"",""materials/imgs/D6.png""]","false","validation","","",""
"","","","","","html-keyboard-response","130","277084","0.0-13.0-2.4-0.9","qcddhjhtue","","qcddhjhtue","""2024-11-13T02:32:15.315Z""","null","+","null","","","","","","",""
"","","","","","image-keyboard-response","131","278956","0.0-13.0-2.4-1.9","qcddhjhtue","","qcddhjhtue","""2024-11-13T02:32:15.315Z""","1866","materials/imgs/D56.png","arrowleft","","[""materials/imgs/D25.png"",""materials/imgs/D105.png""]","false","validation","","",""
"","","","","","html-button-response","132","285642","0.0-14.0","qcddhjhtue","","qcddhjhtue","""2024-11-13T02:32:15.315Z""","6684","You have completed 25% of the trials. Please click 'Continue' when you are ready proceed.","0","","","","","","",""
"","","","","","html-keyboard-response","133","286153","0.0-15.0-0.0-0.0","qcddhjhtue","","qcddhjhtue","""2024-11-13T02:32:15.315Z""","null","+","null","","","","","","",""
"","","","","","image-keyboard-response","134","288618","0.0-15.0-0.0-1.0","qcddhjhtue","","qcddhjhtue","""2024-11-13T02:32:15.315Z""","2463","materials/imgs/D37.png","arrowright","","[""materials/imgs/D8.png"",""materials/imgs/D35.png""]","false","random","","",""
"","","","","","html-keyboard-response","135","289123","0.0-15.0-0.0-0.1","qcddhjhtue","","qcddhjhtue","""2024-11-13T02:32:15.315Z""","null","+","null","","","","","","",""
"","","","","","image-keyboard-response","136","291170","0.0-15.0-0.0-1.1","qcddhjhtue","","qcddhjhtue","""2024-11-13T02:32:15.315Z""","2044","materials/imgs/D32.png","arrowright","","[""materials/imgs/D46.png"",""materials/imgs/D83.png""]","false","random","","",""
"","","","","","html-keyboard-response","137","291673","0.0-15.0-0.0-0.2","qcddhjhtue","","qcddhjhtue","""2024-11-13T02:32:15.315Z""","null","+","null","","","","","","",""
"","","","","","image-keyboard-response","138","293629","0.0-15.0-0.0-1.2","qcddhjhtue","","qcddhjhtue","""2024-11-13T02:32:15.315Z""","1952","materials/imgs/D92.png","arrowright","","[""materials/imgs/D85.png"",""materials/imgs/D77.png""]","false","random","","",""
"","","","","","html-keyboard-response","139","294132","0.0-15.0-0.0-0.3","qcddhjhtue","","qcddhjhtue","""2024-11-13T02:32:15.315Z""","null","+","null","","","","","","",""
"","","","","","image-keyboard-response","140","294891","0.0-15.0-0.0-1.3","qcddhjhtue","","qcddhjhtue","""2024-11-13T02:32:15.315Z""","758","materials/imgs/D20.png","arrowleft","","[""materials/imgs/D22.png"",""materials/imgs/D9.png""]","false","random","","",""
"","","","","","html-keyboard-response","141","295405","0.0-15.0-0.0-0.4","qcddhjhtue","","qcddhjhtue","""2024-11-13T02:32:15.315Z""","null","+","null","","","","","","",""
"","","","","","image-keyboard-response","142","296010","0.0-15.0-0.0-1.4","qcddhjhtue","","qcddhjhtue","""2024-11-13T02:32:15.315Z""","602","materials/imgs/D29.png","arrowright","","[""materials/imgs/D76.png"",""materials/imgs/D4.png""]","false","random","","",""
"","","","","","html-keyboard-response","143","296524","0.0-15.0-0.0-0.5","qcddhjhtue","","qcddhjhtue","""2024-11-13T02:32:15.315Z""","null","+","null","","","","","","",""
"","","","","","image-keyboard-response","144","297512","0.0-15.0-0.0-1.5","qcddhjhtue","","qcddhjhtue","""2024-11-13T02:32:15.315Z""","985","materials/imgs/D6.png","arrowright","","[""materials/imgs/D101.png"",""materials/imgs/D17.png""]","false","random","","",""
"","","","","","html-keyboard-response","145","298022","0.0-15.0-0.0-0.6","qcddhjhtue","","qcddhjhtue","""2024-11-13T02:32:15.315Z""","null","+","null","","","","","","",""
"","","","","","image-keyboard-response","146","299084","0.0-15.0-0.0-1.6","qcddhjhtue","","qcddhjhtue","""2024-11-13T02:32:15.315Z""","1058","materials/imgs/D80.png","arrowright","","[""materials/imgs/D20.png"",""materials/imgs/D68.png""]","false","random","","",""
"","","","","","html-keyboard-response","147","299595","0.0-15.0-1.0-0.0","qcddhjhtue","","qcddhjhtue","""2024-11-13T02:32:15.315Z""","null","+","null","","","","","","",""
"","","","","","image-keyboard-response","148","300242","0.0-15.0-1.0-1.0","qcddhjhtue","","qcddhjhtue","""2024-11-13T02:32:15.315Z""","644","materials/imgs/D46.png","arrowleft","","[""materials/imgs/D46.png"",""materials/imgs/D26.png""]","","check","materials/imgs/D46.png","0","true"
"","","","","","html-keyboard-response","149","300748","0.0-15.0-2.0-0.0","qcddhjhtue","","qcddhjhtue","""2024-11-13T02:32:15.315Z""","null","+","null","","","","","","",""
"","","","","","image-keyboard-response","150","302164","0.0-15.0-2.0-1.0","qcddhjhtue","","qcddhjhtue","""2024-11-13T02:32:15.315Z""","1411","materials/imgs/D49.png","arrowright","","[""materials/imgs/D8.png"",""materials/imgs/D101.png""]","false","validation","","",""
"","","","","","html-keyboard-response","151","302675","0.0-15.0-2.0-0.1","qcddhjhtue","","qcddhjhtue","""2024-11-13T02:32:15.315Z""","null","+","null","","","","","","",""
"","","","","","image-keyboard-response","152","304059","0.0-15.0-2.0-1.1","qcddhjhtue","","qcddhjhtue","""2024-11-13T02:32:15.315Z""","1381","materials/imgs/D102.png","arrowright","","[""materials/imgs/D32.png"",""materials/imgs/D111.png""]","false","validation","","",""
"","","","","","html-keyboard-response","153","304575","0.0-15.0-0.1-0.7","qcddhjhtue","","qcddhjhtue","""2024-11-13T02:32:15.315Z""","null","+","null","","","","","","",""
"","","","","","image-keyboard-response","154","307666","0.0-15.0-0.1-1.7","qcddhjhtue","","qcddhjhtue","""2024-11-13T02:32:15.315Z""","3088","materials/imgs/D9.png","arrowright","","[""materials/imgs/D57.png"",""materials/imgs/D84.png""]","false","random","","",""
"","","","","","html-keyboard-response","155","308174","0.0-15.0-0.1-0.8","qcddhjhtue","","qcddhjhtue","""2024-11-13T02:32:15.315Z""","null","+","null","","","","","","",""
"","","","","","image-keyboard-response","156","309328","0.0-15.0-0.1-1.8","qcddhjhtue","","qcddhjhtue","""2024-11-13T02:32:15.315Z""","1149","materials/imgs/D102.png","arrowright","","[""materials/imgs/D24.png"",""materials/imgs/D66.png""]","false","random","","",""
"","","","","","html-keyboard-response","157","309842","0.0-15.0-0.1-0.9","qcddhjhtue","","qcddhjhtue","""2024-11-13T02:32:15.315Z""","null","+","null","","","","","","",""
"","","","","","image-keyboard-response","158","310752","0.0-15.0-0.1-1.9","qcddhjhtue","","qcddhjhtue","""2024-11-13T02:32:15.315Z""","906","materials/imgs/D3.png","arrowleft","","[""materials/imgs/D55.png"",""materials/imgs/D57.png""]","false","random","","",""
"","","","","","html-keyboard-response","159","311262","0.0-15.0-0.1-0.10","qcddhjhtue","","qcddhjhtue","""2024-11-13T02:32:15.315Z""","null","+","null","","","","","","",""
"","","","","","image-keyboard-response","160","313648","0.0-15.0-0.1-1.10","qcddhjhtue","","qcddhjhtue","""2024-11-13T02:32:15.315Z""","2382","materials/imgs/D82.png","arrowright","","[""materials/imgs/D106.png"",""materials/imgs/D36.png""]","false","random","","",""
"","","","","","html-keyboard-response","161","314154","0.0-15.0-0.1-0.11","qcddhjhtue","","qcddhjhtue","""2024-11-13T02:32:15.315Z""","null","+","null","","","","","","",""
"","","","","","image-keyboard-response","162","317370","0.0-15.0-0.1-1.11","qcddhjhtue","","qcddhjhtue","""2024-11-13T02:32:15.315Z""","3212","materials/imgs/D76.png","arrowleft","","[""materials/imgs/D9.png"",""materials/imgs/D102.png""]","false","random","","",""
"","","","","","html-keyboard-response","163","317874","0.0-15.0-0.1-0.12","qcddhjhtue","","qcddhjhtue","""2024-11-13T02:32:15.315Z""","null","+","null","","","","","","",""
"","","","","","image-keyboard-response","164","318666","0.0-15.0-0.1-1.12","qcddhjhtue","","qcddhjhtue","""2024-11-13T02:32:15.315Z""","789","materials/imgs/D32.png","arrowright","","[""materials/imgs/D101.png"",""materials/imgs/D79.png""]","false","random","","",""
"","","","","","html-keyboard-response","165","319179","0.0-15.0-0.1-0.13","qcddhjhtue","","qcddhjhtue","""2024-11-13T02:32:15.315Z""","null","+","null","","","","","","",""
"","","","","","image-keyboard-response","166","320089","0.0-15.0-0.1-1.13","qcddhjhtue","","qcddhjhtue","""2024-11-13T02:32:15.315Z""","906","materials/imgs/D66.png","arrowleft","","[""materials/imgs/D81.png"",""materials/imgs/D21.png""]","false","random","","",""
"","","","","","html-keyboard-response","167","320590","0.0-15.0-1.1-0.1","qcddhjhtue","","qcddhjhtue","""2024-11-13T02:32:15.315Z""","null","+","null","","","","","","",""
"","","","","","image-keyboard-response","168","321345","0.0-15.0-1.1-1.1","qcddhjhtue","","qcddhjhtue","""2024-11-13T02:32:15.315Z""","752","materials/imgs/D78.png","arrowright","","[""materials/imgs/D76.png"",""materials/imgs/D78.png""]","","check","materials/imgs/D78.png","1","true"
"","","","","","html-keyboard-response","169","321849","0.0-15.0-2.1-0.2","qcddhjhtue","","qcddhjhtue","""2024-11-13T02:32:15.315Z""","null","+","null","","","","","","",""
"","","","","","image-keyboard-response","170","323450","0.0-15.0-2.1-1.2","qcddhjhtue","","qcddhjhtue","""2024-11-13T02:32:15.315Z""","1599","materials/imgs/D6.png","arrowright","","[""materials/imgs/D26.png"",""materials/imgs/D76.png""]","false","validation","","",""
"","","","","","html-keyboard-response","171","323966","0.0-15.0-2.1-0.3","qcddhjhtue","","qcddhjhtue","""2024-11-13T02:32:15.315Z""","null","+","null","","","","","","",""
"","","","","","image-keyboard-response","172","326445","0.0-15.0-2.1-1.3","qcddhjhtue","","qcddhjhtue","""2024-11-13T02:32:15.315Z""","2475","materials/imgs/D49.png","arrowright","","[""materials/imgs/D8.png"",""materials/imgs/D101.png""]","false","validation","","",""
"","","","","","html-keyboard-response","173","326957","0.0-15.0-0.2-0.14","qcddhjhtue","","qcddhjhtue","""2024-11-13T02:32:15.315Z""","null","+","null","","","","","","",""
"","","","","","image-keyboard-response","174","328176","0.0-15.0-0.2-1.14","qcddhjhtue","","qcddhjhtue","""2024-11-13T02:32:15.315Z""","1216","materials/imgs/D48.png","arrowleft","","[""materials/imgs/D64.png"",""materials/imgs/D57.png""]","false","random","","",""
"","","","","","html-keyboard-response","175","328686","0.0-15.0-0.2-0.15","qcddhjhtue","","qcddhjhtue","""2024-11-13T02:32:15.315Z""","null","+","null","","","","","","",""
"","","","","","image-keyboard-response","176","330252","0.0-15.0-0.2-1.15","qcddhjhtue","","qcddhjhtue","""2024-11-13T02:32:15.315Z""","1562","materials/imgs/D22.png","arrowleft","","[""materials/imgs/D55.png"",""materials/imgs/D82.png""]","false","random","","",""
"","","","","","html-keyboard-response","177","330764","0.0-15.0-0.2-0.16","qcddhjhtue","","qcddhjhtue","""2024-11-13T02:32:15.315Z""","null","+","null","","","","","","",""
"","","","","","image-keyboard-response","178","332207","0.0-15.0-0.2-1.16","qcddhjhtue","","qcddhjhtue","""2024-11-13T02:32:15.315Z""","1440","materials/imgs/D81.png","arrowleft","","[""materials/imgs/D34.png"",""materials/imgs/D51.png""]","false","random","","",""
"","","","","","html-keyboard-response","179","332714","0.0-15.0-0.2-0.17","qcddhjhtue","","qcddhjhtue","""2024-11-13T02:32:15.315Z""","null","+","null","","","","","","",""
"","","","","","image-keyboard-response","180","334932","0.0-15.0-0.2-1.17","qcddhjhtue","","qcddhjhtue","""2024-11-13T02:32:15.315Z""","2216","materials/imgs/D11.png","arrowleft","","[""materials/imgs/D84.png"",""materials/imgs/D55.png""]","false","random","","",""
"","","","","","html-keyboard-response","181","335436","0.0-15.0-0.2-0.18","qcddhjhtue","","qcddhjhtue","""2024-11-13T02:32:15.315Z""","null","+","null","","","","","","",""
"","","","","","image-keyboard-response","182","337462","0.0-15.0-0.2-1.18","qcddhjhtue","","qcddhjhtue","""2024-11-13T02:32:15.315Z""","2024","materials/imgs/D16.png","arrowleft","","[""materials/imgs/D76.png"",""materials/imgs/D52.png""]","false","random","","",""
"","","","","","html-keyboard-response","183","337976","0.0-15.0-0.2-0.19","qcddhjhtue","","qcddhjhtue","""2024-11-13T02:32:15.315Z""","null","+","null","","","","","","",""
"","","","","","image-keyboard-response","184","340007","0.0-15.0-0.2-1.19","qcddhjhtue","","qcddhjhtue","""2024-11-13T02:32:15.315Z""","2027","materials/imgs/D94.png","arrowleft","","[""materials/imgs/D80.png"",""materials/imgs/D49.png""]","false","random","","",""
"","","","","","html-keyboard-response","185","340519","0.0-15.0-0.2-0.20","qcddhjhtue","","qcddhjhtue","""2024-11-13T02:32:15.315Z""","null","+","null","","","","","","",""
"","","","","","image-keyboard-response","186","345389","0.0-15.0-0.2-1.20","qcddhjhtue","","qcddhjhtue","""2024-11-13T02:32:15.315Z""","4868","materials/imgs/D3.png","arrowright","","[""materials/imgs/D105.png"",""materials/imgs/D76.png""]","false","random","","",""
"","","","","","html-keyboard-response","187","345902","0.0-15.0-1.2-0.2","qcddhjhtue","","qcddhjhtue","""2024-11-13T02:32:15.315Z""","null","+","null","","","","","","",""
"","","","","","image-keyboard-response","188","346480","0.0-15.0-1.2-1.2","qcddhjhtue","","qcddhjhtue","""2024-11-13T02:32:15.315Z""","575","materials/imgs/D26.png","arrowleft","","[""materials/imgs/D26.png"",""materials/imgs/D46.png""]","","check","materials/imgs/D26.png","0","true"
"","","","","","html-keyboard-response","189","346994","0.0-15.0-2.2-0.4","qcddhjhtue","","qcddhjhtue","""2024-11-13T02:32:15.315Z""","null","+","null","","","","","","",""
"","","","","","image-keyboard-response","190","348532","0.0-15.0-2.2-1.4","qcddhjhtue","","qcddhjhtue","""2024-11-13T02:32:15.315Z""","1535","materials/imgs/D20.png","arrowleft","","[""materials/imgs/D84.png"",""materials/imgs/D85.png""]","false","validation","","",""
"","","","","","html-keyboard-response","191","349036","0.0-15.0-2.2-0.5","qcddhjhtue","","qcddhjhtue","""2024-11-13T02:32:15.315Z""","null","+","null","","","","","","",""
"","","","","","image-keyboard-response","192","353296","0.0-15.0-2.2-1.5","qcddhjhtue","","qcddhjhtue","""2024-11-13T02:32:15.315Z""","4255","materials/imgs/D46.png","arrowright","","[""materials/imgs/D92.png"",""materials/imgs/D77.png""]","false","validation","","",""
"","","","","","html-keyboard-response","193","353804","0.0-15.0-0.3-0.21","qcddhjhtue","","qcddhjhtue","""2024-11-13T02:32:15.315Z""","null","+","null","","","","","","",""
"","","","","","image-keyboard-response","194","354854","0.0-15.0-0.3-1.21","qcddhjhtue","","qcddhjhtue","""2024-11-13T02:32:15.315Z""","1047","materials/imgs/D21.png","arrowright","","[""materials/imgs/D46.png"",""materials/imgs/D55.png""]","false","random","","",""
"","","","","","html-keyboard-response","195","355367","0.0-15.0-0.3-0.22","qcddhjhtue","","qcddhjhtue","""2024-11-13T02:32:15.315Z""","null","+","null","","","","","","",""
"","","","","","image-keyboard-response","196","359231","0.0-15.0-0.3-1.22","qcddhjhtue","","qcddhjhtue","""2024-11-13T02:32:15.315Z""","3862","materials/imgs/D17.png","arrowleft","","[""materials/imgs/D84.png"",""materials/imgs/D68.png""]","false","random","","",""
"","","","","","html-keyboard-response","197","359734","0.0-15.0-0.3-0.23","qcddhjhtue","","qcddhjhtue","""2024-11-13T02:32:15.315Z""","null","+","null","","","","","","",""
"","","","","","image-keyboard-response","198","362924","0.0-15.0-0.3-1.23","qcddhjhtue","","qcddhjhtue","""2024-11-13T02:32:15.315Z""","3188","materials/imgs/D51.png","arrowleft","","[""materials/imgs/D49.png"",""materials/imgs/D52.png""]","false","random","","",""
"","","","","","html-keyboard-response","199","363441","0.0-15.0-0.3-0.24","qcddhjhtue","","qcddhjhtue","""2024-11-13T02:32:15.315Z""","null","+","null","","","","","","",""
"","","","","","image-keyboard-response","200","370165","0.0-15.0-0.3-1.24","qcddhjhtue","","qcddhjhtue","""2024-11-13T02:32:15.315Z""","6722","materials/imgs/D25.png","arrowright","","[""materials/imgs/D46.png"",""materials/imgs/D105.png""]","false","random","","",""
"","","","","","html-keyboard-response","201","370666","0.0-15.0-0.3-0.25","qcddhjhtue","","qcddhjhtue","""2024-11-13T02:32:15.315Z""","null","+","null","","","","","","",""
"","","","","","image-keyboard-response","202","371326","0.0-15.0-0.3-1.25","qcddhjhtue","","qcddhjhtue","""2024-11-13T02:32:15.315Z""","657","materials/imgs/D78.png","arrowleft","","[""materials/imgs/D79.png"",""materials/imgs/D104.png""]","false","random","","",""
"","","","","","html-keyboard-response","203","371834","0.0-15.0-0.3-0.26","qcddhjhtue","","qcddhjhtue","""2024-11-13T02:32:15.315Z""","null","+","null","","","","","","",""
"","","","","","image-keyboard-response","204","375170","0.0-15.0-0.3-1.26","qcddhjhtue","","qcddhjhtue","""2024-11-13T02:32:15.315Z""","3330","materials/imgs/D24.png","arrowleft","","[""materials/imgs/D111.png"",""materials/imgs/D14.png""]","false","random","","",""
"","","","","","html-keyboard-response","205","375674","0.0-15.0-0.3-0.27","qcddhjhtue","","qcddhjhtue","""2024-11-13T02:32:15.315Z""","null","+","null","","","","","","",""
"","","","","","image-keyboard-response","206","376780","0.0-15.0-0.3-1.27","qcddhjhtue","","qcddhjhtue","""2024-11-13T02:32:15.315Z""","1103","materials/imgs/D106.png","arrowright","","[""materials/imgs/D77.png"",""materials/imgs/D79.png""]","false","random","","",""
"","","","","","html-keyboard-response","207","377295","0.0-15.0-1.3-0.3","qcddhjhtue","","qcddhjhtue","""2024-11-13T02:32:15.315Z""","null","+","null","","","","","","",""
"","","","","","image-keyboard-response","208","377982","0.0-15.0-1.3-1.3","qcddhjhtue","","qcddhjhtue","""2024-11-13T02:32:15.315Z""","684","materials/imgs/D106.png","arrowleft","","[""materials/imgs/D106.png"",""materials/imgs/D101.png""]","","check","materials/imgs/D106.png","0","true"
"","","","","","html-keyboard-response","209","378495","0.0-15.0-2.3-0.6","qcddhjhtue","","qcddhjhtue","""2024-11-13T02:32:15.315Z""","null","+","null","","","","","","",""
"","","","","","image-keyboard-response","210","382760","0.0-15.0-2.3-1.6","qcddhjhtue","","qcddhjhtue","""2024-11-13T02:32:15.315Z""","4262","materials/imgs/D83.png","arrowright","","[""materials/imgs/D24.png"",""materials/imgs/D8.png""]","false","validation","","",""
"","","","","","html-keyboard-response","211","383274","0.0-15.0-2.3-0.7","qcddhjhtue","","qcddhjhtue","""2024-11-13T02:32:15.315Z""","null","+","null","","","","","","",""
"","","","","","image-keyboard-response","212","384476","0.0-15.0-2.3-1.7","qcddhjhtue","","qcddhjhtue","""2024-11-13T02:32:15.315Z""","1199","materials/imgs/D25.png","arrowright","","[""materials/imgs/D103.png"",""materials/imgs/D64.png""]","false","validation","","",""
"","","","","","html-keyboard-response","213","384985","0.0-15.0-0.4-0.28","qcddhjhtue","","qcddhjhtue","""2024-11-13T02:32:15.315Z""","null","+","null","","","","","","",""
"","","","","","image-keyboard-response","214","385943","0.0-15.0-0.4-1.28","qcddhjhtue","","qcddhjhtue","""2024-11-13T02:32:15.315Z""","954","materials/imgs/D83.png","arrowright","","[""materials/imgs/D101.png"",""materials/imgs/D80.png""]","false","random","","",""
"","","","","","html-keyboard-response","215","386444","0.0-15.0-0.4-0.29","qcddhjhtue","","qcddhjhtue","""2024-11-13T02:32:15.315Z""","null","+","null","","","","","","",""
"","","","","","image-keyboard-response","216","387838","0.0-15.0-0.4-1.29","qcddhjhtue","","qcddhjhtue","""2024-11-13T02:32:15.315Z""","1391","materials/imgs/D46.png","arrowleft","","[""materials/imgs/D8.png"",""materials/imgs/D92.png""]","false","random","","",""
"","","","","","html-keyboard-response","217","388342","0.0-15.0-0.4-0.30","qcddhjhtue","","qcddhjhtue","""2024-11-13T02:32:15.315Z""","null","+","null","","","","","","",""
"","","","","","image-keyboard-response","218","389613","0.0-15.0-0.4-1.30","qcddhjhtue","","qcddhjhtue","""2024-11-13T02:32:15.315Z""","1268","materials/imgs/D82.png","arrowright","","[""materials/imgs/D18.png"",""materials/imgs/D83.png""]","false","random","","",""
"","","","","","html-keyboard-response","219","390128","0.0-15.0-0.4-0.31","qcddhjhtue","","qcddhjhtue","""2024-11-13T02:32:15.315Z""","null","+","null","","","","","","",""
"","","","","","image-keyboard-response","220","391468","0.0-15.0-0.4-1.31","qcddhjhtue","","qcddhjhtue","""2024-11-13T02:32:15.315Z""","1336","materials/imgs/D65.png","arrowright","","[""materials/imgs/D76.png"",""materials/imgs/D56.png""]","false","random","","",""
"","","","","","html-keyboard-response","221","391977","0.0-15.0-0.4-0.32","qcddhjhtue","","qcddhjhtue","""2024-11-13T02:32:15.315Z""","null","+","null","","","","","","",""
"","","","","","image-keyboard-response","222","394065","0.0-15.0-0.4-1.32","qcddhjhtue","","qcddhjhtue","""2024-11-13T02:32:15.315Z""","2084","materials/imgs/D68.png","arrowleft","","[""materials/imgs/D19.png"",""materials/imgs/D22.png""]","false","random","","",""
"","","","","","html-keyboard-response","223","394574","0.0-15.0-0.4-0.33","qcddhjhtue","","qcddhjhtue","""2024-11-13T02:32:15.315Z""","null","+","null","","","","","","",""
"","","","","","image-keyboard-response","224","396627","0.0-15.0-0.4-1.33","qcddhjhtue","","qcddhjhtue","""2024-11-13T02:32:15.315Z""","2050","materials/imgs/D19.png","arrowleft","","[""materials/imgs/D29.png"",""materials/imgs/D11.png""]","false","random","","",""
"","","","","","html-keyboard-response","225","397141","0.0-15.0-0.4-0.34","qcddhjhtue","","qcddhjhtue","""2024-11-13T02:32:15.315Z""","null","+","null","","","","","","",""
"","","","","","image-keyboard-response","226","398247","0.0-15.0-0.4-1.34","qcddhjhtue","","qcddhjhtue","""2024-11-13T02:32:15.315Z""","1102","materials/imgs/D53.png","arrowleft","","[""materials/imgs/D82.png"",""materials/imgs/D11.png""]","false","random","","",""
"","","","","","html-keyboard-response","227","398759","0.0-15.0-1.4-0.4","qcddhjhtue","","qcddhjhtue","""2024-11-13T02:32:15.315Z""","null","+","null","","","","","","",""
"","","","","","image-keyboard-response","228","399398","0.0-15.0-1.4-1.4","qcddhjhtue","","qcddhjhtue","""2024-11-13T02:32:15.315Z""","636","materials/imgs/D8.png","arrowright","","[""materials/imgs/D18.png"",""materials/imgs/D8.png""]","","check","materials/imgs/D8.png","1","true"
"","","","","","html-keyboard-response","229","399909","0.0-15.0-2.4-0.8","qcddhjhtue","","qcddhjhtue","""2024-11-13T02:32:15.315Z""","null","+","null","","","","","","",""
"","","","","","image-keyboard-response","230","402063","0.0-15.0-2.4-1.8","qcddhjhtue","","qcddhjhtue","""2024-11-13T02:32:15.315Z""","2150","materials/imgs/D84.png","arrowright","","[""materials/imgs/D106.png"",""materials/imgs/D37.png""]","false","validation","","",""
"","","","","","html-keyboard-response","231","402572","0.0-15.0-2.4-0.9","qcddhjhtue","","qcddhjhtue","""2024-11-13T02:32:15.315Z""","null","+","null","","","","","","",""
"","","","","","image-keyboard-response","232","403875","0.0-15.0-2.4-1.9","qcddhjhtue","","qcddhjhtue","""2024-11-13T02:32:15.315Z""","1301","materials/imgs/D3.png","arrowleft","","[""materials/imgs/D79.png"",""materials/imgs/D48.png""]","false","validation","","",""
"","","","","","html-button-response","233","406235","0.0-16.0","qcddhjhtue","","qcddhjhtue","""2024-11-13T02:32:15.315Z""","2359","You have completed 50% of the trials. Please click 'Continue' when you are ready proceed.","0","","","","","","",""
"","","","","","html-keyboard-response","234","406736","0.0-17.0-0.0-0.0","qcddhjhtue","","qcddhjhtue","""2024-11-13T02:32:15.315Z""","null","+","null","","","","","","",""
"","","","","","image-keyboard-response","235","407510","0.0-17.0-0.0-1.0","qcddhjhtue","","qcddhjhtue","""2024-11-13T02:32:15.315Z""","772","materials/imgs/D48.png","arrowleft","","[""materials/imgs/D19.png"",""materials/imgs/D102.png""]","false","random","","",""
"","","","","","html-keyboard-response","236","408014","0.0-17.0-0.0-0.1","qcddhjhtue","","qcddhjhtue","""2024-11-13T02:32:15.315Z""","null","+","null","","","","","","",""
"","","","","","image-keyboard-response","237","412058","0.0-17.0-0.0-1.1","qcddhjhtue","","qcddhjhtue","""2024-11-13T02:32:15.315Z""","4037","materials/imgs/D84.png","arrowleft","","[""materials/imgs/D76.png"",""materials/imgs/D35.png""]","false","random","","",""
"","","","","","html-keyboard-response","238","412566","0.0-17.0-0.0-0.2","qcddhjhtue","","qcddhjhtue","""2024-11-13T02:32:15.315Z""","null","+","null","","","","","","",""
"","","","","","image-keyboard-response","239","413785","0.0-17.0-0.0-1.2","qcddhjhtue","","qcddhjhtue","""2024-11-13T02:32:15.315Z""","1217","materials/imgs/D34.png","arrowright","","[""materials/imgs/D24.png"",""materials/imgs/D84.png""]","false","random","","",""
"","","","","","html-keyboard-response","240","414295","0.0-17.0-0.0-0.3","qcddhjhtue","","qcddhjhtue","""2024-11-13T02:32:15.315Z""","null","+","null","","","","","","",""
"","","","","","image-keyboard-response","241","417967","0.0-17.0-0.0-1.3","qcddhjhtue","","qcddhjhtue","""2024-11-13T02:32:15.315Z""","3670","materials/imgs/D26.png","arrowleft","","[""materials/imgs/D76.png"",""materials/imgs/D87.png""]","false","random","","",""
"","","","","","html-keyboard-response","242","418474","0.0-17.0-0.0-0.4","qcddhjhtue","","qcddhjhtue","""2024-11-13T02:32:15.315Z""","null","+","null","","","","","","",""
"","","","","","image-keyboard-response","243","420123","0.0-17.0-0.0-1.4","qcddhjhtue","","qcddhjhtue","""2024-11-13T02:32:15.315Z""","1647","materials/imgs/D17.png","arrowleft","","[""materials/imgs/D81.png"",""materials/imgs/D20.png""]","false","random","","",""
"","","","","","html-keyboard-response","244","420631","0.0-17.0-0.0-0.5","qcddhjhtue","","qcddhjhtue","""2024-11-13T02:32:15.315Z""","null","+","null","","","","","","",""
"","","","","","image-keyboard-response","245","421323","0.0-17.0-0.0-1.5","qcddhjhtue","","qcddhjhtue","""2024-11-13T02:32:15.315Z""","688","materials/imgs/D36.png","arrowright","","[""materials/imgs/D76.png"",""materials/imgs/D52.png""]","false","random","","",""
"","","","","","html-keyboard-response","246","421832","0.0-17.0-0.0-0.6","qcddhjhtue","","qcddhjhtue","""2024-11-13T02:32:15.315Z""","null","+","null","","","","","","",""
"","","","","","image-keyboard-response","247","422570","0.0-17.0-0.0-1.6","qcddhjhtue","","qcddhjhtue","""2024-11-13T02:32:15.315Z""","734","materials/imgs/D96.png","arrowright","","[""materials/imgs/D85.png"",""materials/imgs/D74.png""]","false","random","","",""
"","","","","","html-keyboard-response","248","423079","0.0-17.0-1.0-0.0","qcddhjhtue","","qcddhjhtue","""2024-11-13T02:32:15.315Z""","null","+","null","","","","","","",""
"","","","","","image-keyboard-response","249","423631","0.0-17.0-1.0-1.0","qcddhjhtue","","qcddhjhtue","""2024-11-13T02:32:15.315Z""","548","materials/imgs/D46.png","arrowleft","","[""materials/imgs/D46.png"",""materials/imgs/D26.png""]","","check","materials/imgs/D46.png","0","true"
"","","","","","html-keyboard-response","250","424136","0.0-17.0-2.0-0.0","qcddhjhtue","","qcddhjhtue","""2024-11-13T02:32:15.315Z""","null","+","null","","","","","","",""
"","","","","","image-keyboard-response","251","425019","0.0-17.0-2.0-1.0","qcddhjhtue","","qcddhjhtue","""2024-11-13T02:32:15.315Z""","880","materials/imgs/D102.png","arrowright","","[""materials/imgs/D32.png"",""materials/imgs/D111.png""]","false","validation","","",""
"","","","","","html-keyboard-response","252","425521","0.0-17.0-2.0-0.1","qcddhjhtue","","qcddhjhtue","""2024-11-13T02:32:15.315Z""","null","+","null","","","","","","",""
"","","","","","image-keyboard-response","253","427729","0.0-17.0-2.0-1.1","qcddhjhtue","","qcddhjhtue","""2024-11-13T02:32:15.315Z""","2206","materials/imgs/D81.png","arrowright","","[""materials/imgs/D105.png"",""materials/imgs/D24.png""]","false","validation","","",""
"","","","","","html-keyboard-response","254","428244","0.0-17.0-0.1-0.7","qcddhjhtue","","qcddhjhtue","""2024-11-13T02:32:15.315Z""","null","+","null","","","","","","",""
"","","","","","image-keyboard-response","255","429004","0.0-17.0-0.1-1.7","qcddhjhtue","","qcddhjhtue","""2024-11-13T02:32:15.315Z""","757","materials/imgs/D52.png","arrowleft","","[""materials/imgs/D47.png"",""materials/imgs/D32.png""]","false","random","","",""
"","","","","","html-keyboard-response","256","429506","0.0-17.0-0.1-0.8","qcddhjhtue","","qcddhjhtue","""2024-11-13T02:32:15.315Z""","null","+","null","","","","","","",""
"","","","","","image-keyboard-response","257","432373","0.0-17.0-0.1-1.8","qcddhjhtue","","qcddhjhtue","""2024-11-13T02:32:15.315Z""","2863","materials/imgs/D19.png","arrowleft","","[""materials/imgs/D20.png"",""materials/imgs/D74.png""]","false","random","","",""
"","","","","","html-keyboard-response","258","432888","0.0-17.0-0.1-0.9","qcddhjhtue","","qcddhjhtue","""2024-11-13T02:32:15.315Z""","null","+","null","","","","","","",""
"","","","","","image-keyboard-response","259","433683","0.0-17.0-0.1-1.9","qcddhjhtue","","qcddhjhtue","""2024-11-13T02:32:15.315Z""","775","materials/imgs/D32.png","arrowright","","[""materials/imgs/D26.png"",""materials/imgs/D4.png""]","false","random","","",""
"","","","","","html-keyboard-response","260","434196","0.0-17.0-0.1-0.10","qcddhjhtue","","qcddhjhtue","""2024-11-13T02:32:15.315Z""","null","+","null","","","","","","",""
"","","","","","image-keyboard-response","261","438514","0.0-17.0-0.1-1.10","qcddhjhtue","","qcddhjhtue","""2024-11-13T02:32:15.315Z""","4315","materials/imgs/D77.png","arrowleft","","[""materials/imgs/D65.png"",""materials/imgs/D8.png""]","false","random","","",""
"","","","","","html-keyboard-response","262","439026","0.0-17.0-0.1-0.11","qcddhjhtue","","qcddhjhtue","""2024-11-13T02:32:15.315Z""","null","+","null","","","","","","",""
"","","","","","image-keyboard-response","263","442675","0.0-17.0-0.1-1.11","qcddhjhtue","","qcddhjhtue","""2024-11-13T02:32:15.315Z""","3646","materials/imgs/D96.png","arrowleft","","[""materials/imgs/D4.png"",""materials/imgs/D74.png""]","false","random","","",""
"","","","","","html-keyboard-response","264","443183","0.0-17.0-0.1-0.12","qcddhjhtue","","qcddhjhtue","""2024-11-13T02:32:15.315Z""","null","+","null","","","","","","",""
"","","","","","image-keyboard-response","265","444980","0.0-17.0-0.1-1.12","qcddhjhtue","","qcddhjhtue","""2024-11-13T02:32:15.315Z""","1795","materials/imgs/D66.png","arrowleft","","[""materials/imgs/D8.png"",""materials/imgs/D106.png""]","false","random","","",""
"","","","","","html-keyboard-response","266","445484","0.0-17.0-0.1-0.13","qcddhjhtue","","qcddhjhtue","""2024-11-13T02:32:15.315Z""","null","+","null","","","","","","",""
"","","","","","image-keyboard-response","267","447840","0.0-17.0-0.1-1.13","qcddhjhtue","","qcddhjhtue","""2024-11-13T02:32:15.315Z""","2353","materials/imgs/D83.png","arrowright","","[""materials/imgs/D35.png"",""materials/imgs/D68.png""]","false","random","","",""
"","","","","","html-keyboard-response","268","448346","0.0-17.0-1.1-0.1","qcddhjhtue","","qcddhjhtue","""2024-11-13T02:32:15.315Z""","null","+","null","","","","","","",""
"","","","","","image-keyboard-response","269","448937","0.0-17.0-1.1-1.1","qcddhjhtue","","qcddhjhtue","""2024-11-13T02:32:15.315Z""","589","materials/imgs/D26.png","arrowleft","","[""materials/imgs/D26.png"",""materials/imgs/D46.png""]","","check","materials/imgs/D26.png","0","true"
"","","","","","html-keyboard-response","270","449452","0.0-17.0-2.1-0.2","qcddhjhtue","","qcddhjhtue","""2024-11-13T02:32:15.315Z""","null","+","null","","","","","","",""
"","","","","","image-keyboard-response","271","451088","0.0-17.0-2.1-1.2","qcddhjhtue","","qcddhjhtue","""2024-11-13T02:32:15.315Z""","1632","materials/imgs/D26.png","arrowright","","[""materials/imgs/D36.png"",""materials/imgs/D92.png""]","false","validation","","",""
"","","","","","html-keyboard-response","272","451589","0.0-17.0-2.1-0.3","qcddhjhtue","","qcddhjhtue","""2024-11-13T02:32:15.315Z""","null","+","null","","","","","","",""
"","","","","","image-keyboard-response","273","452837","0.0-17.0-2.1-1.3","qcddhjhtue","","qcddhjhtue","""2024-11-13T02:32:15.315Z""","1243","materials/imgs/D79.png","arrowleft","","[""materials/imgs/D51.png"",""materials/imgs/D64.png""]","false","validation","","",""
"","","","","","html-keyboard-response","274","453346","0.0-17.0-0.2-0.14","qcddhjhtue","","qcddhjhtue","""2024-11-13T02:32:15.315Z""","null","+","null","","","","","","",""
"","","","","","image-keyboard-response","275","454964","0.0-17.0-0.2-1.14","qcddhjhtue","","qcddhjhtue","""2024-11-13T02:32:15.315Z""","1616","materials/imgs/D24.png","arrowleft","","[""materials/imgs/D57.png"",""materials/imgs/D104.png""]","false","random","","",""
"","","","","","html-keyboard-response","276","455477","0.0-17.0-0.2-0.15","qcddhjhtue","","qcddhjhtue","""2024-11-13T02:32:15.315Z""","null","+","null","","","","","","",""
"","","","","","image-keyboard-response","277","456685","0.0-17.0-0.2-1.15","qcddhjhtue","","qcddhjhtue","""2024-11-13T02:32:15.315Z""","1204","materials/imgs/D20.png","arrowright","","[""materials/imgs/D26.png"",""materials/imgs/D19.png""]","false","random","","",""
"","","","","","html-keyboard-response","278","457192","0.0-17.0-0.2-0.16","qcddhjhtue","","qcddhjhtue","""2024-11-13T02:32:15.315Z""","null","+","null","","","","","","",""
"","","","","","image-keyboard-response","279","458415","0.0-17.0-0.2-1.16","qcddhjhtue","","qcddhjhtue","""2024-11-13T02:32:15.315Z""","1221","materials/imgs/D74.png","arrowright","","[""materials/imgs/D3.png"",""materials/imgs/D8.png""]","false","random","","",""
"","","","","","html-keyboard-response","280","458920","0.0-17.0-0.2-0.17","qcddhjhtue","","qcddhjhtue","""2024-11-13T02:32:15.315Z""","null","+","null","","","","","","",""
"","","","","","image-keyboard-response","281","460762","0.0-17.0-0.2-1.17","qcddhjhtue","","qcddhjhtue","""2024-11-13T02:32:15.315Z""","1839","materials/imgs/D57.png","arrowright","","[""materials/imgs/D52.png"",""materials/imgs/D16.png""]","false","random","","",""
"","","","","","html-keyboard-response","282","461265","0.0-17.0-0.2-0.18","qcddhjhtue","","qcddhjhtue","""2024-11-13T02:32:15.315Z""","null","+","null","","","","","","",""
"","","","","","image-keyboard-response","283","468390","0.0-17.0-0.2-1.18","qcddhjhtue","","qcddhjhtue","""2024-11-13T02:32:15.315Z""","7122","materials/imgs/D68.png","arrowleft","","[""materials/imgs/D4.png"",""materials/imgs/D18.png""]","false","random","","",""
"","","","","","html-keyboard-response","284","468904","0.0-17.0-0.2-0.19","qcddhjhtue","","qcddhjhtue","""2024-11-13T02:32:15.315Z""","null","+","null","","","","","","",""
"","","","","","image-keyboard-response","285","472045","0.0-17.0-0.2-1.19","qcddhjhtue","","qcddhjhtue","""2024-11-13T02:32:15.315Z""","3139","materials/imgs/D36.png","arrowleft","","[""materials/imgs/D8.png"",""materials/imgs/D80.png""]","false","random","","",""
"","","","","","html-keyboard-response","286","472557","0.0-17.0-0.2-0.20","qcddhjhtue","","qcddhjhtue","""2024-11-13T02:32:15.315Z""","null","+","null","","","","","","",""
"","","","","","image-keyboard-response","287","475277","0.0-17.0-0.2-1.20","qcddhjhtue","","qcddhjhtue","""2024-11-13T02:32:15.315Z""","2716","materials/imgs/D76.png","arrowleft","","[""materials/imgs/D78.png"",""materials/imgs/D16.png""]","false","random","","",""
"","","","","","html-keyboard-response","288","475782","0.0-17.0-1.2-0.2","qcddhjhtue","","qcddhjhtue","""2024-11-13T02:32:15.315Z""","null","+","null","","","","","","",""
"","","","","","image-keyboard-response","289","476692","0.0-17.0-1.2-1.2","qcddhjhtue","","qcddhjhtue","""2024-11-13T02:32:15.315Z""","908","materials/imgs/D101.png","arrowright","","[""materials/imgs/D106.png"",""materials/imgs/D101.png""]","","check","materials/imgs/D101.png","1","true"
"","","","","","html-keyboard-response","290","477202","0.0-17.0-2.2-0.4","qcddhjhtue","","qcddhjhtue","""2024-11-13T02:32:15.315Z""","null","+","null","","","","","","",""
"","","","","","image-keyboard-response","291","478587","0.0-17.0-2.2-1.4","qcddhjhtue","","qcddhjhtue","""2024-11-13T02:32:15.315Z""","1381","materials/imgs/D3.png","arrowleft","","[""materials/imgs/D79.png"",""materials/imgs/D48.png""]","false","validation","","",""
"","","","","","html-keyboard-response","292","479090","0.0-17.0-2.2-0.5","qcddhjhtue","","qcddhjhtue","""2024-11-13T02:32:15.315Z""","null","+","null","","","","","","",""
"","","","","","image-keyboard-response","293","482602","0.0-17.0-2.2-1.5","qcddhjhtue","","qcddhjhtue","""2024-11-13T02:32:15.315Z""","3510","materials/imgs/D6.png","arrowright","","[""materials/imgs/D26.png"",""materials/imgs/D76.png""]","false","validation","","",""
"","","","","","html-keyboard-response","294","483117","0.0-17.0-0.3-0.21","qcddhjhtue","","qcddhjhtue","""2024-11-13T02:32:15.315Z""","null","+","null","","","","","","",""
"","","","","","image-keyboard-response","295","484720","0.0-17.0-0.3-1.21","qcddhjhtue","","qcddhjhtue","""2024-11-13T02:32:15.315Z""","1599","materials/imgs/D4.png","arrowleft","","[""materials/imgs/D94.png"",""materials/imgs/D46.png""]","false","random","","",""
"","","","","","html-keyboard-response","296","485234","0.0-17.0-0.3-0.22","qcddhjhtue","","qcddhjhtue","""2024-11-13T02:32:15.315Z""","null","+","null","","","","","","",""
"","","","","","image-keyboard-response","297","487350","0.0-17.0-0.3-1.22","qcddhjhtue","","qcddhjhtue","""2024-11-13T02:32:15.315Z""","2112","materials/imgs/D35.png","arrowright","","[""materials/imgs/D25.png"",""materials/imgs/D21.png""]","false","random","","",""
"","","","","","html-keyboard-response","298","487864","0.0-17.0-0.3-0.23","qcddhjhtue","","qcddhjhtue","""2024-11-13T02:32:15.315Z""","null","+","null","","","","","","",""
"","","","","","image-keyboard-response","299","494377","0.0-17.0-0.3-1.23","qcddhjhtue","","qcddhjhtue","""2024-11-13T02:32:15.315Z""","6512","materials/imgs/D21.png","arrowright","","[""materials/imgs/D32.png"",""materials/imgs/D9.png""]","false","random","","",""
"","","","","","html-keyboard-response","300","494882","0.0-17.0-0.3-0.24","qcddhjhtue","","qcddhjhtue","""2024-11-13T02:32:15.315Z""","null","+","null","","","","","","",""
"","","","","","image-keyboard-response","301","495875","0.0-17.0-0.3-1.24","qcddhjhtue","","qcddhjhtue","""2024-11-13T02:32:15.315Z""","986","materials/imgs/D22.png","arrowleft","","[""materials/imgs/D66.png"",""materials/imgs/D77.png""]","false","random","","",""
"","","","","","html-keyboard-response","302","496392","0.0-17.0-0.3-0.25","qcddhjhtue","","qcddhjhtue","""2024-11-13T02:32:15.315Z""","null","+","null","","","","","","",""
"","","","","","image-keyboard-response","303","497925","0.0-17.0-0.3-1.25","qcddhjhtue","","qcddhjhtue","""2024-11-13T02:32:15.315Z""","1531","materials/imgs/D84.png","arrowright","","[""materials/imgs/D103.png"",""materials/imgs/D24.png""]","false","random","","",""
"","","","","","html-keyboard-response","304","498430","0.0-17.0-0.3-0.26","qcddhjhtue","","qcddhjhtue","""2024-11-13T02:32:15.315Z""","null","+","null","","","","","","",""
"","","","","","image-keyboard-response","305","499613","0.0-17.0-0.3-1.26","qcddhjhtue","","qcddhjhtue","""2024-11-13T02:32:15.315Z""","1178","materials/imgs/D32.png","arrowright","","[""materials/imgs/D17.png"",""materials/imgs/D9.png""]","false","random","","",""
"","","","","","html-keyboard-response","306","500114","0.0-17.0-0.3-0.27","qcddhjhtue","","qcddhjhtue","""2024-11-13T02:32:15.315Z""","null","+","null","","","","","","",""
"","","","","","image-keyboard-response","307","502130","0.0-17.0-0.3-1.27","qcddhjhtue","","qcddhjhtue","""2024-11-13T02:32:15.315Z""","2012","materials/imgs/D104.png","arrowleft","","[""materials/imgs/D92.png"",""materials/imgs/D75.png""]","false","random","","",""
"","","","","","html-keyboard-response","308","502639","0.0-17.0-1.3-0.3","qcddhjhtue","","qcddhjhtue","""2024-11-13T02:32:15.315Z""","null","+","null","","","","","","",""
"","","","","","image-keyboard-response","309","503276","0.0-17.0-1.3-1.3","qcddhjhtue","","qcddhjhtue","""2024-11-13T02:32:15.315Z""","635","materials/imgs/D76.png","arrowleft","","[""materials/imgs/D76.png"",""materials/imgs/D78.png""]","","check","materials/imgs/D76.png","0","true"
"","","","","","html-keyboard-response","310","503790","0.0-17.0-2.3-0.6","qcddhjhtue","","qcddhjhtue","""2024-11-13T02:32:15.315Z""","null","+","null","","","","","","",""
"","","","","","image-keyboard-response","311","506197","0.0-17.0-2.3-1.6","qcddhjhtue","","qcddhjhtue","""2024-11-13T02:32:15.315Z""","2404","materials/imgs/D75.png","arrowleft","","[""materials/imgs/D96.png"",""materials/imgs/D4.png""]","false","validation","","",""
"","","","","","html-keyboard-response","312","506703","0.0-17.0-2.3-0.7","qcddhjhtue","","qcddhjhtue","""2024-11-13T02:32:15.315Z""","null","+","null","","","","","","",""
"","","","","","image-keyboard-response","313","507844","0.0-17.0-2.3-1.7","qcddhjhtue","","qcddhjhtue","""2024-11-13T02:32:15.315Z""","1138","materials/imgs/D81.png","arrowright","","[""materials/imgs/D105.png"",""materials/imgs/D24.png""]","false","validation","","",""
"","","","","","html-keyboard-response","314","508350","0.0-17.0-0.4-0.28","qcddhjhtue","","qcddhjhtue","""2024-11-13T02:32:15.315Z""","null","+","null","","","","","","",""
"","","","","","image-keyboard-response","315","511292","0.0-17.0-0.4-1.28","qcddhjhtue","","qcddhjhtue","""2024-11-13T02:32:15.315Z""","2939","materials/imgs/D14.png","arrowright","","[""materials/imgs/D32.png"",""materials/imgs/D65.png""]","false","random","","",""
"","","","","","html-keyboard-response","316","511804","0.0-17.0-0.4-0.29","qcddhjhtue","","qcddhjhtue","""2024-11-13T02:32:15.315Z""","null","+","null","","","","","","",""
"","","","","","image-keyboard-response","317","514592","0.0-17.0-0.4-1.29","qcddhjhtue","","qcddhjhtue","""2024-11-13T02:32:15.315Z""","2785","materials/imgs/D25.png","arrowleft","","[""materials/imgs/D4.png"",""materials/imgs/D20.png""]","false","random","","",""
"","","","","","html-keyboard-response","318","515104","0.0-17.0-0.4-0.30","qcddhjhtue","","qcddhjhtue","""2024-11-13T02:32:15.315Z""","null","+","null","","","","","","",""
"","","","","","image-keyboard-response","319","515979","0.0-17.0-0.4-1.30","qcddhjhtue","","qcddhjhtue","""2024-11-13T02:32:15.315Z""","873","materials/imgs/D29.png","arrowleft","","[""materials/imgs/D80.png"",""materials/imgs/D34.png""]","false","random","","",""
"","","","","","html-keyboard-response","320","516496","0.0-17.0-0.4-0.31","qcddhjhtue","","qcddhjhtue","""2024-11-13T02:32:15.315Z""","null","+","null","","","","","","",""
"","","","","","image-keyboard-response","321","517220","0.0-17.0-0.4-1.31","qcddhjhtue","","qcddhjhtue","""2024-11-13T02:32:15.315Z""","721","materials/imgs/D101.png","arrowright","","[""materials/imgs/D79.png"",""materials/imgs/D8.png""]","false","random","","",""
"","","","","","html-keyboard-response","322","517729","0.0-17.0-0.4-0.32","qcddhjhtue","","qcddhjhtue","""2024-11-13T02:32:15.315Z""","null","+","null","","","","","","",""
"","","","","","image-keyboard-response","323","519344","0.0-17.0-0.4-1.32","qcddhjhtue","","qcddhjhtue","""2024-11-13T02:32:15.315Z""","1609","materials/imgs/D103.png","arrowright","","[""materials/imgs/D51.png"",""materials/imgs/D18.png""]","false","random","","",""
"","","","","","html-keyboard-response","324","519847","0.0-17.0-0.4-0.33","qcddhjhtue","","qcddhjhtue","""2024-11-13T02:32:15.315Z""","null","+","null","","","","","","",""
"","","","","","image-keyboard-response","325","521063","0.0-17.0-0.4-1.33","qcddhjhtue","","qcddhjhtue","""2024-11-13T02:32:15.315Z""","1213","materials/imgs/D25.png","arrowleft","","[""materials/imgs/D96.png"",""materials/imgs/D35.png""]","false","random","","",""
"","","","","","html-keyboard-response","326","521575","0.0-17.0-0.4-0.34","qcddhjhtue","","qcddhjhtue","""2024-11-13T02:32:15.315Z""","null","+","null","","","","","","",""
"","","","","","image-keyboard-response","327","523431","0.0-17.0-0.4-1.34","qcddhjhtue","","qcddhjhtue","""2024-11-13T02:32:15.315Z""","1850","materials/imgs/D18.png","arrowleft","","[""materials/imgs/D37.png"",""materials/imgs/D22.png""]","false","random","","",""
"","","","","","html-keyboard-response","328","523943","0.0-17.0-1.4-0.4","qcddhjhtue","","qcddhjhtue","""2024-11-13T02:32:15.315Z""","null","+","null","","","","","","",""
"","","","","","image-keyboard-response","329","524597","0.0-17.0-1.4-1.4","qcddhjhtue","","qcddhjhtue","""2024-11-13T02:32:15.315Z""","652","materials/imgs/D106.png","arrowleft","","[""materials/imgs/D106.png"",""materials/imgs/D101.png""]","","check","materials/imgs/D106.png","0","true"
"","","","","","html-keyboard-response","330","525112","0.0-17.0-2.4-0.8","qcddhjhtue","","qcddhjhtue","""2024-11-13T02:32:15.315Z""","null","+","null","","","","","","",""
"","","","","","image-keyboard-response","331","528911","0.0-17.0-2.4-1.8","qcddhjhtue","","qcddhjhtue","""2024-11-13T02:32:15.315Z""","3796","materials/imgs/D51.png","arrowright","","[""materials/imgs/D92.png"",""materials/imgs/D20.png""]","false","validation","","",""
"","","","","","html-keyboard-response","332","529418","0.0-17.0-2.4-0.9","qcddhjhtue","","qcddhjhtue","""2024-11-13T02:32:15.315Z""","null","+","null","","","","","","",""
"","","","","","image-keyboard-response","333","530634","0.0-17.0-2.4-1.9","qcddhjhtue","","qcddhjhtue","""2024-11-13T02:32:15.315Z""","1214","materials/imgs/D48.png","arrowright","","[""materials/imgs/D4.png"",""materials/imgs/D37.png""]","false","validation","","",""
"","","","","","html-button-response","334","543854","0.0-18.0","qcddhjhtue","","qcddhjhtue","""2024-11-13T02:32:15.315Z""","13219","You have completed 75% of the trials. Please click 'Continue' when you are ready proceed.","0","","","","","","",""
"","","","","","html-keyboard-response","335","544355","0.0-19.0-0.0-0.0","qcddhjhtue","","qcddhjhtue","""2024-11-13T02:32:15.315Z""","null","+","null","","","","","","",""
"","","","","","image-keyboard-response","336","546163","0.0-19.0-0.0-1.0","qcddhjhtue","","qcddhjhtue","""2024-11-13T02:32:15.315Z""","1807","materials/imgs/D74.png","arrowright","","[""materials/imgs/D78.png"",""materials/imgs/D53.png""]","false","random","","",""
"","","","","","html-keyboard-response","337","546666","0.0-19.0-0.0-0.1","qcddhjhtue","","qcddhjhtue","""2024-11-13T02:32:15.315Z""","null","+","null","","","","","","",""
"","","","","","image-keyboard-response","338","547696","0.0-19.0-0.0-1.1","qcddhjhtue","","qcddhjhtue","""2024-11-13T02:32:15.315Z""","1026","materials/imgs/D87.png","arrowright","","[""materials/imgs/D49.png"",""materials/imgs/D74.png""]","false","random","","",""
"","","","","","html-keyboard-response","339","548205","0.0-19.0-0.0-0.2","qcddhjhtue","","qcddhjhtue","""2024-11-13T02:32:15.315Z""","null","+","null","","","","","","",""
"","","","","","image-keyboard-response","340","549660","0.0-19.0-0.0-1.2","qcddhjhtue","","qcddhjhtue","""2024-11-13T02:32:15.315Z""","1450","materials/imgs/D106.png","arrowright","","[""materials/imgs/D20.png"",""materials/imgs/D24.png""]","false","random","","",""
"","","","","","html-keyboard-response","341","550167","0.0-19.0-0.0-0.3","qcddhjhtue","","qcddhjhtue","""2024-11-13T02:32:15.315Z""","null","+","null","","","","","","",""
"","","","","","image-keyboard-response","342","552490","0.0-19.0-0.0-1.3","qcddhjhtue","","qcddhjhtue","""2024-11-13T02:32:15.315Z""","2320","materials/imgs/D76.png","arrowleft","","[""materials/imgs/D66.png"",""materials/imgs/D57.png""]","false","random","","",""
"","","","","","html-keyboard-response","343","553000","0.0-19.0-0.0-0.4","qcddhjhtue","","qcddhjhtue","""2024-11-13T02:32:15.315Z""","null","+","null","","","","","","",""
"","","","","","image-keyboard-response","344","553662","0.0-19.0-0.0-1.4","qcddhjhtue","","qcddhjhtue","""2024-11-13T02:32:15.315Z""","660","materials/imgs/D95.png","arrowleft","","[""materials/imgs/D25.png"",""materials/imgs/D29.png""]","false","random","","",""
"","","","","","html-keyboard-response","345","554171","0.0-19.0-0.0-0.5","qcddhjhtue","","qcddhjhtue","""2024-11-13T02:32:15.315Z""","null","+","null","","","","","","",""
"","","","","","image-keyboard-response","346","557237","0.0-19.0-0.0-1.5","qcddhjhtue","","qcddhjhtue","""2024-11-13T02:32:15.315Z""","3063","materials/imgs/D79.png","arrowright","","[""materials/imgs/D8.png"",""materials/imgs/D95.png""]","false","random","","",""
"","","","","","html-keyboard-response","347","557747","0.0-19.0-0.0-0.6","qcddhjhtue","","qcddhjhtue","""2024-11-13T02:32:15.315Z""","null","+","null","","","","","","",""
"","","","","","image-keyboard-response","348","559282","0.0-19.0-0.0-1.6","qcddhjhtue","","qcddhjhtue","""2024-11-13T02:32:15.315Z""","1532","materials/imgs/D48.png","arrowleft","","[""materials/imgs/D14.png"",""materials/imgs/D21.png""]","false","random","","",""
"","","","","","html-keyboard-response","349","559787","0.0-19.0-1.0-0.0","qcddhjhtue","","qcddhjhtue","""2024-11-13T02:32:15.315Z""","null","+","null","","","","","","",""
"","","","","","image-keyboard-response","350","560397","0.0-19.0-1.0-1.0","qcddhjhtue","","qcddhjhtue","""2024-11-13T02:32:15.315Z""","608","materials/imgs/D76.png","arrowleft","","[""materials/imgs/D76.png"",""materials/imgs/D78.png""]","","check","materials/imgs/D76.png","0","true"
"","","","","","html-keyboard-response","351","560905","0.0-19.0-2.0-0.0","qcddhjhtue","","qcddhjhtue","""2024-11-13T02:32:15.315Z""","null","+","null","","","","","","",""
"","","","","","image-keyboard-response","352","562226","0.0-19.0-2.0-1.0","qcddhjhtue","","qcddhjhtue","""2024-11-13T02:32:15.315Z""","1318","materials/imgs/D68.png","arrowleft","","[""materials/imgs/D96.png"",""materials/imgs/D48.png""]","false","validation","","",""
"","","","","","html-keyboard-response","353","562740","0.0-19.0-2.0-0.1","qcddhjhtue","","qcddhjhtue","""2024-11-13T02:32:15.315Z""","null","+","null","","","","","","",""
"","","","","","image-keyboard-response","354","563875","0.0-19.0-2.0-1.1","qcddhjhtue","","qcddhjhtue","""2024-11-13T02:32:15.315Z""","1132","materials/imgs/D111.png","arrowleft","","[""materials/imgs/D82.png"",""materials/imgs/D95.png""]","false","validation","","",""
"","","","","","html-keyboard-response","355","564391","0.0-19.0-0.1-0.7","qcddhjhtue","","qcddhjhtue","""2024-11-13T02:32:15.315Z""","null","+","null","","","","","","",""
"","","","","","image-keyboard-response","356","566779","0.0-19.0-0.1-1.7","qcddhjhtue","","qcddhjhtue","""2024-11-13T02:32:15.315Z""","2384","materials/imgs/D104.png","arrowright","","[""materials/imgs/D74.png"",""materials/imgs/D75.png""]","false","random","","",""
"","","","","","html-keyboard-response","357","567290","0.0-19.0-0.1-0.8","qcddhjhtue","","qcddhjhtue","""2024-11-13T02:32:15.315Z""","null","+","null","","","","","","",""
"","","","","","image-keyboard-response","358","568363","0.0-19.0-0.1-1.8","qcddhjhtue","","qcddhjhtue","""2024-11-13T02:32:15.315Z""","1070","materials/imgs/D14.png","arrowright","","[""materials/imgs/D51.png"",""materials/imgs/D68.png""]","false","random","","",""
"","","","","","html-keyboard-response","359","568879","0.0-19.0-0.1-0.9","qcddhjhtue","","qcddhjhtue","""2024-11-13T02:32:15.315Z""","null","+","null","","","","","","",""
"","","","","","image-keyboard-response","360","572129","0.0-19.0-0.1-1.9","qcddhjhtue","","qcddhjhtue","""2024-11-13T02:32:15.315Z""","3247","materials/imgs/D51.png","arrowright","","[""materials/imgs/D14.png"",""materials/imgs/D65.png""]","false","random","","",""
"","","","","","html-keyboard-response","361","572642","0.0-19.0-0.1-0.10","qcddhjhtue","","qcddhjhtue","""2024-11-13T02:32:15.315Z""","null","+","null","","","","","","",""
"","","","","","image-keyboard-response","362","574294","0.0-19.0-0.1-1.10","qcddhjhtue","","qcddhjhtue","""2024-11-13T02:32:15.315Z""","1648","materials/imgs/D36.png","arrowleft","","[""materials/imgs/D102.png"",""materials/imgs/D8.png""]","false","random","","",""
"","","","","","html-keyboard-response","363","574807","0.0-19.0-0.1-0.11","qcddhjhtue","","qcddhjhtue","""2024-11-13T02:32:15.315Z""","null","+","null","","","","","","",""
"","","","","","image-keyboard-response","364","577069","0.0-19.0-0.1-1.11","qcddhjhtue","","qcddhjhtue","""2024-11-13T02:32:15.315Z""","2261","materials/imgs/D1.png","arrowleft","","[""materials/imgs/D47.png"",""materials/imgs/D11.png""]","false","random","","",""
"","","","","","html-keyboard-response","365","577574","0.0-19.0-0.1-0.12","qcddhjhtue","","qcddhjhtue","""2024-11-13T02:32:15.315Z""","null","+","null","","","","","","",""
"","","","","","image-keyboard-response","366","579144","0.0-19.0-0.1-1.12","qcddhjhtue","","qcddhjhtue","""2024-11-13T02:32:15.315Z""","1568","materials/imgs/D77.png","arrowleft","","[""materials/imgs/D85.png"",""materials/imgs/D84.png""]","false","random","","",""
"","","","","","html-keyboard-response","367","579646","0.0-19.0-0.1-0.13","qcddhjhtue","","qcddhjhtue","""2024-11-13T02:32:15.315Z""","null","+","null","","","","","","",""
"","","","","","image-keyboard-response","368","581075","0.0-19.0-0.1-1.13","qcddhjhtue","","qcddhjhtue","""2024-11-13T02:32:15.315Z""","1426","materials/imgs/D83.png","arrowright","","[""materials/imgs/D25.png"",""materials/imgs/D19.png""]","false","random","","",""
"","","","","","html-keyboard-response","369","581588","0.0-19.0-1.1-0.1","qcddhjhtue","","qcddhjhtue","""2024-11-13T02:32:15.315Z""","null","+","null","","","","","","",""
"","","","","","image-keyboard-response","370","582207","0.0-19.0-1.1-1.1","qcddhjhtue","","qcddhjhtue","""2024-11-13T02:32:15.315Z""","616","materials/imgs/D76.png","arrowleft","","[""materials/imgs/D76.png"",""materials/imgs/D78.png""]","","check","materials/imgs/D76.png","0","true"
"","","","","","html-keyboard-response","371","582722","0.0-19.0-2.1-0.2","qcddhjhtue","","qcddhjhtue","""2024-11-13T02:32:15.315Z""","null","+","null","","","","","","",""
"","","","","","image-keyboard-response","372","584929","0.0-19.0-2.1-1.2","qcddhjhtue","","qcddhjhtue","""2024-11-13T02:32:15.315Z""","2205","materials/imgs/D35.png","arrowright","","[""materials/imgs/D83.png"",""materials/imgs/D24.png""]","false","validation","","",""
"","","","","","html-keyboard-response","373","585431","0.0-19.0-2.1-0.3","qcddhjhtue","","qcddhjhtue","""2024-11-13T02:32:15.315Z""","null","+","null","","","","","","",""
"","","","","","image-keyboard-response","374","586635","0.0-19.0-2.1-1.3","qcddhjhtue","","qcddhjhtue","""2024-11-13T02:32:15.315Z""","1202","materials/imgs/D106.png","arrowright","","[""materials/imgs/D57.png"",""materials/imgs/D18.png""]","false","validation","","",""
"","","","","","html-keyboard-response","375","587140","0.0-19.0-0.2-0.14","qcddhjhtue","","qcddhjhtue","""2024-11-13T02:32:15.315Z""","null","+","null","","","","","","",""
"","","","","","image-keyboard-response","376","591273","0.0-19.0-0.2-1.14","qcddhjhtue","","qcddhjhtue","""2024-11-13T02:32:15.315Z""","4130","materials/imgs/D76.png","arrowleft","","[""materials/imgs/D104.png"",""materials/imgs/D14.png""]","false","random","","",""
"","","","","","html-keyboard-response","377","591779","0.0-19.0-0.2-0.15","qcddhjhtue","","qcddhjhtue","""2024-11-13T02:32:15.315Z""","null","+","null","","","","","","",""
"","","","","","image-keyboard-response","378","594464","0.0-19.0-0.2-1.15","qcddhjhtue","","qcddhjhtue","""2024-11-13T02:32:15.315Z""","2681","materials/imgs/D94.png","arrowleft","","[""materials/imgs/D57.png"",""materials/imgs/D55.png""]","false","random","","",""
"","","","","","html-keyboard-response","379","594971","0.0-19.0-0.2-0.16","qcddhjhtue","","qcddhjhtue","""2024-11-13T02:32:15.315Z""","null","+","null","","","","","","",""
"","","","","","image-keyboard-response","380","595910","0.0-19.0-0.2-1.16","qcddhjhtue","","qcddhjhtue","""2024-11-13T02:32:15.315Z""","936","materials/imgs/D75.png","arrowright","","[""materials/imgs/D56.png"",""materials/imgs/D66.png""]","false","random","","",""
"","","","","","html-keyboard-response","381","596420","0.0-19.0-0.2-0.17","qcddhjhtue","","qcddhjhtue","""2024-11-13T02:32:15.315Z""","null","+","null","","","","","","",""
"","","","","","image-keyboard-response","382","601538","0.0-19.0-0.2-1.17","qcddhjhtue","","qcddhjhtue","""2024-11-13T02:32:15.315Z""","5115","materials/imgs/D51.png","arrowleft","","[""materials/imgs/D76.png"",""materials/imgs/D105.png""]","false","random","","",""
"","","","","","html-keyboard-response","383","602044","0.0-19.0-0.2-0.18","qcddhjhtue","","qcddhjhtue","""2024-11-13T02:32:15.315Z""","null","+","null","","","","","","",""
"","","","","","image-keyboard-response","384","606957","0.0-19.0-0.2-1.18","qcddhjhtue","","qcddhjhtue","""2024-11-13T02:32:15.315Z""","4910","materials/imgs/D111.png","arrowright","","[""materials/imgs/D52.png"",""materials/imgs/D36.png""]","false","random","","",""
"","","","","","html-keyboard-response","385","607460","0.0-19.0-0.2-0.19","qcddhjhtue","","qcddhjhtue","""2024-11-13T02:32:15.315Z""","null","+","null","","","","","","",""
"","","","","","image-keyboard-response","386","608764","0.0-19.0-0.2-1.19","qcddhjhtue","","qcddhjhtue","""2024-11-13T02:32:15.315Z""","1302","materials/imgs/D52.png","arrowright","","[""materials/imgs/D66.png"",""materials/imgs/D101.png""]","false","random","","",""
"","","","","","html-keyboard-response","387","609278","0.0-19.0-0.2-0.20","qcddhjhtue","","qcddhjhtue","""2024-11-13T02:32:15.315Z""","null","+","null","","","","","","",""
"","","","","","image-keyboard-response","388","610013","0.0-19.0-0.2-1.20","qcddhjhtue","","qcddhjhtue","""2024-11-13T02:32:15.315Z""","730","materials/imgs/D26.png","arrowleft","","[""materials/imgs/D95.png"",""materials/imgs/D6.png""]","false","random","","",""
"","","","","","html-keyboard-response","389","610526","0.0-19.0-1.2-0.2","qcddhjhtue","","qcddhjhtue","""2024-11-13T02:32:15.315Z""","null","+","null","","","","","","",""
"","","","","","image-keyboard-response","390","611192","0.0-19.0-1.2-1.2","qcddhjhtue","","qcddhjhtue","""2024-11-13T02:32:15.315Z""","663","materials/imgs/D26.png","arrowleft","","[""materials/imgs/D26.png"",""materials/imgs/D46.png""]","","check","materials/imgs/D26.png","0","true"
"","","","","","html-keyboard-response","391","611694","0.0-19.0-2.2-0.4","qcddhjhtue","","qcddhjhtue","""2024-11-13T02:32:15.315Z""","null","+","null","","","","","","",""
"","","","","","image-keyboard-response","392","613256","0.0-19.0-2.2-1.4","qcddhjhtue","","qcddhjhtue","""2024-11-13T02:32:15.315Z""","1559","materials/imgs/D64.png","arrowleft","","[""materials/imgs/D6.png"",""materials/imgs/D81.png""]","false","validation","","",""
"","","","","","html-keyboard-response","393","613770","0.0-19.0-2.2-0.5","qcddhjhtue","","qcddhjhtue","""2024-11-13T02:32:15.315Z""","null","+","null","","","","","","",""
"","","","","","image-keyboard-response","394","616163","0.0-19.0-2.2-1.5","qcddhjhtue","","qcddhjhtue","""2024-11-13T02:32:15.315Z""","2390","materials/imgs/D103.png","arrowleft","","[""materials/imgs/D76.png"",""materials/imgs/D106.png""]","false","validation","","",""
"","","","","","html-keyboard-response","395","616665","0.0-19.0-0.3-0.21","qcddhjhtue","","qcddhjhtue","""2024-11-13T02:32:15.315Z""","null","+","null","","","","","","",""
"","","","","","image-keyboard-response","396","617952","0.0-19.0-0.3-1.21","qcddhjhtue","","qcddhjhtue","""2024-11-13T02:32:15.315Z""","1283","materials/imgs/D19.png","arrowright","","[""materials/imgs/D36.png"",""materials/imgs/D82.png""]","false","random","","",""
"","","","","","html-keyboard-response","397","618457","0.0-19.0-0.3-0.22","qcddhjhtue","","qcddhjhtue","""2024-11-13T02:32:15.315Z""","null","+","null","","","","","","",""
"","","","","","image-keyboard-response","398","619686","0.0-19.0-0.3-1.22","qcddhjhtue","","qcddhjhtue","""2024-11-13T02:32:15.315Z""","1225","materials/imgs/D55.png","arrowleft","","[""materials/imgs/D11.png"",""materials/imgs/D8.png""]","false","random","","",""
"","","","","","html-keyboard-response","399","620201","0.0-19.0-0.3-0.23","qcddhjhtue","","qcddhjhtue","""2024-11-13T02:32:15.315Z""","null","+","null","","","","","","",""
"","","","","","image-keyboard-response","400","622138","0.0-19.0-0.3-1.23","qcddhjhtue","","qcddhjhtue","""2024-11-13T02:32:15.315Z""","1934","materials/imgs/D56.png","arrowleft","","[""materials/imgs/D26.png"",""materials/imgs/D37.png""]","false","random","","",""
"","","","","","html-keyboard-response","401","622647","0.0-19.0-0.3-0.24","qcddhjhtue","","qcddhjhtue","""2024-11-13T02:32:15.315Z""","null","+","null","","","","","","",""
"","","","","","image-keyboard-response","402","625548","0.0-19.0-0.3-1.24","qcddhjhtue","","qcddhjhtue","""2024-11-13T02:32:15.315Z""","2898","materials/imgs/D20.png","arrowright","","[""materials/imgs/D49.png"",""materials/imgs/D21.png""]","false","random","","",""
"","","","","","html-keyboard-response","403","626058","0.0-19.0-0.3-0.25","qcddhjhtue","","qcddhjhtue","""2024-11-13T02:32:15.315Z""","null","+","null","","","","","","",""
"","","","","","image-keyboard-response","404","627644","0.0-19.0-0.3-1.25","qcddhjhtue","","qcddhjhtue","""2024-11-13T02:32:15.315Z""","1580","materials/imgs/D103.png","arrowright","","[""materials/imgs/D37.png"",""materials/imgs/D76.png""]","false","random","","",""
"","","","","","html-keyboard-response","405","628156","0.0-19.0-0.3-0.26","qcddhjhtue","","qcddhjhtue","""2024-11-13T02:32:15.315Z""","null","+","null","","","","","","",""
"","","","","","image-keyboard-response","406","630397","0.0-19.0-0.3-1.26","qcddhjhtue","","qcddhjhtue","""2024-11-13T02:32:15.315Z""","2238","materials/imgs/D76.png","arrowright","","[""materials/imgs/D52.png"",""materials/imgs/D84.png""]","false","random","","",""
"","","","","","html-keyboard-response","407","630914","0.0-19.0-0.3-0.27","qcddhjhtue","","qcddhjhtue","""2024-11-13T02:32:15.315Z""","null","+","null","","","","","","",""
"","","","","","image-keyboard-response","408","631932","0.0-19.0-0.3-1.27","qcddhjhtue","","qcddhjhtue","""2024-11-13T02:32:15.315Z""","1015","materials/imgs/D35.png","arrowleft","","[""materials/imgs/D36.png"",""materials/imgs/D37.png""]","false","random","","",""
"","","","","","html-keyboard-response","409","632440","0.0-19.0-1.3-0.3","qcddhjhtue","","qcddhjhtue","""2024-11-13T02:32:15.315Z""","null","+","null","","","","","","",""
"","","","","","image-keyboard-response","410","633084","0.0-19.0-1.3-1.3","qcddhjhtue","","qcddhjhtue","""2024-11-13T02:32:15.315Z""","642","materials/imgs/D101.png","arrowright","","[""materials/imgs/D106.png"",""materials/imgs/D101.png""]","","check","materials/imgs/D101.png","1","true"
"","","","","","html-keyboard-response","411","633587","0.0-19.0-2.3-0.6","qcddhjhtue","","qcddhjhtue","""2024-11-13T02:32:15.315Z""","null","+","null","","","","","","",""
"","","","","","image-keyboard-response","412","634809","0.0-19.0-2.3-1.6","qcddhjhtue","","qcddhjhtue","""2024-11-13T02:32:15.315Z""","1220","materials/imgs/D9.png","arrowright","","[""materials/imgs/D103.png"",""materials/imgs/D4.png""]","false","validation","","",""
"","","","","","html-keyboard-response","413","635315","0.0-19.0-2.3-0.7","qcddhjhtue","","qcddhjhtue","""2024-11-13T02:32:15.315Z""","null","+","null","","","","","","",""
"","","","","","image-keyboard-response","414","639856","0.0-19.0-2.3-1.7","qcddhjhtue","","qcddhjhtue","""2024-11-13T02:32:15.315Z""","4538","materials/imgs/D16.png","arrowleft","","[""materials/imgs/D52.png"",""materials/imgs/D25.png""]","false","validation","","",""
"","","","","","html-keyboard-response","415","640358","0.0-19.0-0.4-0.28","qcddhjhtue","","qcddhjhtue","""2024-11-13T02:32:15.315Z""","null","+","null","","","","","","",""
"","","","","","image-keyboard-response","416","641302","0.0-19.0-0.4-1.28","qcddhjhtue","","qcddhjhtue","""2024-11-13T02:32:15.315Z""","940","materials/imgs/D8.png","arrowright","","[""materials/imgs/D76.png"",""materials/imgs/D56.png""]","false","random","","",""
"","","","","","html-keyboard-response","417","641808","0.0-19.0-0.4-0.29","qcddhjhtue","","qcddhjhtue","""2024-11-13T02:32:15.315Z""","null","+","null","","","","","","",""
"","","","","","image-keyboard-response","418","643232","0.0-19.0-0.4-1.29","qcddhjhtue","","qcddhjhtue","""2024-11-13T02:32:15.315Z""","1420","materials/imgs/D78.png","arrowright","","[""materials/imgs/D48.png"",""materials/imgs/D52.png""]","false","random","","",""
"","","","","","html-keyboard-response","419","643734","0.0-19.0-0.4-0.30","qcddhjhtue","","qcddhjhtue","""2024-11-13T02:32:15.315Z""","null","+","null","","","","","","",""
"","","","","","image-keyboard-response","420","649815","0.0-19.0-0.4-1.30","qcddhjhtue","","qcddhjhtue","""2024-11-13T02:32:15.315Z""","6078","materials/imgs/D84.png","arrowright","","[""materials/imgs/D101.png"",""materials/imgs/D102.png""]","false","random","","",""
"","","","","","html-keyboard-response","421","650327","0.0-19.0-0.4-0.31","qcddhjhtue","","qcddhjhtue","""2024-11-13T02:32:15.315Z""","null","+","null","","","","","","",""
"","","","","","image-keyboard-response","422","652631","0.0-19.0-0.4-1.31","qcddhjhtue","","qcddhjhtue","""2024-11-13T02:32:15.315Z""","2301","materials/imgs/D80.png","arrowleft","","[""materials/imgs/D94.png"",""materials/imgs/D56.png""]","false","random","","",""
"","","","","","html-keyboard-response","423","653142","0.0-19.0-0.4-0.32","qcddhjhtue","","qcddhjhtue","""2024-11-13T02:32:15.315Z""","null","+","null","","","","","","",""
"","","","","","image-keyboard-response","424","654125","0.0-19.0-0.4-1.32","qcddhjhtue","","qcddhjhtue","""2024-11-13T02:32:15.315Z""","980","materials/imgs/D9.png","arrowright","","[""materials/imgs/D75.png"",""materials/imgs/D55.png""]","false","random","","",""
"","","","","","html-keyboard-response","425","654633","0.0-19.0-0.4-0.33","qcddhjhtue","","qcddhjhtue","""2024-11-13T02:32:15.315Z""","null","+","null","","","","","","",""
"","","","","","image-keyboard-response","426","656614","0.0-19.0-0.4-1.33","qcddhjhtue","","qcddhjhtue","""2024-11-13T02:32:15.315Z""","1978","materials/imgs/D81.png","arrowleft","","[""materials/imgs/D104.png"",""materials/imgs/D36.png""]","false","random","","",""
"","","","","","html-keyboard-response","427","657118","0.0-19.0-0.4-0.34","qcddhjhtue","","qcddhjhtue","""2024-11-13T02:32:15.315Z""","null","+","null","","","","","","",""
"","","","","","image-keyboard-response","428","659131","0.0-19.0-0.4-1.34","qcddhjhtue","","qcddhjhtue","""2024-11-13T02:32:15.315Z""","2010","materials/imgs/D35.png","arrowright","","[""materials/imgs/D48.png"",""materials/imgs/D52.png""]","false","random","","",""
"","","","","","html-keyboard-response","429","659636","0.0-19.0-1.4-0.4","qcddhjhtue","","qcddhjhtue","""2024-11-13T02:32:15.315Z""","null","+","null","","","","","","",""
"","","","","","image-keyboard-response","430","660360","0.0-19.0-1.4-1.4","qcddhjhtue","","qcddhjhtue","""2024-11-13T02:32:15.315Z""","721","materials/imgs/D46.png","arrowleft","","[""materials/imgs/D46.png"",""materials/imgs/D26.png""]","","check","materials/imgs/D46.png","0","true"
"","","","","","html-keyboard-response","431","660867","0.0-19.0-2.4-0.8","qcddhjhtue","","qcddhjhtue","""2024-11-13T02:32:15.315Z""","null","+","null","","","","","","",""
"","","","","","image-keyboard-response","432","661682","0.0-19.0-2.4-1.8","qcddhjhtue","","qcddhjhtue","""2024-11-13T02:32:15.315Z""","813","materials/imgs/D8.png","arrowleft","","[""materials/imgs/D101.png"",""materials/imgs/D52.png""]","false","validation","","",""
"","","","","","html-keyboard-response","433","662193","0.0-19.0-2.4-0.9","qcddhjhtue","","qcddhjhtue","""2024-11-13T02:32:15.315Z""","null","+","null","","","","","","",""
"","","","","","image-keyboard-response","434","664135","0.0-19.0-2.4-1.9","qcddhjhtue","","qcddhjhtue","""2024-11-13T02:32:15.315Z""","1939","materials/imgs/D24.png","arrowleft","","[""materials/imgs/D36.png"",""materials/imgs/D8.png""]","false","validation","","",""
