"success","timeout","failed_images","failed_audio","failed_video","trial_type","trial_index","time_elapsed","internal_node_id","subject_id","sona_id","subjectID","dateInfo","rt","stimulus","response","question_order","choices","speedy","sampleAlg","selected_image","selected_index","correct"
"true","false","[]","[]","[]","preload","0","4011","0.0-0.0","rd0rbno9aa","","rd0rbno9aa","""2024-11-12T18:18:37.680Z""","","","","","","","","","",""
"true","","","","","fullscreen","1","23837","0.0-1.0","rd0rbno9aa","","rd0rbno9aa","""2024-11-12T18:18:37.680Z""","","","","","","","","","",""
"","","","","","html-keyboard-response","2","23850","0.0-2.0","rd0rbno9aa","","rd0rbno9aa","""2024-11-12T18:18:37.680Z""","null","","null","","","","","","",""
"","","","","","html-button-response","3","31533","0.0-3.0","rd0rbno9aa","","rd0rbno9aa","""2024-11-12T18:18:37.680Z""","7681","<div style='text-align:center; font-size:20px; line-height:25px; width: 1200px;'>
                Welcome to our experiment! <br>
                <br>At the bottom of this screen, you will see a button that says 'Begin Experiment.
                <br>Please only click that button when you are ready to complete the 25 minute experiment in one sitting. <br>
                <br> Once you click that button, it will not be possible to restart the experiment. <br><br>","0","","","","","","",""
"true","","","","","fullscreen","4","35565","0.0-4.0","rd0rbno9aa","","rd0rbno9aa","""2024-11-12T18:18:37.680Z""","","","","","","","","","",""
"","","","","","survey-multi-select","5","80666","0.0-5.0","rd0rbno9aa","","rd0rbno9aa","""2024-11-12T18:18:37.680Z""","45097","","{""Consent"":[""<strong>I consent</strong>""]}","[0]","","","","","",""
"","","","","","html-button-response","6","84449","0.0-6.0","rd0rbno9aa","","rd0rbno9aa","""2024-11-12T18:18:37.680Z""","3781","Welcome! <p> This experiment involves two parts: demographic information, followed by the experimental task.<p> It will take about 25 minutes to complete both parts.","0","","","","","","",""
"","","","","","survey-text","7","91497","0.0-7.0","rd0rbno9aa","","rd0rbno9aa","""2024-11-12T18:18:37.680Z""","7044","","{""Age"":""18"",""Gender"":""male"",""Race/ethnicity"":""white""}","","","","","","",""
"","","","","","html-button-response","8","104851","0.0-8.0","rd0rbno9aa","","rd0rbno9aa","""2024-11-12T18:18:37.680Z""","13352","<div style='text-align: center;'>
      <p>In each trial of this task, you will see three texture images: one target item on top, and two choices beneath the target item.</p>
      <p><strong>Please select the item that is most like the target item.</strong></p>
      <p>To select the option on the <strong>LEFT</strong>, press the <strong>LEFT ARROW</strong> key. 
      To select the option on the <strong>RIGHT</strong>, press the <strong>RIGHT ARROW</strong> key.</p>
                  <!-- Target Image at the Top -->
      <div style='margin: 20px;'>
        <img src='materials/imgs/instruction_images/InstructionImg1D78.png' alt='Target Image' style='width:200px; height:auto;' />
        <p><em>Target Image</em></p>
      </div>

      <!-- Two Choice Images Below -->
      <div style='display: flex; justify-content: center;'>
        <div style='margin-right: 50px;'>
          <img src='materials/imgs/instruction_images/InstructionImg2D34.png' alt='Choice Image 1' style='width:150px; height:auto;' />
          <p><em><strong>LEFT ARROW</strong></em></p>
        </div>
        <div style='margin-left: 50px;'>
          <img src='materials/imgs/instruction_images/InstructionImg3D80.png' alt='Choice Image 2' style='width:150px; height:auto;' />
          <p><em><strong>RIGHT ARROW</strong></em></p>
        </div>
      </div>
    </div>

      <p>When you are ready to proceed, please click 'Continue' to begin practice.</p>","0","","","","","","",""
"","","","","","html-keyboard-response","9","107356","0.0-9.0","rd0rbno9aa","","rd0rbno9aa","""2024-11-12T18:18:37.680Z""","null","+","null","","","","","","",""
"","","","","","html-keyboard-response","10","107858","0.0-10.0-0.0-0.0","rd0rbno9aa","","rd0rbno9aa","""2024-11-12T18:18:37.680Z""","null","+","null","","","","","","",""
"","","","","","image-keyboard-response","11","109152","0.0-10.0-0.0-1.0","rd0rbno9aa","","rd0rbno9aa","""2024-11-12T18:18:37.680Z""","1287","materials/imgs/D35.png","arrowleft","","[""materials/imgs/D103.png"",""materials/imgs/D47.png""]","false","random","","",""
"","","","","","html-keyboard-response","12","109653","0.0-10.0-0.0-0.1","rd0rbno9aa","","rd0rbno9aa","""2024-11-12T18:18:37.680Z""","null","+","null","","","","","","",""
"","","","","","image-keyboard-response","13","111803","0.0-10.0-0.0-1.1","rd0rbno9aa","","rd0rbno9aa","""2024-11-12T18:18:37.680Z""","2148","materials/imgs/D75.png","arrowright","","[""materials/imgs/D4.png"",""materials/imgs/D57.png""]","false","random","","",""
"","","","","","html-keyboard-response","14","112304","0.0-10.0-0.0-0.2","rd0rbno9aa","","rd0rbno9aa","""2024-11-12T18:18:37.680Z""","null","+","null","","","","","","",""
"","","","","","image-keyboard-response","15","114114","0.0-10.0-0.0-1.2","rd0rbno9aa","","rd0rbno9aa","""2024-11-12T18:18:37.680Z""","1808","materials/imgs/D26.png","arrowright","","[""materials/imgs/D20.png"",""materials/imgs/D56.png""]","false","random","","",""
"","","","","","html-keyboard-response","16","114616","0.0-10.0-0.0-0.3","rd0rbno9aa","","rd0rbno9aa","""2024-11-12T18:18:37.680Z""","null","+","null","","","","","","",""
"","","","","","image-keyboard-response","17","118838","0.0-10.0-0.0-1.3","rd0rbno9aa","","rd0rbno9aa","""2024-11-12T18:18:37.680Z""","4220","materials/imgs/D47.png","arrowleft","","[""materials/imgs/D11.png"",""materials/imgs/D83.png""]","false","random","","",""
"","","","","","html-keyboard-response","18","119339","0.0-10.0-0.0-0.4","rd0rbno9aa","","rd0rbno9aa","""2024-11-12T18:18:37.680Z""","null","+","null","","","","","","",""
"","","","","","image-keyboard-response","19","120663","0.0-10.0-0.0-1.4","rd0rbno9aa","","rd0rbno9aa","""2024-11-12T18:18:37.680Z""","1322","materials/imgs/D95.png","arrowleft","","[""materials/imgs/D64.png"",""materials/imgs/D92.png""]","false","random","","",""
"","","","","","html-keyboard-response","20","121165","0.0-10.0-0.0-0.5","rd0rbno9aa","","rd0rbno9aa","""2024-11-12T18:18:37.680Z""","null","+","null","","","","","","",""
"","","","","","image-keyboard-response","21","123565","0.0-10.0-0.0-1.5","rd0rbno9aa","","rd0rbno9aa","""2024-11-12T18:18:37.680Z""","2398","materials/imgs/D82.png","arrowleft","","[""materials/imgs/D56.png"",""materials/imgs/D49.png""]","false","random","","",""
"","","","","","html-keyboard-response","22","124066","0.0-10.0-0.0-0.6","rd0rbno9aa","","rd0rbno9aa","""2024-11-12T18:18:37.680Z""","null","+","null","","","","","","",""
"","","","","","image-keyboard-response","23","125534","0.0-10.0-0.0-1.6","rd0rbno9aa","","rd0rbno9aa","""2024-11-12T18:18:37.680Z""","1466","materials/imgs/D78.png","arrowright","","[""materials/imgs/D92.png"",""materials/imgs/D52.png""]","false","random","","",""
"","","","","","html-keyboard-response","24","126036","0.0-10.0-0.0-0.7","rd0rbno9aa","","rd0rbno9aa","""2024-11-12T18:18:37.680Z""","null","+","null","","","","","","",""
"","","","","","image-keyboard-response","25","126916","0.0-10.0-0.0-1.7","rd0rbno9aa","","rd0rbno9aa","""2024-11-12T18:18:37.680Z""","877","materials/imgs/D79.png","arrowleft","","[""materials/imgs/D68.png"",""materials/imgs/D8.png""]","false","random","","",""
"","","","","","html-keyboard-response","26","127417","0.0-10.0-0.0-0.8","rd0rbno9aa","","rd0rbno9aa","""2024-11-12T18:18:37.680Z""","null","+","null","","","","","","",""
"","","","","","image-keyboard-response","27","128702","0.0-10.0-0.0-1.8","rd0rbno9aa","","rd0rbno9aa","""2024-11-12T18:18:37.680Z""","1283","materials/imgs/D65.png","arrowright","","[""materials/imgs/D32.png"",""materials/imgs/D18.png""]","false","random","","",""
"","","","","","html-keyboard-response","28","129204","0.0-10.0-0.0-0.9","rd0rbno9aa","","rd0rbno9aa","""2024-11-12T18:18:37.680Z""","null","+","null","","","","","","",""
"","","","","","image-keyboard-response","29","130546","0.0-10.0-0.0-1.9","rd0rbno9aa","","rd0rbno9aa","""2024-11-12T18:18:37.680Z""","1340","materials/imgs/D20.png","arrowright","","[""materials/imgs/D65.png"",""materials/imgs/D103.png""]","false","random","","",""
"","","","","","html-button-response","30","139649","0.0-11.0","rd0rbno9aa","","rd0rbno9aa","""2024-11-12T18:18:37.680Z""","9101","<p>Great job!</p>
      <p>You are now ready to begin the experiment.</p>
      <p>There will be around 200 trials. You will have opportunities to take breaks at three stages of the trials.</p>
      <p>When you are ready to begin please click 'Continue'.</p>","0","","","","","","",""
"","","","","","html-keyboard-response","31","142152","0.0-12.0","rd0rbno9aa","","rd0rbno9aa","""2024-11-12T18:18:37.680Z""","null","+","null","","","","","","",""
"","","","","","html-keyboard-response","32","142654","0.0-13.0-0.0-0.0","rd0rbno9aa","","rd0rbno9aa","""2024-11-12T18:18:37.680Z""","null","+","null","","","","","","",""
"","","","","","image-keyboard-response","33","145250","0.0-13.0-0.0-1.0","rd0rbno9aa","","rd0rbno9aa","""2024-11-12T18:18:37.680Z""","2587","materials/imgs/D56.png","arrowleft","","[""materials/imgs/D16.png"",""materials/imgs/D78.png""]","false","random","","",""
"","","","","","html-keyboard-response","34","145752","0.0-13.0-0.0-0.1","rd0rbno9aa","","rd0rbno9aa","""2024-11-12T18:18:37.680Z""","null","+","null","","","","","","",""
"","","","","","image-keyboard-response","35","146748","0.0-13.0-0.0-1.1","rd0rbno9aa","","rd0rbno9aa","""2024-11-12T18:18:37.680Z""","994","materials/imgs/D55.png","arrowleft","","[""materials/imgs/D83.png"",""materials/imgs/D25.png""]","false","random","","",""
"","","","","","html-keyboard-response","36","147249","0.0-13.0-0.0-0.2","rd0rbno9aa","","rd0rbno9aa","""2024-11-12T18:18:37.680Z""","null","+","null","","","","","","",""
"","","","","","image-keyboard-response","37","148817","0.0-13.0-0.0-1.2","rd0rbno9aa","","rd0rbno9aa","""2024-11-12T18:18:37.680Z""","1566","materials/imgs/D64.png","arrowleft","","[""materials/imgs/D82.png"",""materials/imgs/D102.png""]","false","random","","",""
"","","","","","html-keyboard-response","38","149319","0.0-13.0-0.0-0.3","rd0rbno9aa","","rd0rbno9aa","""2024-11-12T18:18:37.680Z""","null","+","null","","","","","","",""
"","","","","","image-keyboard-response","39","150272","0.0-13.0-0.0-1.3","rd0rbno9aa","","rd0rbno9aa","""2024-11-12T18:18:37.680Z""","951","materials/imgs/D34.png","arrowleft","","[""materials/imgs/D56.png"",""materials/imgs/D87.png""]","false","random","","",""
"","","","","","html-keyboard-response","40","150772","0.0-13.0-0.0-0.4","rd0rbno9aa","","rd0rbno9aa","""2024-11-12T18:18:37.680Z""","null","+","null","","","","","","",""
"","","","","","image-keyboard-response","41","152285","0.0-13.0-0.0-1.4","rd0rbno9aa","","rd0rbno9aa","""2024-11-12T18:18:37.680Z""","1510","materials/imgs/D103.png","arrowleft","","[""materials/imgs/D80.png"",""materials/imgs/D79.png""]","false","random","","",""
"","","","","","html-keyboard-response","42","152786","0.0-13.0-0.0-0.5","rd0rbno9aa","","rd0rbno9aa","""2024-11-12T18:18:37.680Z""","null","+","null","","","","","","",""
"","","","","","image-keyboard-response","43","153860","0.0-13.0-0.0-1.5","rd0rbno9aa","","rd0rbno9aa","""2024-11-12T18:18:37.680Z""","1072","materials/imgs/D3.png","arrowleft","","[""materials/imgs/D103.png"",""materials/imgs/D37.png""]","false","random","","",""
"","","","","","html-keyboard-response","44","154361","0.0-13.0-0.0-0.6","rd0rbno9aa","","rd0rbno9aa","""2024-11-12T18:18:37.680Z""","null","+","null","","","","","","",""
"","","","","","image-keyboard-response","45","155022","0.0-13.0-0.0-1.6","rd0rbno9aa","","rd0rbno9aa","""2024-11-12T18:18:37.680Z""","660","materials/imgs/D87.png","arrowright","","[""materials/imgs/D49.png"",""materials/imgs/D84.png""]","false","random","","",""
"","","","","","html-keyboard-response","46","155524","0.0-13.0-1.0-0.0","rd0rbno9aa","","rd0rbno9aa","""2024-11-12T18:18:37.680Z""","null","+","null","","","","","","",""
"","","","","","image-keyboard-response","47","156121","0.0-13.0-1.0-1.0","rd0rbno9aa","","rd0rbno9aa","""2024-11-12T18:18:37.680Z""","595","materials/imgs/D53.png","arrowright","","[""materials/imgs/D64.png"",""materials/imgs/D53.png""]","","check","materials/imgs/D53.png","1","true"
"","","","","","html-keyboard-response","48","156623","0.0-13.0-2.0-0.0","rd0rbno9aa","","rd0rbno9aa","""2024-11-12T18:18:37.680Z""","null","+","null","","","","","","",""
"","","","","","image-keyboard-response","49","158894","0.0-13.0-2.0-1.0","rd0rbno9aa","","rd0rbno9aa","""2024-11-12T18:18:37.680Z""","2270","materials/imgs/D4.png","arrowleft","","[""materials/imgs/D52.png"",""materials/imgs/D83.png""]","false","validation","","",""
"","","","","","html-keyboard-response","50","159396","0.0-13.0-2.0-0.1","rd0rbno9aa","","rd0rbno9aa","""2024-11-12T18:18:37.680Z""","null","+","null","","","","","","",""
"","","","","","image-keyboard-response","51","160559","0.0-13.0-2.0-1.1","rd0rbno9aa","","rd0rbno9aa","""2024-11-12T18:18:37.680Z""","1162","materials/imgs/D51.png","arrowright","","[""materials/imgs/D92.png"",""materials/imgs/D20.png""]","false","validation","","",""
"","","","","","html-keyboard-response","52","161061","0.0-13.0-0.1-0.7","rd0rbno9aa","","rd0rbno9aa","""2024-11-12T18:18:37.680Z""","null","+","null","","","","","","",""
"","","","","","image-keyboard-response","53","162929","0.0-13.0-0.1-1.7","rd0rbno9aa","","rd0rbno9aa","""2024-11-12T18:18:37.680Z""","1866","materials/imgs/D32.png","arrowright","","[""materials/imgs/D79.png"",""materials/imgs/D77.png""]","false","random","","",""
"","","","","","html-keyboard-response","54","163430","0.0-13.0-0.1-0.8","rd0rbno9aa","","rd0rbno9aa","""2024-11-12T18:18:37.680Z""","null","+","null","","","","","","",""
"","","","","","image-keyboard-response","55","164918","0.0-13.0-0.1-1.8","rd0rbno9aa","","rd0rbno9aa","""2024-11-12T18:18:37.680Z""","1486","materials/imgs/D79.png","arrowleft","","[""materials/imgs/D1.png"",""materials/imgs/D29.png""]","false","random","","",""
"","","","","","html-keyboard-response","56","165419","0.0-13.0-0.1-0.9","rd0rbno9aa","","rd0rbno9aa","""2024-11-12T18:18:37.680Z""","null","+","null","","","","","","",""
"","","","","","image-keyboard-response","57","166644","0.0-13.0-0.1-1.9","rd0rbno9aa","","rd0rbno9aa","""2024-11-12T18:18:37.680Z""","1223","materials/imgs/D11.png","arrowleft","","[""materials/imgs/D78.png"",""materials/imgs/D77.png""]","false","random","","",""
"","","","","","html-keyboard-response","58","167145","0.0-13.0-0.1-0.10","rd0rbno9aa","","rd0rbno9aa","""2024-11-12T18:18:37.680Z""","null","+","null","","","","","","",""
"","","","","","image-keyboard-response","59","167788","0.0-13.0-0.1-1.10","rd0rbno9aa","","rd0rbno9aa","""2024-11-12T18:18:37.680Z""","642","materials/imgs/D83.png","arrowright","","[""materials/imgs/D37.png"",""materials/imgs/D82.png""]","false","random","","",""
"","","","","","html-keyboard-response","60","168290","0.0-13.0-0.1-0.11","rd0rbno9aa","","rd0rbno9aa","""2024-11-12T18:18:37.680Z""","null","+","null","","","","","","",""
"","","","","","image-keyboard-response","61","171052","0.0-13.0-0.1-1.11","rd0rbno9aa","","rd0rbno9aa","""2024-11-12T18:18:37.680Z""","2760","materials/imgs/D37.png","arrowleft","","[""materials/imgs/D29.png"",""materials/imgs/D20.png""]","false","random","","",""
"","","","","","html-keyboard-response","62","171553","0.0-13.0-0.1-0.12","rd0rbno9aa","","rd0rbno9aa","""2024-11-12T18:18:37.680Z""","null","+","null","","","","","","",""
"","","","","","image-keyboard-response","63","173022","0.0-13.0-0.1-1.12","rd0rbno9aa","","rd0rbno9aa","""2024-11-12T18:18:37.680Z""","1467","materials/imgs/D101.png","arrowleft","","[""materials/imgs/D111.png"",""materials/imgs/D79.png""]","false","random","","",""
"","","","","","html-keyboard-response","64","173523","0.0-13.0-0.1-0.13","rd0rbno9aa","","rd0rbno9aa","""2024-11-12T18:18:37.680Z""","null","+","null","","","","","","",""
"","","","","","image-keyboard-response","65","174541","0.0-13.0-0.1-1.13","rd0rbno9aa","","rd0rbno9aa","""2024-11-12T18:18:37.680Z""","1016","materials/imgs/D6.png","arrowright","","[""materials/imgs/D25.png"",""materials/imgs/D36.png""]","false","random","","",""
"","","","","","html-keyboard-response","66","175043","0.0-13.0-1.1-0.1","rd0rbno9aa","","rd0rbno9aa","""2024-11-12T18:18:37.680Z""","null","+","null","","","","","","",""
"","","","","","image-keyboard-response","67","175658","0.0-13.0-1.1-1.1","rd0rbno9aa","","rd0rbno9aa","""2024-11-12T18:18:37.680Z""","614","materials/imgs/D26.png","arrowleft","","[""materials/imgs/D26.png"",""materials/imgs/D46.png""]","","check","materials/imgs/D26.png","0","true"
"","","","","","html-keyboard-response","68","176159","0.0-13.0-2.1-0.2","rd0rbno9aa","","rd0rbno9aa","""2024-11-12T18:18:37.680Z""","null","+","null","","","","","","",""
"","","","","","image-keyboard-response","69","178269","0.0-13.0-2.1-1.2","rd0rbno9aa","","rd0rbno9aa","""2024-11-12T18:18:37.680Z""","2108","materials/imgs/D20.png","arrowright","","[""materials/imgs/D84.png"",""materials/imgs/D85.png""]","false","validation","","",""
"","","","","","html-keyboard-response","70","178770","0.0-13.0-2.1-0.3","rd0rbno9aa","","rd0rbno9aa","""2024-11-12T18:18:37.680Z""","null","+","null","","","","","","",""
"","","","","","image-keyboard-response","71","180369","0.0-13.0-2.1-1.3","rd0rbno9aa","","rd0rbno9aa","""2024-11-12T18:18:37.680Z""","1597","materials/imgs/D64.png","arrowleft","","[""materials/imgs/D6.png"",""materials/imgs/D81.png""]","false","validation","","",""
"","","","","","html-keyboard-response","72","180870","0.0-13.0-0.2-0.14","rd0rbno9aa","","rd0rbno9aa","""2024-11-12T18:18:37.680Z""","null","+","null","","","","","","",""
"","","","","","image-keyboard-response","73","182373","0.0-13.0-0.2-1.14","rd0rbno9aa","","rd0rbno9aa","""2024-11-12T18:18:37.680Z""","1501","materials/imgs/D9.png","arrowright","","[""materials/imgs/D18.png"",""materials/imgs/D17.png""]","false","random","","",""
"","","","","","html-keyboard-response","74","182875","0.0-13.0-0.2-0.15","rd0rbno9aa","","rd0rbno9aa","""2024-11-12T18:18:37.680Z""","null","+","null","","","","","","",""
"","","","","","image-keyboard-response","75","183759","0.0-13.0-0.2-1.15","rd0rbno9aa","","rd0rbno9aa","""2024-11-12T18:18:37.680Z""","882","materials/imgs/D79.png","arrowright","","[""materials/imgs/D101.png"",""materials/imgs/D16.png""]","false","random","","",""
"","","","","","html-keyboard-response","76","184260","0.0-13.0-0.2-0.16","rd0rbno9aa","","rd0rbno9aa","""2024-11-12T18:18:37.680Z""","null","+","null","","","","","","",""
"","","","","","image-keyboard-response","77","184965","0.0-13.0-0.2-1.16","rd0rbno9aa","","rd0rbno9aa","""2024-11-12T18:18:37.680Z""","703","materials/imgs/D9.png","arrowleft","","[""materials/imgs/D32.png"",""materials/imgs/D105.png""]","false","random","","",""
"","","","","","html-keyboard-response","78","185467","0.0-13.0-0.2-0.17","rd0rbno9aa","","rd0rbno9aa","""2024-11-12T18:18:37.680Z""","null","+","null","","","","","","",""
"","","","","","image-keyboard-response","79","188069","0.0-13.0-0.2-1.17","rd0rbno9aa","","rd0rbno9aa","""2024-11-12T18:18:37.680Z""","2601","materials/imgs/D9.png","arrowright","","[""materials/imgs/D35.png"",""materials/imgs/D66.png""]","false","random","","",""
"","","","","","html-keyboard-response","80","188571","0.0-13.0-0.2-0.18","rd0rbno9aa","","rd0rbno9aa","""2024-11-12T18:18:37.680Z""","null","+","null","","","","","","",""
"","","","","","image-keyboard-response","81","190150","0.0-13.0-0.2-1.18","rd0rbno9aa","","rd0rbno9aa","""2024-11-12T18:18:37.680Z""","1578","materials/imgs/D19.png","arrowleft","","[""materials/imgs/D80.png"",""materials/imgs/D21.png""]","false","random","","",""
"","","","","","html-keyboard-response","82","190651","0.0-13.0-0.2-0.19","rd0rbno9aa","","rd0rbno9aa","""2024-11-12T18:18:37.680Z""","null","+","null","","","","","","",""
"","","","","","image-keyboard-response","83","193586","0.0-13.0-0.2-1.19","rd0rbno9aa","","rd0rbno9aa","""2024-11-12T18:18:37.680Z""","2933","materials/imgs/D49.png","arrowleft","","[""materials/imgs/D95.png"",""materials/imgs/D26.png""]","false","random","","",""
"","","","","","html-keyboard-response","84","194087","0.0-13.0-0.2-0.20","rd0rbno9aa","","rd0rbno9aa","""2024-11-12T18:18:37.680Z""","null","+","null","","","","","","",""
"","","","","","image-keyboard-response","85","196577","0.0-13.0-0.2-1.20","rd0rbno9aa","","rd0rbno9aa","""2024-11-12T18:18:37.680Z""","2488","materials/imgs/D79.png","arrowleft","","[""materials/imgs/D82.png"",""materials/imgs/D3.png""]","false","random","","",""
"","","","","","html-keyboard-response","86","197078","0.0-13.0-1.2-0.2","rd0rbno9aa","","rd0rbno9aa","""2024-11-12T18:18:37.680Z""","null","+","null","","","","","","",""
"","","","","","image-keyboard-response","87","197761","0.0-13.0-1.2-1.2","rd0rbno9aa","","rd0rbno9aa","""2024-11-12T18:18:37.680Z""","681","materials/imgs/D76.png","arrowleft","","[""materials/imgs/D76.png"",""materials/imgs/D78.png""]","","check","materials/imgs/D76.png","0","true"
"","","","","","html-keyboard-response","88","198262","0.0-13.0-2.2-0.4","rd0rbno9aa","","rd0rbno9aa","""2024-11-12T18:18:37.680Z""","null","+","null","","","","","","",""
"","","","","","image-keyboard-response","89","200516","0.0-13.0-2.2-1.4","rd0rbno9aa","","rd0rbno9aa","""2024-11-12T18:18:37.680Z""","2253","materials/imgs/D16.png","arrowleft","","[""materials/imgs/D52.png"",""materials/imgs/D25.png""]","false","validation","","",""
"","","","","","html-keyboard-response","90","201017","0.0-13.0-2.2-0.5","rd0rbno9aa","","rd0rbno9aa","""2024-11-12T18:18:37.680Z""","null","+","null","","","","","","",""
"","","","","","image-keyboard-response","91","201750","0.0-13.0-2.2-1.5","rd0rbno9aa","","rd0rbno9aa","""2024-11-12T18:18:37.680Z""","731","materials/imgs/D57.png","arrowright","","[""materials/imgs/D111.png"",""materials/imgs/D4.png""]","false","validation","","",""
"","","","","","html-keyboard-response","92","202251","0.0-13.0-0.3-0.21","rd0rbno9aa","","rd0rbno9aa","""2024-11-12T18:18:37.680Z""","null","+","null","","","","","","",""
"","","","","","image-keyboard-response","93","204119","0.0-13.0-0.3-1.21","rd0rbno9aa","","rd0rbno9aa","""2024-11-12T18:18:37.680Z""","1866","materials/imgs/D101.png","arrowright","","[""materials/imgs/D103.png"",""materials/imgs/D22.png""]","false","random","","",""
"","","","","","html-keyboard-response","94","204620","0.0-13.0-0.3-0.22","rd0rbno9aa","","rd0rbno9aa","""2024-11-12T18:18:37.680Z""","null","+","null","","","","","","",""
"","","","","","image-keyboard-response","95","206180","0.0-13.0-0.3-1.22","rd0rbno9aa","","rd0rbno9aa","""2024-11-12T18:18:37.680Z""","1558","materials/imgs/D35.png","arrowright","","[""materials/imgs/D48.png"",""materials/imgs/D66.png""]","false","random","","",""
"","","","","","html-keyboard-response","96","206681","0.0-13.0-0.3-0.23","rd0rbno9aa","","rd0rbno9aa","""2024-11-12T18:18:37.680Z""","null","+","null","","","","","","",""
"","","","","","image-keyboard-response","97","208097","0.0-13.0-0.3-1.23","rd0rbno9aa","","rd0rbno9aa","""2024-11-12T18:18:37.680Z""","1414","materials/imgs/D32.png","arrowleft","","[""materials/imgs/D79.png"",""materials/imgs/D64.png""]","false","random","","",""
"","","","","","html-keyboard-response","98","208598","0.0-13.0-0.3-0.24","rd0rbno9aa","","rd0rbno9aa","""2024-11-12T18:18:37.680Z""","null","+","null","","","","","","",""
"","","","","","image-keyboard-response","99","210240","0.0-13.0-0.3-1.24","rd0rbno9aa","","rd0rbno9aa","""2024-11-12T18:18:37.680Z""","1640","materials/imgs/D4.png","arrowleft","","[""materials/imgs/D82.png"",""materials/imgs/D78.png""]","false","random","","",""
"","","","","","html-keyboard-response","100","210741","0.0-13.0-0.3-0.25","rd0rbno9aa","","rd0rbno9aa","""2024-11-12T18:18:37.680Z""","null","+","null","","","","","","",""
"","","","","","image-keyboard-response","101","213471","0.0-13.0-0.3-1.25","rd0rbno9aa","","rd0rbno9aa","""2024-11-12T18:18:37.680Z""","2727","materials/imgs/D26.png","arrowright","","[""materials/imgs/D17.png"",""materials/imgs/D74.png""]","false","random","","",""
"","","","","","html-keyboard-response","102","213972","0.0-13.0-0.3-0.26","rd0rbno9aa","","rd0rbno9aa","""2024-11-12T18:18:37.680Z""","null","+","null","","","","","","",""
"","","","","","image-keyboard-response","103","215666","0.0-13.0-0.3-1.26","rd0rbno9aa","","rd0rbno9aa","""2024-11-12T18:18:37.680Z""","1692","materials/imgs/D81.png","arrowleft","","[""materials/imgs/D77.png"",""materials/imgs/D92.png""]","false","random","","",""
"","","","","","html-keyboard-response","104","216166","0.0-13.0-0.3-0.27","rd0rbno9aa","","rd0rbno9aa","""2024-11-12T18:18:37.680Z""","null","+","null","","","","","","",""
"","","","","","image-keyboard-response","105","217141","0.0-13.0-0.3-1.27","rd0rbno9aa","","rd0rbno9aa","""2024-11-12T18:18:37.680Z""","973","materials/imgs/D103.png","arrowright","","[""materials/imgs/D47.png"",""materials/imgs/D34.png""]","false","random","","",""
"","","","","","html-keyboard-response","106","217643","0.0-13.0-1.3-0.3","rd0rbno9aa","","rd0rbno9aa","""2024-11-12T18:18:37.680Z""","null","+","null","","","","","","",""
"","","","","","image-keyboard-response","107","218235","0.0-13.0-1.3-1.3","rd0rbno9aa","","rd0rbno9aa","""2024-11-12T18:18:37.680Z""","590","materials/imgs/D106.png","arrowleft","","[""materials/imgs/D106.png"",""materials/imgs/D101.png""]","","check","materials/imgs/D106.png","0","true"
"","","","","","html-keyboard-response","108","218736","0.0-13.0-2.3-0.6","rd0rbno9aa","","rd0rbno9aa","""2024-11-12T18:18:37.680Z""","null","+","null","","","","","","",""
"","","","","","image-keyboard-response","109","220482","0.0-13.0-2.3-1.6","rd0rbno9aa","","rd0rbno9aa","""2024-11-12T18:18:37.680Z""","1745","materials/imgs/D106.png","arrowleft","","[""materials/imgs/D57.png"",""materials/imgs/D18.png""]","false","validation","","",""
"","","","","","html-keyboard-response","110","220984","0.0-13.0-2.3-0.7","rd0rbno9aa","","rd0rbno9aa","""2024-11-12T18:18:37.680Z""","null","+","null","","","","","","",""
"","","","","","image-keyboard-response","111","221548","0.0-13.0-2.3-1.7","rd0rbno9aa","","rd0rbno9aa","""2024-11-12T18:18:37.680Z""","563","materials/imgs/D57.png","arrowright","","[""materials/imgs/D111.png"",""materials/imgs/D4.png""]","false","validation","","",""
"","","","","","html-keyboard-response","112","222049","0.0-13.0-0.4-0.28","rd0rbno9aa","","rd0rbno9aa","""2024-11-12T18:18:37.680Z""","null","+","null","","","","","","",""
"","","","","","image-keyboard-response","113","223078","0.0-13.0-0.4-1.28","rd0rbno9aa","","rd0rbno9aa","""2024-11-12T18:18:37.680Z""","1028","materials/imgs/D83.png","arrowright","","[""materials/imgs/D78.png"",""materials/imgs/D51.png""]","false","random","","",""
"","","","","","html-keyboard-response","114","223579","0.0-13.0-0.4-0.29","rd0rbno9aa","","rd0rbno9aa","""2024-11-12T18:18:37.680Z""","null","+","null","","","","","","",""
"","","","","","image-keyboard-response","115","224627","0.0-13.0-0.4-1.29","rd0rbno9aa","","rd0rbno9aa","""2024-11-12T18:18:37.680Z""","1046","materials/imgs/D6.png","arrowright","","[""materials/imgs/D95.png"",""materials/imgs/D103.png""]","false","random","","",""
"","","","","","html-keyboard-response","116","225128","0.0-13.0-0.4-0.30","rd0rbno9aa","","rd0rbno9aa","""2024-11-12T18:18:37.680Z""","null","+","null","","","","","","",""
"","","","","","image-keyboard-response","117","226568","0.0-13.0-0.4-1.30","rd0rbno9aa","","rd0rbno9aa","""2024-11-12T18:18:37.680Z""","1438","materials/imgs/D82.png","arrowleft","","[""materials/imgs/D26.png"",""materials/imgs/D48.png""]","false","random","","",""
"","","","","","html-keyboard-response","118","227069","0.0-13.0-0.4-0.31","rd0rbno9aa","","rd0rbno9aa","""2024-11-12T18:18:37.680Z""","null","+","null","","","","","","",""
"","","","","","image-keyboard-response","119","228619","0.0-13.0-0.4-1.31","rd0rbno9aa","","rd0rbno9aa","""2024-11-12T18:18:37.680Z""","1548","materials/imgs/D26.png","arrowright","","[""materials/imgs/D75.png"",""materials/imgs/D6.png""]","false","random","","",""
"","","","","","html-keyboard-response","120","229121","0.0-13.0-0.4-0.32","rd0rbno9aa","","rd0rbno9aa","""2024-11-12T18:18:37.680Z""","null","+","null","","","","","","",""
"","","","","","image-keyboard-response","121","230599","0.0-13.0-0.4-1.32","rd0rbno9aa","","rd0rbno9aa","""2024-11-12T18:18:37.680Z""","1477","materials/imgs/D16.png","arrowright","","[""materials/imgs/D85.png"",""materials/imgs/D79.png""]","false","random","","",""
"","","","","","html-keyboard-response","122","231100","0.0-13.0-0.4-0.33","rd0rbno9aa","","rd0rbno9aa","""2024-11-12T18:18:37.680Z""","null","+","null","","","","","","",""
"","","","","","image-keyboard-response","123","231997","0.0-13.0-0.4-1.33","rd0rbno9aa","","rd0rbno9aa","""2024-11-12T18:18:37.680Z""","895","materials/imgs/D106.png","arrowleft","","[""materials/imgs/D76.png"",""materials/imgs/D92.png""]","false","random","","",""
"","","","","","html-keyboard-response","124","232499","0.0-13.0-0.4-0.34","rd0rbno9aa","","rd0rbno9aa","""2024-11-12T18:18:37.680Z""","null","+","null","","","","","","",""
"","","","","","image-keyboard-response","125","233615","0.0-13.0-0.4-1.34","rd0rbno9aa","","rd0rbno9aa","""2024-11-12T18:18:37.680Z""","1114","materials/imgs/D25.png","arrowleft","","[""materials/imgs/D53.png"",""materials/imgs/D80.png""]","false","random","","",""
"","","","","","html-keyboard-response","126","234116","0.0-13.0-1.4-0.4","rd0rbno9aa","","rd0rbno9aa","""2024-11-12T18:18:37.680Z""","null","+","null","","","","","","",""
"","","","","","image-keyboard-response","127","234797","0.0-13.0-1.4-1.4","rd0rbno9aa","","rd0rbno9aa","""2024-11-12T18:18:37.680Z""","679","materials/imgs/D64.png","arrowleft","","[""materials/imgs/D64.png"",""materials/imgs/D53.png""]","","check","materials/imgs/D64.png","0","true"
"","","","","","html-keyboard-response","128","235298","0.0-13.0-2.4-0.8","rd0rbno9aa","","rd0rbno9aa","""2024-11-12T18:18:37.680Z""","null","+","null","","","","","","",""
"","","","","","image-keyboard-response","129","236935","0.0-13.0-2.4-1.8","rd0rbno9aa","","rd0rbno9aa","""2024-11-12T18:18:37.680Z""","1635","materials/imgs/D85.png","arrowleft","","[""materials/imgs/D6.png"",""materials/imgs/D111.png""]","false","validation","","",""
"","","","","","html-keyboard-response","130","237436","0.0-13.0-2.4-0.9","rd0rbno9aa","","rd0rbno9aa","""2024-11-12T18:18:37.680Z""","null","+","null","","","","","","",""
"","","","","","image-keyboard-response","131","237454","0.0-13.0-2.4-1.9","rd0rbno9aa","","rd0rbno9aa","""2024-11-12T18:18:37.680Z""","17","materials/imgs/D66.png","arrowright","","[""materials/imgs/D85.png"",""materials/imgs/D25.png""]","true","validation","","",""
"","","","","","html-keyboard-response","132","241207","0.0-13.0-2.4-2.9-0.9","rd0rbno9aa","","rd0rbno9aa","""2024-11-12T18:18:37.680Z""","3752","<p><strong>You're going too fast.</strong><p>Please slow down and assess each triplet.<p>Press 'y' to continue.</p></p>","y","","","","","","",""
"","","","","","html-button-response","133","242857","0.0-14.0","rd0rbno9aa","","rd0rbno9aa","""2024-11-12T18:18:37.680Z""","1649","You have completed 25% of the trials. Please click 'Continue' when you are ready proceed.","0","","","","","","",""
"","","","","","html-keyboard-response","134","243358","0.0-15.0-0.0-0.0","rd0rbno9aa","","rd0rbno9aa","""2024-11-12T18:18:37.680Z""","null","+","null","","","","","","",""
"","","","","","image-keyboard-response","135","244847","0.0-15.0-0.0-1.0","rd0rbno9aa","","rd0rbno9aa","""2024-11-12T18:18:37.680Z""","1486","materials/imgs/D83.png","arrowleft","","[""materials/imgs/D17.png"",""materials/imgs/D8.png""]","false","random","","",""
"","","","","","html-keyboard-response","136","245348","0.0-15.0-0.0-0.1","rd0rbno9aa","","rd0rbno9aa","""2024-11-12T18:18:37.680Z""","null","+","null","","","","","","",""
"","","","","","image-keyboard-response","137","246582","0.0-15.0-0.0-1.1","rd0rbno9aa","","rd0rbno9aa","""2024-11-12T18:18:37.680Z""","1232","materials/imgs/D1.png","arrowleft","","[""materials/imgs/D64.png"",""materials/imgs/D103.png""]","false","random","","",""
"","","","","","html-keyboard-response","138","247083","0.0-15.0-0.0-0.2","rd0rbno9aa","","rd0rbno9aa","""2024-11-12T18:18:37.680Z""","null","+","null","","","","","","",""
"","","","","","image-keyboard-response","139","248217","0.0-15.0-0.0-1.2","rd0rbno9aa","","rd0rbno9aa","""2024-11-12T18:18:37.680Z""","1133","materials/imgs/D95.png","arrowleft","","[""materials/imgs/D34.png"",""materials/imgs/D16.png""]","false","random","","",""
"","","","","","html-keyboard-response","140","248718","0.0-15.0-0.0-0.3","rd0rbno9aa","","rd0rbno9aa","""2024-11-12T18:18:37.680Z""","null","+","null","","","","","","",""
"","","","","","image-keyboard-response","141","249624","0.0-15.0-0.0-1.3","rd0rbno9aa","","rd0rbno9aa","""2024-11-12T18:18:37.680Z""","903","materials/imgs/D21.png","arrowleft","","[""materials/imgs/D77.png"",""materials/imgs/D14.png""]","false","random","","",""
"","","","","","html-keyboard-response","142","250125","0.0-15.0-0.0-0.4","rd0rbno9aa","","rd0rbno9aa","""2024-11-12T18:18:37.680Z""","null","+","null","","","","","","",""
"","","","","","image-keyboard-response","143","251139","0.0-15.0-0.0-1.4","rd0rbno9aa","","rd0rbno9aa","""2024-11-12T18:18:37.680Z""","1012","materials/imgs/D96.png","arrowleft","","[""materials/imgs/D16.png"",""materials/imgs/D111.png""]","false","random","","",""
"","","","","","html-keyboard-response","144","251640","0.0-15.0-0.0-0.5","rd0rbno9aa","","rd0rbno9aa","""2024-11-12T18:18:37.680Z""","null","+","null","","","","","","",""
"","","","","","image-keyboard-response","145","252519","0.0-15.0-0.0-1.5","rd0rbno9aa","","rd0rbno9aa","""2024-11-12T18:18:37.680Z""","877","materials/imgs/D87.png","arrowright","","[""materials/imgs/D96.png"",""materials/imgs/D76.png""]","false","random","","",""
"","","","","","html-keyboard-response","146","253021","0.0-15.0-0.0-0.6","rd0rbno9aa","","rd0rbno9aa","""2024-11-12T18:18:37.680Z""","null","+","null","","","","","","",""
"","","","","","image-keyboard-response","147","254581","0.0-15.0-0.0-1.6","rd0rbno9aa","","rd0rbno9aa","""2024-11-12T18:18:37.680Z""","1558","materials/imgs/D80.png","arrowleft","","[""materials/imgs/D103.png"",""materials/imgs/D87.png""]","false","random","","",""
"","","","","","html-keyboard-response","148","255083","0.0-15.0-1.0-0.0","rd0rbno9aa","","rd0rbno9aa","""2024-11-12T18:18:37.680Z""","null","+","null","","","","","","",""
"","","","","","image-keyboard-response","149","255614","0.0-15.0-1.0-1.0","rd0rbno9aa","","rd0rbno9aa","""2024-11-12T18:18:37.680Z""","530","materials/imgs/D8.png","arrowright","","[""materials/imgs/D18.png"",""materials/imgs/D8.png""]","","check","materials/imgs/D8.png","1","true"
"","","","","","html-keyboard-response","150","256116","0.0-15.0-2.0-0.0","rd0rbno9aa","","rd0rbno9aa","""2024-11-12T18:18:37.680Z""","null","+","null","","","","","","",""
"","","","","","image-keyboard-response","151","258372","0.0-15.0-2.0-1.0","rd0rbno9aa","","rd0rbno9aa","""2024-11-12T18:18:37.680Z""","2255","materials/imgs/D19.png","arrowleft","","[""materials/imgs/D111.png"",""materials/imgs/D56.png""]","false","validation","","",""
"","","","","","html-keyboard-response","152","258874","0.0-15.0-2.0-0.1","rd0rbno9aa","","rd0rbno9aa","""2024-11-12T18:18:37.680Z""","null","+","null","","","","","","",""
"","","","","","image-keyboard-response","153","261749","0.0-15.0-2.0-1.1","rd0rbno9aa","","rd0rbno9aa","""2024-11-12T18:18:37.680Z""","2874","materials/imgs/D83.png","arrowright","","[""materials/imgs/D24.png"",""materials/imgs/D8.png""]","false","validation","","",""
"","","","","","html-keyboard-response","154","262251","0.0-15.0-0.1-0.7","rd0rbno9aa","","rd0rbno9aa","""2024-11-12T18:18:37.680Z""","null","+","null","","","","","","",""
"","","","","","image-keyboard-response","155","263687","0.0-15.0-0.1-1.7","rd0rbno9aa","","rd0rbno9aa","""2024-11-12T18:18:37.680Z""","1434","materials/imgs/D16.png","arrowleft","","[""materials/imgs/D84.png"",""materials/imgs/D52.png""]","false","random","","",""
"","","","","","html-keyboard-response","156","264189","0.0-15.0-0.1-0.8","rd0rbno9aa","","rd0rbno9aa","""2024-11-12T18:18:37.680Z""","null","+","null","","","","","","",""
"","","","","","image-keyboard-response","157","265259","0.0-15.0-0.1-1.8","rd0rbno9aa","","rd0rbno9aa","""2024-11-12T18:18:37.680Z""","1069","materials/imgs/D84.png","arrowright","","[""materials/imgs/D18.png"",""materials/imgs/D102.png""]","false","random","","",""
"","","","","","html-keyboard-response","158","265760","0.0-15.0-0.1-0.9","rd0rbno9aa","","rd0rbno9aa","""2024-11-12T18:18:37.680Z""","null","+","null","","","","","","",""
"","","","","","image-keyboard-response","159","267786","0.0-15.0-0.1-1.9","rd0rbno9aa","","rd0rbno9aa","""2024-11-12T18:18:37.680Z""","2024","materials/imgs/D34.png","arrowright","","[""materials/imgs/D51.png"",""materials/imgs/D56.png""]","false","random","","",""
"","","","","","html-keyboard-response","160","268287","0.0-15.0-0.1-0.10","rd0rbno9aa","","rd0rbno9aa","""2024-11-12T18:18:37.680Z""","null","+","null","","","","","","",""
"","","","","","image-keyboard-response","161","269537","0.0-15.0-0.1-1.10","rd0rbno9aa","","rd0rbno9aa","""2024-11-12T18:18:37.680Z""","1243","materials/imgs/D76.png","arrowleft","","[""materials/imgs/D102.png"",""materials/imgs/D57.png""]","false","random","","",""
"","","","","","html-keyboard-response","162","270038","0.0-15.0-0.1-0.11","rd0rbno9aa","","rd0rbno9aa","""2024-11-12T18:18:37.680Z""","null","+","null","","","","","","",""
"","","","","","image-keyboard-response","163","271947","0.0-15.0-0.1-1.11","rd0rbno9aa","","rd0rbno9aa","""2024-11-12T18:18:37.680Z""","1907","materials/imgs/D65.png","arrowleft","","[""materials/imgs/D56.png"",""materials/imgs/D20.png""]","false","random","","",""
"","","","","","html-keyboard-response","164","272448","0.0-15.0-0.1-0.12","rd0rbno9aa","","rd0rbno9aa","""2024-11-12T18:18:37.680Z""","null","+","null","","","","","","",""
"","","","","","image-keyboard-response","165","273766","0.0-15.0-0.1-1.12","rd0rbno9aa","","rd0rbno9aa","""2024-11-12T18:18:37.680Z""","1316","materials/imgs/D83.png","arrowleft","","[""materials/imgs/D14.png"",""materials/imgs/D95.png""]","false","random","","",""
"","","","","","html-keyboard-response","166","274267","0.0-15.0-0.1-0.13","rd0rbno9aa","","rd0rbno9aa","""2024-11-12T18:18:37.680Z""","null","+","null","","","","","","",""
"","","","","","image-keyboard-response","167","276938","0.0-15.0-0.1-1.13","rd0rbno9aa","","rd0rbno9aa","""2024-11-12T18:18:37.680Z""","2670","materials/imgs/D51.png","arrowright","","[""materials/imgs/D46.png"",""materials/imgs/D8.png""]","false","random","","",""
"","","","","","html-keyboard-response","168","277440","0.0-15.0-1.1-0.1","rd0rbno9aa","","rd0rbno9aa","""2024-11-12T18:18:37.680Z""","null","+","null","","","","","","",""
"","","","","","image-keyboard-response","169","278032","0.0-15.0-1.1-1.1","rd0rbno9aa","","rd0rbno9aa","""2024-11-12T18:18:37.680Z""","590","materials/imgs/D26.png","arrowleft","","[""materials/imgs/D26.png"",""materials/imgs/D46.png""]","","check","materials/imgs/D26.png","0","true"
"","","","","","html-keyboard-response","170","278533","0.0-15.0-2.1-0.2","rd0rbno9aa","","rd0rbno9aa","""2024-11-12T18:18:37.680Z""","null","+","null","","","","","","",""
"","","","","","image-keyboard-response","171","279860","0.0-15.0-2.1-1.2","rd0rbno9aa","","rd0rbno9aa","""2024-11-12T18:18:37.680Z""","1326","materials/imgs/D64.png","arrowleft","","[""materials/imgs/D6.png"",""materials/imgs/D81.png""]","false","validation","","",""
"","","","","","html-keyboard-response","172","280362","0.0-15.0-2.1-0.3","rd0rbno9aa","","rd0rbno9aa","""2024-11-12T18:18:37.680Z""","null","+","null","","","","","","",""
"","","","","","image-keyboard-response","173","282048","0.0-15.0-2.1-1.3","rd0rbno9aa","","rd0rbno9aa","""2024-11-12T18:18:37.680Z""","1684","materials/imgs/D83.png","arrowleft","","[""materials/imgs/D24.png"",""materials/imgs/D8.png""]","false","validation","","",""
"","","","","","html-keyboard-response","174","282549","0.0-15.0-0.2-0.14","rd0rbno9aa","","rd0rbno9aa","""2024-11-12T18:18:37.680Z""","null","+","null","","","","","","",""
"","","","","","image-keyboard-response","175","283277","0.0-15.0-0.2-1.14","rd0rbno9aa","","rd0rbno9aa","""2024-11-12T18:18:37.680Z""","726","materials/imgs/D4.png","arrowleft","","[""materials/imgs/D32.png"",""materials/imgs/D102.png""]","false","random","","",""
"","","","","","html-keyboard-response","176","283778","0.0-15.0-0.2-0.15","rd0rbno9aa","","rd0rbno9aa","""2024-11-12T18:18:37.680Z""","null","+","null","","","","","","",""
"","","","","","image-keyboard-response","177","285303","0.0-15.0-0.2-1.15","rd0rbno9aa","","rd0rbno9aa","""2024-11-12T18:18:37.680Z""","1523","materials/imgs/D52.png","arrowright","","[""materials/imgs/D96.png"",""materials/imgs/D51.png""]","false","random","","",""
"","","","","","html-keyboard-response","178","285804","0.0-15.0-0.2-0.16","rd0rbno9aa","","rd0rbno9aa","""2024-11-12T18:18:37.680Z""","null","+","null","","","","","","",""
"","","","","","image-keyboard-response","179","287021","0.0-15.0-0.2-1.16","rd0rbno9aa","","rd0rbno9aa","""2024-11-12T18:18:37.680Z""","1215","materials/imgs/D25.png","arrowleft","","[""materials/imgs/D82.png"",""materials/imgs/D76.png""]","false","random","","",""
"","","","","","html-keyboard-response","180","287522","0.0-15.0-0.2-0.17","rd0rbno9aa","","rd0rbno9aa","""2024-11-12T18:18:37.680Z""","null","+","null","","","","","","",""
"","","","","","image-keyboard-response","181","289422","0.0-15.0-0.2-1.17","rd0rbno9aa","","rd0rbno9aa","""2024-11-12T18:18:37.680Z""","1898","materials/imgs/D4.png","arrowleft","","[""materials/imgs/D78.png"",""materials/imgs/D85.png""]","false","random","","",""
"","","","","","html-keyboard-response","182","289923","0.0-15.0-0.2-0.18","rd0rbno9aa","","rd0rbno9aa","""2024-11-12T18:18:37.680Z""","null","+","null","","","","","","",""
"","","","","","image-keyboard-response","183","291031","0.0-15.0-0.2-1.18","rd0rbno9aa","","rd0rbno9aa","""2024-11-12T18:18:37.680Z""","1106","materials/imgs/D51.png","arrowright","","[""materials/imgs/D25.png"",""materials/imgs/D46.png""]","false","random","","",""
"","","","","","html-keyboard-response","184","291532","0.0-15.0-0.2-0.19","rd0rbno9aa","","rd0rbno9aa","""2024-11-12T18:18:37.680Z""","null","+","null","","","","","","",""
"","","","","","image-keyboard-response","185","293217","0.0-15.0-0.2-1.19","rd0rbno9aa","","rd0rbno9aa","""2024-11-12T18:18:37.680Z""","1683","materials/imgs/D14.png","arrowright","","[""materials/imgs/D20.png"",""materials/imgs/D68.png""]","false","random","","",""
"","","","","","html-keyboard-response","186","293718","0.0-15.0-0.2-0.20","rd0rbno9aa","","rd0rbno9aa","""2024-11-12T18:18:37.680Z""","null","+","null","","","","","","",""
"","","","","","image-keyboard-response","187","295979","0.0-15.0-0.2-1.20","rd0rbno9aa","","rd0rbno9aa","""2024-11-12T18:18:37.680Z""","2259","materials/imgs/D87.png","arrowright","","[""materials/imgs/D46.png"",""materials/imgs/D34.png""]","false","random","","",""
"","","","","","html-keyboard-response","188","296481","0.0-15.0-1.2-0.2","rd0rbno9aa","","rd0rbno9aa","""2024-11-12T18:18:37.680Z""","null","+","null","","","","","","",""
"","","","","","image-keyboard-response","189","298530","0.0-15.0-1.2-1.2","rd0rbno9aa","","rd0rbno9aa","""2024-11-12T18:18:37.680Z""","2047","materials/imgs/D46.png","arrowleft","","[""materials/imgs/D46.png"",""materials/imgs/D26.png""]","","check","materials/imgs/D46.png","0","true"
"","","","","","html-keyboard-response","190","299031","0.0-15.0-2.2-0.4","rd0rbno9aa","","rd0rbno9aa","""2024-11-12T18:18:37.680Z""","null","+","null","","","","","","",""
"","","","","","image-keyboard-response","191","300590","0.0-15.0-2.2-1.4","rd0rbno9aa","","rd0rbno9aa","""2024-11-12T18:18:37.680Z""","1557","materials/imgs/D18.png","arrowright","","[""materials/imgs/D32.png"",""materials/imgs/D57.png""]","false","validation","","",""
"","","","","","html-keyboard-response","192","301091","0.0-15.0-2.2-0.5","rd0rbno9aa","","rd0rbno9aa","""2024-11-12T18:18:37.680Z""","null","+","null","","","","","","",""
"","","","","","image-keyboard-response","193","302570","0.0-15.0-2.2-1.5","rd0rbno9aa","","rd0rbno9aa","""2024-11-12T18:18:37.680Z""","1478","materials/imgs/D95.png","arrowright","","[""materials/imgs/D36.png"",""materials/imgs/D4.png""]","false","validation","","",""
"","","","","","html-keyboard-response","194","303071","0.0-15.0-0.3-0.21","rd0rbno9aa","","rd0rbno9aa","""2024-11-12T18:18:37.680Z""","null","+","null","","","","","","",""
"","","","","","image-keyboard-response","195","304566","0.0-15.0-0.3-1.21","rd0rbno9aa","","rd0rbno9aa","""2024-11-12T18:18:37.680Z""","1493","materials/imgs/D95.png","arrowleft","","[""materials/imgs/D55.png"",""materials/imgs/D75.png""]","false","random","","",""
"","","","","","html-keyboard-response","196","305067","0.0-15.0-0.3-0.22","rd0rbno9aa","","rd0rbno9aa","""2024-11-12T18:18:37.680Z""","null","+","null","","","","","","",""
"","","","","","image-keyboard-response","197","307872","0.0-15.0-0.3-1.22","rd0rbno9aa","","rd0rbno9aa","""2024-11-12T18:18:37.680Z""","2803","materials/imgs/D34.png","arrowleft","","[""materials/imgs/D68.png"",""materials/imgs/D20.png""]","false","random","","",""
"","","","","","html-keyboard-response","198","308374","0.0-15.0-0.3-0.23","rd0rbno9aa","","rd0rbno9aa","""2024-11-12T18:18:37.680Z""","null","+","null","","","","","","",""
"","","","","","image-keyboard-response","199","313082","0.0-15.0-0.3-1.23","rd0rbno9aa","","rd0rbno9aa","""2024-11-12T18:18:37.680Z""","4707","materials/imgs/D51.png","arrowleft","","[""materials/imgs/D64.png"",""materials/imgs/D56.png""]","false","random","","",""
"","","","","","html-keyboard-response","200","313584","0.0-15.0-0.3-0.24","rd0rbno9aa","","rd0rbno9aa","""2024-11-12T18:18:37.680Z""","null","+","null","","","","","","",""
"","","","","","image-keyboard-response","201","314342","0.0-15.0-0.3-1.24","rd0rbno9aa","","rd0rbno9aa","""2024-11-12T18:18:37.680Z""","756","materials/imgs/D25.png","arrowright","","[""materials/imgs/D21.png"",""materials/imgs/D26.png""]","false","random","","",""
"","","","","","html-keyboard-response","202","314843","0.0-15.0-0.3-0.25","rd0rbno9aa","","rd0rbno9aa","""2024-11-12T18:18:37.680Z""","null","+","null","","","","","","",""
"","","","","","image-keyboard-response","203","316172","0.0-15.0-0.3-1.25","rd0rbno9aa","","rd0rbno9aa","""2024-11-12T18:18:37.680Z""","1327","materials/imgs/D102.png","arrowright","","[""materials/imgs/D35.png"",""materials/imgs/D8.png""]","false","random","","",""
"","","","","","html-keyboard-response","204","316673","0.0-15.0-0.3-0.26","rd0rbno9aa","","rd0rbno9aa","""2024-11-12T18:18:37.680Z""","null","+","null","","","","","","",""
"","","","","","image-keyboard-response","205","317827","0.0-15.0-0.3-1.26","rd0rbno9aa","","rd0rbno9aa","""2024-11-12T18:18:37.680Z""","1152","materials/imgs/D34.png","arrowright","","[""materials/imgs/D84.png"",""materials/imgs/D1.png""]","false","random","","",""
"","","","","","html-keyboard-response","206","318329","0.0-15.0-0.3-0.27","rd0rbno9aa","","rd0rbno9aa","""2024-11-12T18:18:37.680Z""","null","+","null","","","","","","",""
"","","","","","image-keyboard-response","207","320691","0.0-15.0-0.3-1.27","rd0rbno9aa","","rd0rbno9aa","""2024-11-12T18:18:37.680Z""","2360","materials/imgs/D37.png","arrowleft","","[""materials/imgs/D32.png"",""materials/imgs/D35.png""]","false","random","","",""
"","","","","","html-keyboard-response","208","321192","0.0-15.0-1.3-0.3","rd0rbno9aa","","rd0rbno9aa","""2024-11-12T18:18:37.680Z""","null","+","null","","","","","","",""
"","","","","","image-keyboard-response","209","321827","0.0-15.0-1.3-1.3","rd0rbno9aa","","rd0rbno9aa","""2024-11-12T18:18:37.680Z""","634","materials/imgs/D53.png","arrowright","","[""materials/imgs/D64.png"",""materials/imgs/D53.png""]","","check","materials/imgs/D53.png","1","true"
"","","","","","html-keyboard-response","210","322329","0.0-15.0-2.3-0.6","rd0rbno9aa","","rd0rbno9aa","""2024-11-12T18:18:37.680Z""","null","+","null","","","","","","",""
"","","","","","image-keyboard-response","211","322956","0.0-15.0-2.3-1.6","rd0rbno9aa","","rd0rbno9aa","""2024-11-12T18:18:37.680Z""","626","materials/imgs/D9.png","arrowright","","[""materials/imgs/D103.png"",""materials/imgs/D4.png""]","false","validation","","",""
"","","","","","html-keyboard-response","212","323457","0.0-15.0-2.3-0.7","rd0rbno9aa","","rd0rbno9aa","""2024-11-12T18:18:37.680Z""","null","+","null","","","","","","",""
"","","","","","image-keyboard-response","213","324838","0.0-15.0-2.3-1.7","rd0rbno9aa","","rd0rbno9aa","""2024-11-12T18:18:37.680Z""","1380","materials/imgs/D36.png","arrowright","","[""materials/imgs/D47.png"",""materials/imgs/D49.png""]","false","validation","","",""
"","","","","","html-keyboard-response","214","325340","0.0-15.0-0.4-0.28","rd0rbno9aa","","rd0rbno9aa","""2024-11-12T18:18:37.680Z""","null","+","null","","","","","","",""
"","","","","","image-keyboard-response","215","326083","0.0-15.0-0.4-1.28","rd0rbno9aa","","rd0rbno9aa","""2024-11-12T18:18:37.680Z""","742","materials/imgs/D26.png","arrowleft","","[""materials/imgs/D96.png"",""materials/imgs/D81.png""]","false","random","","",""
"","","","","","html-keyboard-response","216","326585","0.0-15.0-0.4-0.29","rd0rbno9aa","","rd0rbno9aa","""2024-11-12T18:18:37.680Z""","null","+","null","","","","","","",""
"","","","","","image-keyboard-response","217","329368","0.0-15.0-0.4-1.29","rd0rbno9aa","","rd0rbno9aa","""2024-11-12T18:18:37.680Z""","2782","materials/imgs/D95.png","arrowleft","","[""materials/imgs/D76.png"",""materials/imgs/D105.png""]","false","random","","",""
"","","","","","html-keyboard-response","218","329870","0.0-15.0-0.4-0.30","rd0rbno9aa","","rd0rbno9aa","""2024-11-12T18:18:37.680Z""","null","+","null","","","","","","",""
"","","","","","image-keyboard-response","219","330739","0.0-15.0-0.4-1.30","rd0rbno9aa","","rd0rbno9aa","""2024-11-12T18:18:37.680Z""","867","materials/imgs/D66.png","arrowleft","","[""materials/imgs/D75.png"",""materials/imgs/D87.png""]","false","random","","",""
"","","","","","html-keyboard-response","220","331239","0.0-15.0-0.4-0.31","rd0rbno9aa","","rd0rbno9aa","""2024-11-12T18:18:37.680Z""","null","+","null","","","","","","",""
"","","","","","image-keyboard-response","221","332337","0.0-15.0-0.4-1.31","rd0rbno9aa","","rd0rbno9aa","""2024-11-12T18:18:37.680Z""","1095","materials/imgs/D1.png","arrowleft","","[""materials/imgs/D64.png"",""materials/imgs/D17.png""]","false","random","","",""
"","","","","","html-keyboard-response","222","332838","0.0-15.0-0.4-0.32","rd0rbno9aa","","rd0rbno9aa","""2024-11-12T18:18:37.680Z""","null","+","null","","","","","","",""
"","","","","","image-keyboard-response","223","334083","0.0-15.0-0.4-1.32","rd0rbno9aa","","rd0rbno9aa","""2024-11-12T18:18:37.680Z""","1243","materials/imgs/D106.png","arrowleft","","[""materials/imgs/D53.png"",""materials/imgs/D57.png""]","false","random","","",""
"","","","","","html-keyboard-response","224","334584","0.0-15.0-0.4-0.33","rd0rbno9aa","","rd0rbno9aa","""2024-11-12T18:18:37.680Z""","null","+","null","","","","","","",""
"","","","","","image-keyboard-response","225","336224","0.0-15.0-0.4-1.33","rd0rbno9aa","","rd0rbno9aa","""2024-11-12T18:18:37.680Z""","1638","materials/imgs/D19.png","arrowleft","","[""materials/imgs/D84.png"",""materials/imgs/D34.png""]","false","random","","",""
"","","","","","html-keyboard-response","226","336725","0.0-15.0-0.4-0.34","rd0rbno9aa","","rd0rbno9aa","""2024-11-12T18:18:37.680Z""","null","+","null","","","","","","",""
"","","","","","image-keyboard-response","227","338880","0.0-15.0-0.4-1.34","rd0rbno9aa","","rd0rbno9aa","""2024-11-12T18:18:37.680Z""","2153","materials/imgs/D53.png","arrowleft","","[""materials/imgs/D35.png"",""materials/imgs/D56.png""]","false","random","","",""
"","","","","","html-keyboard-response","228","339381","0.0-15.0-1.4-0.4","rd0rbno9aa","","rd0rbno9aa","""2024-11-12T18:18:37.680Z""","null","+","null","","","","","","",""
"","","","","","image-keyboard-response","229","339954","0.0-15.0-1.4-1.4","rd0rbno9aa","","rd0rbno9aa","""2024-11-12T18:18:37.680Z""","571","materials/imgs/D46.png","arrowleft","","[""materials/imgs/D46.png"",""materials/imgs/D26.png""]","","check","materials/imgs/D46.png","0","true"
"","","","","","html-keyboard-response","230","340455","0.0-15.0-2.4-0.8","rd0rbno9aa","","rd0rbno9aa","""2024-11-12T18:18:37.680Z""","null","+","null","","","","","","",""
"","","","","","image-keyboard-response","231","341483","0.0-15.0-2.4-1.8","rd0rbno9aa","","rd0rbno9aa","""2024-11-12T18:18:37.680Z""","1026","materials/imgs/D65.png","arrowright","","[""materials/imgs/D4.png"",""materials/imgs/D16.png""]","false","validation","","",""
"","","","","","html-keyboard-response","232","341984","0.0-15.0-2.4-0.9","rd0rbno9aa","","rd0rbno9aa","""2024-11-12T18:18:37.680Z""","null","+","null","","","","","","",""
"","","","","","image-keyboard-response","233","343494","0.0-15.0-2.4-1.9","rd0rbno9aa","","rd0rbno9aa","""2024-11-12T18:18:37.680Z""","1509","materials/imgs/D82.png","arrowleft","","[""materials/imgs/D83.png"",""materials/imgs/D22.png""]","false","validation","","",""
"","","","","","html-button-response","234","345175","0.0-16.0","rd0rbno9aa","","rd0rbno9aa","""2024-11-12T18:18:37.680Z""","1679","You have completed 50% of the trials. Please click 'Continue' when you are ready proceed.","0","","","","","","",""
"","","","","","html-keyboard-response","235","345677","0.0-17.0-0.0-0.0","rd0rbno9aa","","rd0rbno9aa","""2024-11-12T18:18:37.680Z""","null","+","null","","","","","","",""
"","","","","","image-keyboard-response","236","347190","0.0-17.0-0.0-1.0","rd0rbno9aa","","rd0rbno9aa","""2024-11-12T18:18:37.680Z""","1511","materials/imgs/D20.png","arrowleft","","[""materials/imgs/D56.png"",""materials/imgs/D79.png""]","false","random","","",""
"","","","","","html-keyboard-response","237","347691","0.0-17.0-0.0-0.1","rd0rbno9aa","","rd0rbno9aa","""2024-11-12T18:18:37.680Z""","null","+","null","","","","","","",""
"","","","","","image-keyboard-response","238","348828","0.0-17.0-0.0-1.1","rd0rbno9aa","","rd0rbno9aa","""2024-11-12T18:18:37.680Z""","1135","materials/imgs/D36.png","arrowleft","","[""materials/imgs/D35.png"",""materials/imgs/D51.png""]","false","random","","",""
"","","","","","html-keyboard-response","239","349330","0.0-17.0-0.0-0.2","rd0rbno9aa","","rd0rbno9aa","""2024-11-12T18:18:37.680Z""","null","+","null","","","","","","",""
"","","","","","image-keyboard-response","240","350822","0.0-17.0-0.0-1.2","rd0rbno9aa","","rd0rbno9aa","""2024-11-12T18:18:37.680Z""","1491","materials/imgs/D79.png","arrowright","","[""materials/imgs/D80.png"",""materials/imgs/D84.png""]","false","random","","",""
"","","","","","html-keyboard-response","241","351323","0.0-17.0-0.0-0.3","rd0rbno9aa","","rd0rbno9aa","""2024-11-12T18:18:37.680Z""","null","+","null","","","","","","",""
"","","","","","image-keyboard-response","242","352316","0.0-17.0-0.0-1.3","rd0rbno9aa","","rd0rbno9aa","""2024-11-12T18:18:37.680Z""","991","materials/imgs/D22.png","arrowleft","","[""materials/imgs/D32.png"",""materials/imgs/D96.png""]","false","random","","",""
"","","","","","html-keyboard-response","243","352817","0.0-17.0-0.0-0.4","rd0rbno9aa","","rd0rbno9aa","""2024-11-12T18:18:37.680Z""","null","+","null","","","","","","",""
"","","","","","image-keyboard-response","244","353820","0.0-17.0-0.0-1.4","rd0rbno9aa","","rd0rbno9aa","""2024-11-12T18:18:37.680Z""","1001","materials/imgs/D26.png","arrowright","","[""materials/imgs/D24.png"",""materials/imgs/D16.png""]","false","random","","",""
"","","","","","html-keyboard-response","245","354321","0.0-17.0-0.0-0.5","rd0rbno9aa","","rd0rbno9aa","""2024-11-12T18:18:37.680Z""","null","+","null","","","","","","",""
"","","","","","image-keyboard-response","246","356045","0.0-17.0-0.0-1.5","rd0rbno9aa","","rd0rbno9aa","""2024-11-12T18:18:37.680Z""","1722","materials/imgs/D17.png","arrowright","","[""materials/imgs/D66.png"",""materials/imgs/D52.png""]","false","random","","",""
"","","","","","html-keyboard-response","247","356546","0.0-17.0-0.0-0.6","rd0rbno9aa","","rd0rbno9aa","""2024-11-12T18:18:37.680Z""","null","+","null","","","","","","",""
"","","","","","image-keyboard-response","248","357452","0.0-17.0-0.0-1.6","rd0rbno9aa","","rd0rbno9aa","""2024-11-12T18:18:37.680Z""","903","materials/imgs/D64.png","arrowleft","","[""materials/imgs/D25.png"",""materials/imgs/D22.png""]","false","random","","",""
"","","","","","html-keyboard-response","249","357953","0.0-17.0-1.0-0.0","rd0rbno9aa","","rd0rbno9aa","""2024-11-12T18:18:37.680Z""","null","+","null","","","","","","",""
"","","","","","image-keyboard-response","250","358885","0.0-17.0-1.0-1.0","rd0rbno9aa","","rd0rbno9aa","""2024-11-12T18:18:37.680Z""","931","materials/imgs/D78.png","arrowleft","","[""materials/imgs/D76.png"",""materials/imgs/D78.png""]","","check","materials/imgs/D76.png","0","false"
"","","","","","html-keyboard-response","251","364934","0.0-17.0-1.0-2.0-0.0","rd0rbno9aa","","rd0rbno9aa","""2024-11-12T18:18:37.680Z""","6049","<p><strong>Incorrect!</strong></p>That was an attention check. Please pay attention while completing this task.<p>Press 'y' to continue.</p>","y","","","","","","",""
"","","","","","html-keyboard-response","252","365436","0.0-17.0-2.0-0.0","rd0rbno9aa","","rd0rbno9aa","""2024-11-12T18:18:37.680Z""","null","+","null","","","","","","",""
"","","","","","image-keyboard-response","253","367000","0.0-17.0-2.0-1.0","rd0rbno9aa","","rd0rbno9aa","""2024-11-12T18:18:37.680Z""","1562","materials/imgs/D32.png","arrowleft","","[""materials/imgs/D68.png"",""materials/imgs/D96.png""]","false","validation","","",""
"","","","","","html-keyboard-response","254","367501","0.0-17.0-2.0-0.1","rd0rbno9aa","","rd0rbno9aa","""2024-11-12T18:18:37.680Z""","null","+","null","","","","","","",""
"","","","","","image-keyboard-response","255","369416","0.0-17.0-2.0-1.1","rd0rbno9aa","","rd0rbno9aa","""2024-11-12T18:18:37.680Z""","1914","materials/imgs/D52.png","arrowright","","[""materials/imgs/D9.png"",""materials/imgs/D19.png""]","false","validation","","",""
"","","","","","html-keyboard-response","256","369917","0.0-17.0-0.1-0.7","rd0rbno9aa","","rd0rbno9aa","""2024-11-12T18:18:37.680Z""","null","+","null","","","","","","",""
"","","","","","image-keyboard-response","257","371237","0.0-17.0-0.1-1.7","rd0rbno9aa","","rd0rbno9aa","""2024-11-12T18:18:37.680Z""","1319","materials/imgs/D81.png","arrowright","","[""materials/imgs/D64.png"",""materials/imgs/D26.png""]","false","random","","",""
"","","","","","html-keyboard-response","258","371738","0.0-17.0-0.1-0.8","rd0rbno9aa","","rd0rbno9aa","""2024-11-12T18:18:37.680Z""","null","+","null","","","","","","",""
"","","","","","image-keyboard-response","259","372973","0.0-17.0-0.1-1.8","rd0rbno9aa","","rd0rbno9aa","""2024-11-12T18:18:37.680Z""","1233","materials/imgs/D87.png","arrowright","","[""materials/imgs/D94.png"",""materials/imgs/D92.png""]","false","random","","",""
"","","","","","html-keyboard-response","260","373475","0.0-17.0-0.1-0.9","rd0rbno9aa","","rd0rbno9aa","""2024-11-12T18:18:37.680Z""","null","+","null","","","","","","",""
"","","","","","image-keyboard-response","261","374727","0.0-17.0-0.1-1.9","rd0rbno9aa","","rd0rbno9aa","""2024-11-12T18:18:37.680Z""","1251","materials/imgs/D75.png","arrowleft","","[""materials/imgs/D48.png"",""materials/imgs/D102.png""]","false","random","","",""
"","","","","","html-keyboard-response","262","375229","0.0-17.0-0.1-0.10","rd0rbno9aa","","rd0rbno9aa","""2024-11-12T18:18:37.680Z""","null","+","null","","","","","","",""
"","","","","","image-keyboard-response","263","377068","0.0-17.0-0.1-1.10","rd0rbno9aa","","rd0rbno9aa","""2024-11-12T18:18:37.680Z""","1838","materials/imgs/D111.png","arrowleft","","[""materials/imgs/D57.png"",""materials/imgs/D37.png""]","false","random","","",""
"","","","","","html-keyboard-response","264","377570","0.0-17.0-0.1-0.11","rd0rbno9aa","","rd0rbno9aa","""2024-11-12T18:18:37.680Z""","null","+","null","","","","","","",""
"","","","","","image-keyboard-response","265","378780","0.0-17.0-0.1-1.11","rd0rbno9aa","","rd0rbno9aa","""2024-11-12T18:18:37.680Z""","1208","materials/imgs/D80.png","arrowleft","","[""materials/imgs/D29.png"",""materials/imgs/D83.png""]","false","random","","",""
"","","","","","html-keyboard-response","266","379282","0.0-17.0-0.1-0.12","rd0rbno9aa","","rd0rbno9aa","""2024-11-12T18:18:37.680Z""","null","+","null","","","","","","",""
"","","","","","image-keyboard-response","267","380468","0.0-17.0-0.1-1.12","rd0rbno9aa","","rd0rbno9aa","""2024-11-12T18:18:37.680Z""","1185","materials/imgs/D35.png","arrowleft","","[""materials/imgs/D104.png"",""materials/imgs/D92.png""]","false","random","","",""
"","","","","","html-keyboard-response","268","380969","0.0-17.0-0.1-0.13","rd0rbno9aa","","rd0rbno9aa","""2024-11-12T18:18:37.680Z""","null","+","null","","","","","","",""
"","","","","","image-keyboard-response","269","382462","0.0-17.0-0.1-1.13","rd0rbno9aa","","rd0rbno9aa","""2024-11-12T18:18:37.680Z""","1491","materials/imgs/D82.png","arrowright","","[""materials/imgs/D56.png"",""materials/imgs/D111.png""]","false","random","","",""
"","","","","","html-keyboard-response","270","382964","0.0-17.0-1.1-0.1","rd0rbno9aa","","rd0rbno9aa","""2024-11-12T18:18:37.680Z""","null","+","null","","","","","","",""
"","","","","","image-keyboard-response","271","383546","0.0-17.0-1.1-1.1","rd0rbno9aa","","rd0rbno9aa","""2024-11-12T18:18:37.680Z""","581","materials/imgs/D106.png","arrowleft","","[""materials/imgs/D106.png"",""materials/imgs/D101.png""]","","check","materials/imgs/D106.png","0","true"
"","","","","","html-keyboard-response","272","384047","0.0-17.0-2.1-0.2","rd0rbno9aa","","rd0rbno9aa","""2024-11-12T18:18:37.680Z""","null","+","null","","","","","","",""
"","","","","","image-keyboard-response","273","385233","0.0-17.0-2.1-1.2","rd0rbno9aa","","rd0rbno9aa","""2024-11-12T18:18:37.680Z""","1184","materials/imgs/D48.png","arrowright","","[""materials/imgs/D4.png"",""materials/imgs/D37.png""]","false","validation","","",""
"","","","","","html-keyboard-response","274","385735","0.0-17.0-2.1-0.3","rd0rbno9aa","","rd0rbno9aa","""2024-11-12T18:18:37.680Z""","null","+","null","","","","","","",""
"","","","","","image-keyboard-response","275","387029","0.0-17.0-2.1-1.3","rd0rbno9aa","","rd0rbno9aa","""2024-11-12T18:18:37.680Z""","1293","materials/imgs/D32.png","arrowleft","","[""materials/imgs/D68.png"",""materials/imgs/D96.png""]","false","validation","","",""
"","","","","","html-keyboard-response","276","387530","0.0-17.0-0.2-0.14","rd0rbno9aa","","rd0rbno9aa","""2024-11-12T18:18:37.680Z""","null","+","null","","","","","","",""
"","","","","","image-keyboard-response","277","388712","0.0-17.0-0.2-1.14","rd0rbno9aa","","rd0rbno9aa","""2024-11-12T18:18:37.680Z""","1180","materials/imgs/D68.png","arrowright","","[""materials/imgs/D36.png"",""materials/imgs/D106.png""]","false","random","","",""
"","","","","","html-keyboard-response","278","389213","0.0-17.0-0.2-0.15","rd0rbno9aa","","rd0rbno9aa","""2024-11-12T18:18:37.680Z""","null","+","null","","","","","","",""
"","","","","","image-keyboard-response","279","391158","0.0-17.0-0.2-1.15","rd0rbno9aa","","rd0rbno9aa","""2024-11-12T18:18:37.680Z""","1944","materials/imgs/D3.png","arrowright","","[""materials/imgs/D17.png"",""materials/imgs/D81.png""]","false","random","","",""
"","","","","","html-keyboard-response","280","391660","0.0-17.0-0.2-0.16","rd0rbno9aa","","rd0rbno9aa","""2024-11-12T18:18:37.680Z""","null","+","null","","","","","","",""
"","","","","","image-keyboard-response","281","392927","0.0-17.0-0.2-1.16","rd0rbno9aa","","rd0rbno9aa","""2024-11-12T18:18:37.680Z""","1265","materials/imgs/D9.png","arrowright","","[""materials/imgs/D56.png"",""materials/imgs/D83.png""]","false","random","","",""
"","","","","","html-keyboard-response","282","393428","0.0-17.0-0.2-0.17","rd0rbno9aa","","rd0rbno9aa","""2024-11-12T18:18:37.680Z""","null","+","null","","","","","","",""
"","","","","","image-keyboard-response","283","394091","0.0-17.0-0.2-1.17","rd0rbno9aa","","rd0rbno9aa","""2024-11-12T18:18:37.680Z""","661","materials/imgs/D106.png","arrowright","","[""materials/imgs/D35.png"",""materials/imgs/D79.png""]","false","random","","",""
"","","","","","html-keyboard-response","284","394592","0.0-17.0-0.2-0.18","rd0rbno9aa","","rd0rbno9aa","""2024-11-12T18:18:37.680Z""","null","+","null","","","","","","",""
"","","","","","image-keyboard-response","285","395163","0.0-17.0-0.2-1.18","rd0rbno9aa","","rd0rbno9aa","""2024-11-12T18:18:37.680Z""","569","materials/imgs/D36.png","arrowright","","[""materials/imgs/D24.png"",""materials/imgs/D35.png""]","false","random","","",""
"","","","","","html-keyboard-response","286","395664","0.0-17.0-0.2-0.19","rd0rbno9aa","","rd0rbno9aa","""2024-11-12T18:18:37.680Z""","null","+","null","","","","","","",""
"","","","","","image-keyboard-response","287","396677","0.0-17.0-0.2-1.19","rd0rbno9aa","","rd0rbno9aa","""2024-11-12T18:18:37.680Z""","1011","materials/imgs/D105.png","arrowright","","[""materials/imgs/D94.png"",""materials/imgs/D29.png""]","false","random","","",""
"","","","","","html-keyboard-response","288","397178","0.0-17.0-0.2-0.20","rd0rbno9aa","","rd0rbno9aa","""2024-11-12T18:18:37.680Z""","null","+","null","","","","","","",""
"","","","","","image-keyboard-response","289","399260","0.0-17.0-0.2-1.20","rd0rbno9aa","","rd0rbno9aa","""2024-11-12T18:18:37.680Z""","2079","materials/imgs/D18.png","arrowright","","[""materials/imgs/D101.png"",""materials/imgs/D17.png""]","false","random","","",""
"","","","","","html-keyboard-response","290","399761","0.0-17.0-1.2-0.2","rd0rbno9aa","","rd0rbno9aa","""2024-11-12T18:18:37.680Z""","null","+","null","","","","","","",""
"","","","","","image-keyboard-response","291","400281","0.0-17.0-1.2-1.2","rd0rbno9aa","","rd0rbno9aa","""2024-11-12T18:18:37.680Z""","518","materials/imgs/D53.png","arrowright","","[""materials/imgs/D64.png"",""materials/imgs/D53.png""]","","check","materials/imgs/D53.png","1","true"
"","","","","","html-keyboard-response","292","400782","0.0-17.0-2.2-0.4","rd0rbno9aa","","rd0rbno9aa","""2024-11-12T18:18:37.680Z""","null","+","null","","","","","","",""
"","","","","","image-keyboard-response","293","402197","0.0-17.0-2.2-1.4","rd0rbno9aa","","rd0rbno9aa","""2024-11-12T18:18:37.680Z""","1414","materials/imgs/D37.png","arrowleft","","[""materials/imgs/D84.png"",""materials/imgs/D111.png""]","false","validation","","",""
"","","","","","html-keyboard-response","294","402698","0.0-17.0-2.2-0.5","rd0rbno9aa","","rd0rbno9aa","""2024-11-12T18:18:37.680Z""","null","+","null","","","","","","",""
"","","","","","image-keyboard-response","295","404329","0.0-17.0-2.2-1.5","rd0rbno9aa","","rd0rbno9aa","""2024-11-12T18:18:37.680Z""","1629","materials/imgs/D24.png","arrowright","","[""materials/imgs/D36.png"",""materials/imgs/D8.png""]","false","validation","","",""
"","","","","","html-keyboard-response","296","404830","0.0-17.0-0.3-0.21","rd0rbno9aa","","rd0rbno9aa","""2024-11-12T18:18:37.680Z""","null","+","null","","","","","","",""
"","","","","","image-keyboard-response","297","406597","0.0-17.0-0.3-1.21","rd0rbno9aa","","rd0rbno9aa","""2024-11-12T18:18:37.680Z""","1766","materials/imgs/D106.png","arrowright","","[""materials/imgs/D75.png"",""materials/imgs/D96.png""]","false","random","","",""
"","","","","","html-keyboard-response","298","407099","0.0-17.0-0.3-0.22","rd0rbno9aa","","rd0rbno9aa","""2024-11-12T18:18:37.680Z""","null","+","null","","","","","","",""
"","","","","","image-keyboard-response","299","408583","0.0-17.0-0.3-1.22","rd0rbno9aa","","rd0rbno9aa","""2024-11-12T18:18:37.680Z""","1482","materials/imgs/D49.png","arrowright","","[""materials/imgs/D51.png"",""materials/imgs/D84.png""]","false","random","","",""
"","","","","","html-keyboard-response","300","409084","0.0-17.0-0.3-0.23","rd0rbno9aa","","rd0rbno9aa","""2024-11-12T18:18:37.680Z""","null","+","null","","","","","","",""
"","","","","","image-keyboard-response","301","410173","0.0-17.0-0.3-1.23","rd0rbno9aa","","rd0rbno9aa","""2024-11-12T18:18:37.680Z""","1087","materials/imgs/D105.png","arrowleft","","[""materials/imgs/D47.png"",""materials/imgs/D102.png""]","false","random","","",""
"","","","","","html-keyboard-response","302","410673","0.0-17.0-0.3-0.24","rd0rbno9aa","","rd0rbno9aa","""2024-11-12T18:18:37.680Z""","null","+","null","","","","","","",""
"","","","","","image-keyboard-response","303","411703","0.0-17.0-0.3-1.24","rd0rbno9aa","","rd0rbno9aa","""2024-11-12T18:18:37.680Z""","1028","materials/imgs/D81.png","arrowright","","[""materials/imgs/D18.png"",""materials/imgs/D96.png""]","false","random","","",""
"","","","","","html-keyboard-response","304","412204","0.0-17.0-0.3-0.25","rd0rbno9aa","","rd0rbno9aa","""2024-11-12T18:18:37.680Z""","null","+","null","","","","","","",""
"","","","","","image-keyboard-response","305","413450","0.0-17.0-0.3-1.25","rd0rbno9aa","","rd0rbno9aa","""2024-11-12T18:18:37.680Z""","1244","materials/imgs/D104.png","arrowright","","[""materials/imgs/D8.png"",""materials/imgs/D1.png""]","false","random","","",""
"","","","","","html-keyboard-response","306","413951","0.0-17.0-0.3-0.26","rd0rbno9aa","","rd0rbno9aa","""2024-11-12T18:18:37.680Z""","null","+","null","","","","","","",""
"","","","","","image-keyboard-response","307","415131","0.0-17.0-0.3-1.26","rd0rbno9aa","","rd0rbno9aa","""2024-11-12T18:18:37.680Z""","1179","materials/imgs/D78.png","arrowleft","","[""materials/imgs/D49.png"",""materials/imgs/D1.png""]","false","random","","",""
"","","","","","html-keyboard-response","308","415633","0.0-17.0-0.3-0.27","rd0rbno9aa","","rd0rbno9aa","""2024-11-12T18:18:37.680Z""","null","+","null","","","","","","",""
"","","","","","image-keyboard-response","309","417178","0.0-17.0-0.3-1.27","rd0rbno9aa","","rd0rbno9aa","""2024-11-12T18:18:37.680Z""","1544","materials/imgs/D18.png","arrowleft","","[""materials/imgs/D81.png"",""materials/imgs/D111.png""]","false","random","","",""
"","","","","","html-keyboard-response","310","417679","0.0-17.0-1.3-0.3","rd0rbno9aa","","rd0rbno9aa","""2024-11-12T18:18:37.680Z""","null","+","null","","","","","","",""
"","","","","","image-keyboard-response","311","418268","0.0-17.0-1.3-1.3","rd0rbno9aa","","rd0rbno9aa","""2024-11-12T18:18:37.680Z""","588","materials/imgs/D46.png","arrowleft","","[""materials/imgs/D46.png"",""materials/imgs/D26.png""]","","check","materials/imgs/D46.png","0","true"
"","","","","","html-keyboard-response","312","418770","0.0-17.0-2.3-0.6","rd0rbno9aa","","rd0rbno9aa","""2024-11-12T18:18:37.680Z""","null","+","null","","","","","","",""
"","","","","","image-keyboard-response","313","420030","0.0-17.0-2.3-1.6","rd0rbno9aa","","rd0rbno9aa","""2024-11-12T18:18:37.680Z""","1259","materials/imgs/D16.png","arrowleft","","[""materials/imgs/D52.png"",""materials/imgs/D25.png""]","false","validation","","",""
"","","","","","html-keyboard-response","314","420532","0.0-17.0-2.3-0.7","rd0rbno9aa","","rd0rbno9aa","""2024-11-12T18:18:37.680Z""","null","+","null","","","","","","",""
"","","","","","image-keyboard-response","315","421634","0.0-17.0-2.3-1.7","rd0rbno9aa","","rd0rbno9aa","""2024-11-12T18:18:37.680Z""","1101","materials/imgs/D51.png","arrowleft","","[""materials/imgs/D92.png"",""materials/imgs/D20.png""]","false","validation","","",""
"","","","","","html-keyboard-response","316","422136","0.0-17.0-0.4-0.28","rd0rbno9aa","","rd0rbno9aa","""2024-11-12T18:18:37.680Z""","null","+","null","","","","","","",""
"","","","","","image-keyboard-response","317","423208","0.0-17.0-0.4-1.28","rd0rbno9aa","","rd0rbno9aa","""2024-11-12T18:18:37.680Z""","1071","materials/imgs/D79.png","arrowright","","[""materials/imgs/D53.png"",""materials/imgs/D78.png""]","false","random","","",""
"","","","","","html-keyboard-response","318","423709","0.0-17.0-0.4-0.29","rd0rbno9aa","","rd0rbno9aa","""2024-11-12T18:18:37.680Z""","null","+","null","","","","","","",""
"","","","","","image-keyboard-response","319","425517","0.0-17.0-0.4-1.29","rd0rbno9aa","","rd0rbno9aa","""2024-11-12T18:18:37.680Z""","1806","materials/imgs/D101.png","arrowleft","","[""materials/imgs/D14.png"",""materials/imgs/D92.png""]","false","random","","",""
"","","","","","html-keyboard-response","320","426017","0.0-17.0-0.4-0.30","rd0rbno9aa","","rd0rbno9aa","""2024-11-12T18:18:37.680Z""","null","+","null","","","","","","",""
"","","","","","image-keyboard-response","321","426834","0.0-17.0-0.4-1.30","rd0rbno9aa","","rd0rbno9aa","""2024-11-12T18:18:37.680Z""","815","materials/imgs/D16.png","arrowleft","","[""materials/imgs/D81.png"",""materials/imgs/D94.png""]","false","random","","",""
"","","","","","html-keyboard-response","322","427336","0.0-17.0-0.4-0.31","rd0rbno9aa","","rd0rbno9aa","""2024-11-12T18:18:37.680Z""","null","+","null","","","","","","",""
"","","","","","image-keyboard-response","323","428378","0.0-17.0-0.4-1.31","rd0rbno9aa","","rd0rbno9aa","""2024-11-12T18:18:37.680Z""","1040","materials/imgs/D68.png","arrowright","","[""materials/imgs/D26.png"",""materials/imgs/D34.png""]","false","random","","",""
"","","","","","html-keyboard-response","324","428879","0.0-17.0-0.4-0.32","rd0rbno9aa","","rd0rbno9aa","""2024-11-12T18:18:37.680Z""","null","+","null","","","","","","",""
"","","","","","image-keyboard-response","325","430186","0.0-17.0-0.4-1.32","rd0rbno9aa","","rd0rbno9aa","""2024-11-12T18:18:37.680Z""","1305","materials/imgs/D19.png","arrowright","","[""materials/imgs/D21.png"",""materials/imgs/D14.png""]","false","random","","",""
"","","","","","html-keyboard-response","326","430687","0.0-17.0-0.4-0.33","rd0rbno9aa","","rd0rbno9aa","""2024-11-12T18:18:37.680Z""","null","+","null","","","","","","",""
"","","","","","image-keyboard-response","327","431734","0.0-17.0-0.4-1.33","rd0rbno9aa","","rd0rbno9aa","""2024-11-12T18:18:37.680Z""","1045","materials/imgs/D74.png","arrowright","","[""materials/imgs/D78.png"",""materials/imgs/D36.png""]","false","random","","",""
"","","","","","html-keyboard-response","328","432235","0.0-17.0-0.4-0.34","rd0rbno9aa","","rd0rbno9aa","""2024-11-12T18:18:37.680Z""","null","+","null","","","","","","",""
"","","","","","image-keyboard-response","329","433892","0.0-17.0-0.4-1.34","rd0rbno9aa","","rd0rbno9aa","""2024-11-12T18:18:37.680Z""","1655","materials/imgs/D85.png","arrowright","","[""materials/imgs/D47.png"",""materials/imgs/D82.png""]","false","random","","",""
"","","","","","html-keyboard-response","330","434393","0.0-17.0-1.4-0.4","rd0rbno9aa","","rd0rbno9aa","""2024-11-12T18:18:37.680Z""","null","+","null","","","","","","",""
"","","","","","image-keyboard-response","331","434935","0.0-17.0-1.4-1.4","rd0rbno9aa","","rd0rbno9aa","""2024-11-12T18:18:37.680Z""","540","materials/imgs/D53.png","arrowright","","[""materials/imgs/D64.png"",""materials/imgs/D53.png""]","","check","materials/imgs/D53.png","1","true"
"","","","","","html-keyboard-response","332","435437","0.0-17.0-2.4-0.8","rd0rbno9aa","","rd0rbno9aa","""2024-11-12T18:18:37.680Z""","null","+","null","","","","","","",""
"","","","","","image-keyboard-response","333","436508","0.0-17.0-2.4-1.8","rd0rbno9aa","","rd0rbno9aa","""2024-11-12T18:18:37.680Z""","1070","materials/imgs/D18.png","arrowright","","[""materials/imgs/D32.png"",""materials/imgs/D57.png""]","false","validation","","",""
"","","","","","html-keyboard-response","334","437009","0.0-17.0-2.4-0.9","rd0rbno9aa","","rd0rbno9aa","""2024-11-12T18:18:37.680Z""","null","+","null","","","","","","",""
"","","","","","image-keyboard-response","335","438260","0.0-17.0-2.4-1.9","rd0rbno9aa","","rd0rbno9aa","""2024-11-12T18:18:37.680Z""","1249","materials/imgs/D1.png","arrowleft","","[""materials/imgs/D57.png"",""materials/imgs/D76.png""]","false","validation","","",""
"","","","","","html-button-response","336","439708","0.0-18.0","rd0rbno9aa","","rd0rbno9aa","""2024-11-12T18:18:37.680Z""","1447","You have completed 75% of the trials. Please click 'Continue' when you are ready proceed.","0","","","","","","",""
"","","","","","html-keyboard-response","337","440208","0.0-19.0-0.0-0.0","rd0rbno9aa","","rd0rbno9aa","""2024-11-12T18:18:37.680Z""","null","+","null","","","","","","",""
"","","","","","image-keyboard-response","338","441736","0.0-19.0-0.0-1.0","rd0rbno9aa","","rd0rbno9aa","""2024-11-12T18:18:37.680Z""","1526","materials/imgs/D102.png","arrowright","","[""materials/imgs/D24.png"",""materials/imgs/D56.png""]","false","random","","",""
"","","","","","html-keyboard-response","339","442237","0.0-19.0-0.0-0.1","rd0rbno9aa","","rd0rbno9aa","""2024-11-12T18:18:37.680Z""","null","+","null","","","","","","",""
"","","","","","image-keyboard-response","340","443355","0.0-19.0-0.0-1.1","rd0rbno9aa","","rd0rbno9aa","""2024-11-12T18:18:37.680Z""","1117","materials/imgs/D20.png","arrowleft","","[""materials/imgs/D102.png"",""materials/imgs/D14.png""]","false","random","","",""
"","","","","","html-keyboard-response","341","443856","0.0-19.0-0.0-0.2","rd0rbno9aa","","rd0rbno9aa","""2024-11-12T18:18:37.680Z""","null","+","null","","","","","","",""
"","","","","","image-keyboard-response","342","445430","0.0-19.0-0.0-1.2","rd0rbno9aa","","rd0rbno9aa","""2024-11-12T18:18:37.680Z""","1573","materials/imgs/D82.png","arrowleft","","[""materials/imgs/D106.png"",""materials/imgs/D49.png""]","false","random","","",""
"","","","","","html-keyboard-response","343","445932","0.0-19.0-0.0-0.3","rd0rbno9aa","","rd0rbno9aa","""2024-11-12T18:18:37.680Z""","null","+","null","","","","","","",""
"","","","","","image-keyboard-response","344","446896","0.0-19.0-0.0-1.3","rd0rbno9aa","","rd0rbno9aa","""2024-11-12T18:18:37.680Z""","962","materials/imgs/D81.png","arrowleft","","[""materials/imgs/D78.png"",""materials/imgs/D48.png""]","false","random","","",""
"","","","","","html-keyboard-response","345","447397","0.0-19.0-0.0-0.4","rd0rbno9aa","","rd0rbno9aa","""2024-11-12T18:18:37.680Z""","null","+","null","","","","","","",""
"","","","","","image-keyboard-response","346","448275","0.0-19.0-0.0-1.4","rd0rbno9aa","","rd0rbno9aa","""2024-11-12T18:18:37.680Z""","876","materials/imgs/D1.png","arrowleft","","[""materials/imgs/D95.png"",""materials/imgs/D79.png""]","false","random","","",""
"","","","","","html-keyboard-response","347","448776","0.0-19.0-0.0-0.5","rd0rbno9aa","","rd0rbno9aa","""2024-11-12T18:18:37.680Z""","null","+","null","","","","","","",""
"","","","","","image-keyboard-response","348","449836","0.0-19.0-0.0-1.5","rd0rbno9aa","","rd0rbno9aa","""2024-11-12T18:18:37.680Z""","1058","materials/imgs/D51.png","arrowright","","[""materials/imgs/D101.png"",""materials/imgs/D53.png""]","false","random","","",""
"","","","","","html-keyboard-response","349","450337","0.0-19.0-0.0-0.6","rd0rbno9aa","","rd0rbno9aa","""2024-11-12T18:18:37.680Z""","null","+","null","","","","","","",""
"","","","","","image-keyboard-response","350","454254","0.0-19.0-0.0-1.6","rd0rbno9aa","","rd0rbno9aa","""2024-11-12T18:18:37.680Z""","3915","materials/imgs/D14.png","arrowright","","[""materials/imgs/D4.png"",""materials/imgs/D78.png""]","false","random","","",""
"","","","","","html-keyboard-response","351","454755","0.0-19.0-1.0-0.0","rd0rbno9aa","","rd0rbno9aa","""2024-11-12T18:18:37.680Z""","null","+","null","","","","","","",""
"","","","","","image-keyboard-response","352","456406","0.0-19.0-1.0-1.0","rd0rbno9aa","","rd0rbno9aa","""2024-11-12T18:18:37.680Z""","1649","materials/imgs/D76.png","arrowleft","","[""materials/imgs/D76.png"",""materials/imgs/D78.png""]","","check","materials/imgs/D76.png","0","true"
"","","","","","html-keyboard-response","353","456907","0.0-19.0-2.0-0.0","rd0rbno9aa","","rd0rbno9aa","""2024-11-12T18:18:37.680Z""","null","+","null","","","","","","",""
"","","","","","image-keyboard-response","354","458397","0.0-19.0-2.0-1.0","rd0rbno9aa","","rd0rbno9aa","""2024-11-12T18:18:37.680Z""","1488","materials/imgs/D56.png","arrowright","","[""materials/imgs/D25.png"",""materials/imgs/D105.png""]","false","validation","","",""
"","","","","","html-keyboard-response","355","458897","0.0-19.0-2.0-0.1","rd0rbno9aa","","rd0rbno9aa","""2024-11-12T18:18:37.680Z""","null","+","null","","","","","","",""
"","","","","","image-keyboard-response","356","461432","0.0-19.0-2.0-1.1","rd0rbno9aa","","rd0rbno9aa","""2024-11-12T18:18:37.680Z""","2534","materials/imgs/D76.png","arrowright","","[""materials/imgs/D83.png"",""materials/imgs/D6.png""]","false","validation","","",""
"","","","","","html-keyboard-response","357","461934","0.0-19.0-0.1-0.7","rd0rbno9aa","","rd0rbno9aa","""2024-11-12T18:18:37.680Z""","null","+","null","","","","","","",""
"","","","","","image-keyboard-response","358","463654","0.0-19.0-0.1-1.7","rd0rbno9aa","","rd0rbno9aa","""2024-11-12T18:18:37.680Z""","1718","materials/imgs/D94.png","arrowright","","[""materials/imgs/D81.png"",""materials/imgs/D83.png""]","false","random","","",""
"","","","","","html-keyboard-response","359","464155","0.0-19.0-0.1-0.8","rd0rbno9aa","","rd0rbno9aa","""2024-11-12T18:18:37.680Z""","null","+","null","","","","","","",""
"","","","","","image-keyboard-response","360","465879","0.0-19.0-0.1-1.8","rd0rbno9aa","","rd0rbno9aa","""2024-11-12T18:18:37.680Z""","1722","materials/imgs/D65.png","arrowleft","","[""materials/imgs/D103.png"",""materials/imgs/D78.png""]","false","random","","",""
"","","","","","html-keyboard-response","361","466380","0.0-19.0-0.1-0.9","rd0rbno9aa","","rd0rbno9aa","""2024-11-12T18:18:37.680Z""","null","+","null","","","","","","",""
"","","","","","image-keyboard-response","362","468793","0.0-19.0-0.1-1.9","rd0rbno9aa","","rd0rbno9aa","""2024-11-12T18:18:37.680Z""","2412","materials/imgs/D48.png","arrowright","","[""materials/imgs/D101.png"",""materials/imgs/D34.png""]","false","random","","",""
"","","","","","html-keyboard-response","363","469295","0.0-19.0-0.1-0.10","rd0rbno9aa","","rd0rbno9aa","""2024-11-12T18:18:37.680Z""","null","+","null","","","","","","",""
"","","","","","image-keyboard-response","364","471454","0.0-19.0-0.1-1.10","rd0rbno9aa","","rd0rbno9aa","""2024-11-12T18:18:37.680Z""","2157","materials/imgs/D19.png","arrowright","","[""materials/imgs/D4.png"",""materials/imgs/D68.png""]","false","random","","",""
"","","","","","html-keyboard-response","365","471954","0.0-19.0-0.1-0.11","rd0rbno9aa","","rd0rbno9aa","""2024-11-12T18:18:37.680Z""","null","+","null","","","","","","",""
"","","","","","image-keyboard-response","366","472993","0.0-19.0-0.1-1.11","rd0rbno9aa","","rd0rbno9aa","""2024-11-12T18:18:37.680Z""","1037","materials/imgs/D21.png","arrowleft","","[""materials/imgs/D55.png"",""materials/imgs/D75.png""]","false","random","","",""
"","","","","","html-keyboard-response","367","473494","0.0-19.0-0.1-0.12","rd0rbno9aa","","rd0rbno9aa","""2024-11-12T18:18:37.680Z""","null","+","null","","","","","","",""
"","","","","","image-keyboard-response","368","474357","0.0-19.0-0.1-1.12","rd0rbno9aa","","rd0rbno9aa","""2024-11-12T18:18:37.680Z""","861","materials/imgs/D75.png","arrowright","","[""materials/imgs/D22.png"",""materials/imgs/D111.png""]","false","random","","",""
"","","","","","html-keyboard-response","369","474858","0.0-19.0-0.1-0.13","rd0rbno9aa","","rd0rbno9aa","""2024-11-12T18:18:37.680Z""","null","+","null","","","","","","",""
"","","","","","image-keyboard-response","370","475965","0.0-19.0-0.1-1.13","rd0rbno9aa","","rd0rbno9aa","""2024-11-12T18:18:37.680Z""","1105","materials/imgs/D11.png","arrowright","","[""materials/imgs/D80.png"",""materials/imgs/D76.png""]","false","random","","",""
"","","","","","html-keyboard-response","371","476466","0.0-19.0-1.1-0.1","rd0rbno9aa","","rd0rbno9aa","""2024-11-12T18:18:37.680Z""","null","+","null","","","","","","",""
"","","","","","image-keyboard-response","372","477049","0.0-19.0-1.1-1.1","rd0rbno9aa","","rd0rbno9aa","""2024-11-12T18:18:37.680Z""","581","materials/imgs/D78.png","arrowright","","[""materials/imgs/D76.png"",""materials/imgs/D78.png""]","","check","materials/imgs/D78.png","1","true"
"","","","","","html-keyboard-response","373","477550","0.0-19.0-2.1-0.2","rd0rbno9aa","","rd0rbno9aa","""2024-11-12T18:18:37.680Z""","null","+","null","","","","","","",""
"","","","","","image-keyboard-response","374","479262","0.0-19.0-2.1-1.2","rd0rbno9aa","","rd0rbno9aa","""2024-11-12T18:18:37.680Z""","1711","materials/imgs/D46.png","arrowleft","","[""materials/imgs/D92.png"",""materials/imgs/D77.png""]","false","validation","","",""
"","","","","","html-keyboard-response","375","479763","0.0-19.0-2.1-0.3","rd0rbno9aa","","rd0rbno9aa","""2024-11-12T18:18:37.680Z""","null","+","null","","","","","","",""
"","","","","","image-keyboard-response","376","481256","0.0-19.0-2.1-1.3","rd0rbno9aa","","rd0rbno9aa","""2024-11-12T18:18:37.680Z""","1491","materials/imgs/D46.png","arrowleft","","[""materials/imgs/D92.png"",""materials/imgs/D77.png""]","false","validation","","",""
"","","","","","html-keyboard-response","377","481758","0.0-19.0-0.2-0.14","rd0rbno9aa","","rd0rbno9aa","""2024-11-12T18:18:37.680Z""","null","+","null","","","","","","",""
"","","","","","image-keyboard-response","378","483332","0.0-19.0-0.2-1.14","rd0rbno9aa","","rd0rbno9aa","""2024-11-12T18:18:37.680Z""","1572","materials/imgs/D3.png","arrowleft","","[""materials/imgs/D81.png"",""materials/imgs/D57.png""]","false","random","","",""
"","","","","","html-keyboard-response","379","483834","0.0-19.0-0.2-0.15","rd0rbno9aa","","rd0rbno9aa","""2024-11-12T18:18:37.680Z""","null","+","null","","","","","","",""
"","","","","","image-keyboard-response","380","485237","0.0-19.0-0.2-1.15","rd0rbno9aa","","rd0rbno9aa","""2024-11-12T18:18:37.680Z""","1402","materials/imgs/D19.png","arrowright","","[""materials/imgs/D74.png"",""materials/imgs/D9.png""]","false","random","","",""
"","","","","","html-keyboard-response","381","485739","0.0-19.0-0.2-0.16","rd0rbno9aa","","rd0rbno9aa","""2024-11-12T18:18:37.680Z""","null","+","null","","","","","","",""
"","","","","","image-keyboard-response","382","488285","0.0-19.0-0.2-1.16","rd0rbno9aa","","rd0rbno9aa","""2024-11-12T18:18:37.680Z""","2545","materials/imgs/D35.png","arrowleft","","[""materials/imgs/D82.png"",""materials/imgs/D105.png""]","false","random","","",""
"","","","","","html-keyboard-response","383","488787","0.0-19.0-0.2-0.17","rd0rbno9aa","","rd0rbno9aa","""2024-11-12T18:18:37.680Z""","null","+","null","","","","","","",""
"","","","","","image-keyboard-response","384","490162","0.0-19.0-0.2-1.17","rd0rbno9aa","","rd0rbno9aa","""2024-11-12T18:18:37.680Z""","1374","materials/imgs/D78.png","arrowleft","","[""materials/imgs/D24.png"",""materials/imgs/D57.png""]","false","random","","",""
"","","","","","html-keyboard-response","385","490664","0.0-19.0-0.2-0.18","rd0rbno9aa","","rd0rbno9aa","""2024-11-12T18:18:37.680Z""","null","+","null","","","","","","",""
"","","","","","image-keyboard-response","386","491856","0.0-19.0-0.2-1.18","rd0rbno9aa","","rd0rbno9aa","""2024-11-12T18:18:37.680Z""","1190","materials/imgs/D36.png","arrowleft","","[""materials/imgs/D17.png"",""materials/imgs/D9.png""]","false","random","","",""
"","","","","","html-keyboard-response","387","492357","0.0-19.0-0.2-0.19","rd0rbno9aa","","rd0rbno9aa","""2024-11-12T18:18:37.680Z""","null","+","null","","","","","","",""
"","","","","","image-keyboard-response","388","493827","0.0-19.0-0.2-1.19","rd0rbno9aa","","rd0rbno9aa","""2024-11-12T18:18:37.680Z""","1469","materials/imgs/D106.png","arrowright","","[""materials/imgs/D1.png"",""materials/imgs/D21.png""]","false","random","","",""
"","","","","","html-keyboard-response","389","494328","0.0-19.0-0.2-0.20","rd0rbno9aa","","rd0rbno9aa","""2024-11-12T18:18:37.680Z""","null","+","null","","","","","","",""
"","","","","","image-keyboard-response","390","495893","0.0-19.0-0.2-1.20","rd0rbno9aa","","rd0rbno9aa","""2024-11-12T18:18:37.680Z""","1562","materials/imgs/D48.png","arrowright","","[""materials/imgs/D11.png"",""materials/imgs/D75.png""]","false","random","","",""
"","","","","","html-keyboard-response","391","496394","0.0-19.0-1.2-0.2","rd0rbno9aa","","rd0rbno9aa","""2024-11-12T18:18:37.680Z""","null","+","null","","","","","","",""
"","","","","","image-keyboard-response","392","497115","0.0-19.0-1.2-1.2","rd0rbno9aa","","rd0rbno9aa","""2024-11-12T18:18:37.680Z""","720","materials/imgs/D101.png","arrowright","","[""materials/imgs/D106.png"",""materials/imgs/D101.png""]","","check","materials/imgs/D101.png","1","true"
"","","","","","html-keyboard-response","393","497617","0.0-19.0-2.2-0.4","rd0rbno9aa","","rd0rbno9aa","""2024-11-12T18:18:37.680Z""","null","+","null","","","","","","",""
"","","","","","image-keyboard-response","394","498904","0.0-19.0-2.2-1.4","rd0rbno9aa","","rd0rbno9aa","""2024-11-12T18:18:37.680Z""","1285","materials/imgs/D96.png","arrowleft","","[""materials/imgs/D46.png"",""materials/imgs/D18.png""]","false","validation","","",""
"","","","","","html-keyboard-response","395","499405","0.0-19.0-2.2-0.5","rd0rbno9aa","","rd0rbno9aa","""2024-11-12T18:18:37.680Z""","null","+","null","","","","","","",""
"","","","","","image-keyboard-response","396","500825","0.0-19.0-2.2-1.5","rd0rbno9aa","","rd0rbno9aa","""2024-11-12T18:18:37.680Z""","1418","materials/imgs/D76.png","arrowleft","","[""materials/imgs/D83.png"",""materials/imgs/D6.png""]","false","validation","","",""
"","","","","","html-keyboard-response","397","501326","0.0-19.0-0.3-0.21","rd0rbno9aa","","rd0rbno9aa","""2024-11-12T18:18:37.680Z""","null","+","null","","","","","","",""
"","","","","","image-keyboard-response","398","502672","0.0-19.0-0.3-1.21","rd0rbno9aa","","rd0rbno9aa","""2024-11-12T18:18:37.680Z""","1345","materials/imgs/D77.png","arrowleft","","[""materials/imgs/D81.png"",""materials/imgs/D26.png""]","false","random","","",""
"","","","","","html-keyboard-response","399","503174","0.0-19.0-0.3-0.22","rd0rbno9aa","","rd0rbno9aa","""2024-11-12T18:18:37.680Z""","null","+","null","","","","","","",""
"","","","","","image-keyboard-response","400","504906","0.0-19.0-0.3-1.22","rd0rbno9aa","","rd0rbno9aa","""2024-11-12T18:18:37.680Z""","1730","materials/imgs/D66.png","arrowleft","","[""materials/imgs/D65.png"",""materials/imgs/D78.png""]","false","random","","",""
"","","","","","html-keyboard-response","401","505408","0.0-19.0-0.3-0.23","rd0rbno9aa","","rd0rbno9aa","""2024-11-12T18:18:37.680Z""","null","+","null","","","","","","",""
"","","","","","image-keyboard-response","402","508035","0.0-19.0-0.3-1.23","rd0rbno9aa","","rd0rbno9aa","""2024-11-12T18:18:37.680Z""","2625","materials/imgs/D55.png","arrowright","","[""materials/imgs/D26.png"",""materials/imgs/D83.png""]","false","random","","",""
"","","","","","html-keyboard-response","403","508536","0.0-19.0-0.3-0.24","rd0rbno9aa","","rd0rbno9aa","""2024-11-12T18:18:37.680Z""","null","+","null","","","","","","",""
"","","","","","image-keyboard-response","404","509839","0.0-19.0-0.3-1.24","rd0rbno9aa","","rd0rbno9aa","""2024-11-12T18:18:37.680Z""","1301","materials/imgs/D64.png","arrowright","","[""materials/imgs/D74.png"",""materials/imgs/D6.png""]","false","random","","",""
"","","","","","html-keyboard-response","405","510340","0.0-19.0-0.3-0.25","rd0rbno9aa","","rd0rbno9aa","""2024-11-12T18:18:37.680Z""","null","+","null","","","","","","",""
"","","","","","image-keyboard-response","406","511523","0.0-19.0-0.3-1.25","rd0rbno9aa","","rd0rbno9aa","""2024-11-12T18:18:37.680Z""","1181","materials/imgs/D68.png","arrowright","","[""materials/imgs/D65.png"",""materials/imgs/D20.png""]","false","random","","",""
"","","","","","html-keyboard-response","407","512024","0.0-19.0-0.3-0.26","rd0rbno9aa","","rd0rbno9aa","""2024-11-12T18:18:37.680Z""","null","+","null","","","","","","",""
"","","","","","image-keyboard-response","408","513166","0.0-19.0-0.3-1.26","rd0rbno9aa","","rd0rbno9aa","""2024-11-12T18:18:37.680Z""","1140","materials/imgs/D8.png","arrowright","","[""materials/imgs/D51.png"",""materials/imgs/D9.png""]","false","random","","",""
"","","","","","html-keyboard-response","409","513667","0.0-19.0-0.3-0.27","rd0rbno9aa","","rd0rbno9aa","""2024-11-12T18:18:37.680Z""","null","+","null","","","","","","",""
"","","","","","image-keyboard-response","410","514730","0.0-19.0-0.3-1.27","rd0rbno9aa","","rd0rbno9aa","""2024-11-12T18:18:37.680Z""","1061","materials/imgs/D9.png","arrowright","","[""materials/imgs/D1.png"",""materials/imgs/D16.png""]","false","random","","",""
"","","","","","html-keyboard-response","411","515231","0.0-19.0-1.3-0.3","rd0rbno9aa","","rd0rbno9aa","""2024-11-12T18:18:37.680Z""","null","+","null","","","","","","",""
"","","","","","image-keyboard-response","412","515767","0.0-19.0-1.3-1.3","rd0rbno9aa","","rd0rbno9aa","""2024-11-12T18:18:37.680Z""","535","materials/imgs/D46.png","arrowleft","","[""materials/imgs/D46.png"",""materials/imgs/D26.png""]","","check","materials/imgs/D46.png","0","true"
"","","","","","html-keyboard-response","413","516269","0.0-19.0-2.3-0.6","rd0rbno9aa","","rd0rbno9aa","""2024-11-12T18:18:37.680Z""","null","+","null","","","","","","",""
"","","","","","image-keyboard-response","414","517412","0.0-19.0-2.3-1.6","rd0rbno9aa","","rd0rbno9aa","""2024-11-12T18:18:37.680Z""","1142","materials/imgs/D37.png","arrowright","","[""materials/imgs/D84.png"",""materials/imgs/D111.png""]","false","validation","","",""
"","","","","","html-keyboard-response","415","517913","0.0-19.0-2.3-0.7","rd0rbno9aa","","rd0rbno9aa","""2024-11-12T18:18:37.680Z""","null","+","null","","","","","","",""
"","","","","","image-keyboard-response","416","521238","0.0-19.0-2.3-1.7","rd0rbno9aa","","rd0rbno9aa","""2024-11-12T18:18:37.680Z""","3319","materials/imgs/D26.png","arrowleft","","[""materials/imgs/D36.png"",""materials/imgs/D92.png""]","false","validation","","",""
"","","","","","html-keyboard-response","417","521739","0.0-19.0-0.4-0.28","rd0rbno9aa","","rd0rbno9aa","""2024-11-12T18:18:37.680Z""","null","+","null","","","","","","",""
"","","","","","image-keyboard-response","418","523050","0.0-19.0-0.4-1.28","rd0rbno9aa","","rd0rbno9aa","""2024-11-12T18:18:37.680Z""","1309","materials/imgs/D9.png","arrowleft","","[""materials/imgs/D36.png"",""materials/imgs/D68.png""]","false","random","","",""
"","","","","","html-keyboard-response","419","523552","0.0-19.0-0.4-0.29","rd0rbno9aa","","rd0rbno9aa","""2024-11-12T18:18:37.680Z""","null","+","null","","","","","","",""
"","","","","","image-keyboard-response","420","524248","0.0-19.0-0.4-1.29","rd0rbno9aa","","rd0rbno9aa","""2024-11-12T18:18:37.680Z""","694","materials/imgs/D48.png","arrowleft","","[""materials/imgs/D101.png"",""materials/imgs/D84.png""]","false","random","","",""
"","","","","","html-keyboard-response","421","524749","0.0-19.0-0.4-0.30","rd0rbno9aa","","rd0rbno9aa","""2024-11-12T18:18:37.680Z""","null","+","null","","","","","","",""
"","","","","","image-keyboard-response","422","526005","0.0-19.0-0.4-1.30","rd0rbno9aa","","rd0rbno9aa","""2024-11-12T18:18:37.680Z""","1256","materials/imgs/D94.png","arrowright","","[""materials/imgs/D19.png"",""materials/imgs/D64.png""]","false","random","","",""
"","","","","","html-keyboard-response","423","526507","0.0-19.0-0.4-0.31","rd0rbno9aa","","rd0rbno9aa","""2024-11-12T18:18:37.680Z""","null","+","null","","","","","","",""
"","","","","","image-keyboard-response","424","528688","0.0-19.0-0.4-1.31","rd0rbno9aa","","rd0rbno9aa","""2024-11-12T18:18:37.680Z""","2180","materials/imgs/D19.png","arrowleft","","[""materials/imgs/D17.png"",""materials/imgs/D95.png""]","false","random","","",""
"","","","","","html-keyboard-response","425","529189","0.0-19.0-0.4-0.32","rd0rbno9aa","","rd0rbno9aa","""2024-11-12T18:18:37.680Z""","null","+","null","","","","","","",""
"","","","","","image-keyboard-response","426","531156","0.0-19.0-0.4-1.32","rd0rbno9aa","","rd0rbno9aa","""2024-11-12T18:18:37.680Z""","1965","materials/imgs/D81.png","arrowright","","[""materials/imgs/D102.png"",""materials/imgs/D66.png""]","false","random","","",""
"","","","","","html-keyboard-response","427","531657","0.0-19.0-0.4-0.33","rd0rbno9aa","","rd0rbno9aa","""2024-11-12T18:18:37.680Z""","null","+","null","","","","","","",""
"","","","","","image-keyboard-response","428","534889","0.0-19.0-0.4-1.33","rd0rbno9aa","","rd0rbno9aa","""2024-11-12T18:18:37.680Z""","3231","materials/imgs/D18.png","arrowright","","[""materials/imgs/D26.png"",""materials/imgs/D96.png""]","false","random","","",""
"","","","","","html-keyboard-response","429","535390","0.0-19.0-0.4-0.34","rd0rbno9aa","","rd0rbno9aa","""2024-11-12T18:18:37.680Z""","null","+","null","","","","","","",""
"","","","","","image-keyboard-response","430","536359","0.0-19.0-0.4-1.34","rd0rbno9aa","","rd0rbno9aa","""2024-11-12T18:18:37.680Z""","967","materials/imgs/D83.png","arrowright","","[""materials/imgs/D6.png"",""materials/imgs/D78.png""]","false","random","","",""
"","","","","","html-keyboard-response","431","536860","0.0-19.0-1.4-0.4","rd0rbno9aa","","rd0rbno9aa","""2024-11-12T18:18:37.680Z""","null","+","null","","","","","","",""
"","","","","","image-keyboard-response","432","537426","0.0-19.0-1.4-1.4","rd0rbno9aa","","rd0rbno9aa","""2024-11-12T18:18:37.680Z""","564","materials/imgs/D101.png","arrowright","","[""materials/imgs/D106.png"",""materials/imgs/D101.png""]","","check","materials/imgs/D101.png","1","true"
"","","","","","html-keyboard-response","433","537928","0.0-19.0-2.4-0.8","rd0rbno9aa","","rd0rbno9aa","""2024-11-12T18:18:37.680Z""","null","+","null","","","","","","",""
"","","","","","image-keyboard-response","434","539001","0.0-19.0-2.4-1.8","rd0rbno9aa","","rd0rbno9aa","""2024-11-12T18:18:37.680Z""","1072","materials/imgs/D3.png","arrowright","","[""materials/imgs/D79.png"",""materials/imgs/D48.png""]","false","validation","","",""
"","","","","","html-keyboard-response","435","539502","0.0-19.0-2.4-0.9","rd0rbno9aa","","rd0rbno9aa","""2024-11-12T18:18:37.680Z""","null","+","null","","","","","","",""
"","","","","","image-keyboard-response","436","541152","0.0-19.0-2.4-1.9","rd0rbno9aa","","rd0rbno9aa","""2024-11-12T18:18:37.680Z""","1648","materials/imgs/D22.png","arrowleft","","[""materials/imgs/D4.png"",""materials/imgs/D25.png""]","false","validation","","",""
