"success","timeout","failed_images","failed_audio","failed_video","trial_type","trial_index","time_elapsed","internal_node_id","subject_id","sona_id","subjectID","dateInfo","rt","stimulus","response","question_order","choices","speedy","sampleAlg","selected_image","selected_index","correct"
"true","false","[]","[]","[]","preload","0","393","0.0-0.0","rfnkm5w9v2","","rfnkm5w9v2","""2024-11-12T18:53:10.519Z""","","","","","","","","","",""
"true","","","","","fullscreen","1","8625","0.0-1.0","rfnkm5w9v2","","rfnkm5w9v2","""2024-11-12T18:53:10.519Z""","","","","","","","","","",""
"","","","","","html-keyboard-response","2","8639","0.0-2.0","rfnkm5w9v2","","rfnkm5w9v2","""2024-11-12T18:53:10.519Z""","null","","null","","","","","","",""
"","","","","","html-button-response","3","61376","0.0-3.0","rfnkm5w9v2","","rfnkm5w9v2","""2024-11-12T18:53:10.519Z""","52733","<div style='text-align:center; font-size:20px; line-height:25px; width: 1200px;'>
                Welcome to our experiment! <br>
                <br>At the bottom of this screen, you will see a button that says 'Begin Experiment.
                <br>Please only click that button when you are ready to complete the 25 minute experiment in one sitting. <br>
                <br> Once you click that button, it will not be possible to restart the experiment. <br><br>","0","","","","","","",""
"true","","","","","fullscreen","4","63611","0.0-4.0","rfnkm5w9v2","","rfnkm5w9v2","""2024-11-12T18:53:10.519Z""","","","","","","","","","",""
"","","","","","survey-multi-select","5","77178","0.0-5.0","rfnkm5w9v2","","rfnkm5w9v2","""2024-11-12T18:53:10.519Z""","13562","","{""Consent"":[""<strong>I consent</strong>""]}","[0]","","","","","",""
"","","","","","html-button-response","6","78427","0.0-6.0","rfnkm5w9v2","","rfnkm5w9v2","""2024-11-12T18:53:10.519Z""","1243","Welcome! <p> This experiment involves two parts: demographic information, followed by the experimental task.<p> It will take about 25 minutes to complete both parts.","0","","","","","","",""
"","","","","","survey-text","7","87012","0.0-7.0","rfnkm5w9v2","","rfnkm5w9v2","""2024-11-12T18:53:10.519Z""","8581","","{""Age"":""19"",""Gender"":""female"",""Race/ethnicity"":""asian""}","","","","","","",""
"","","","","","html-button-response","8","100278","0.0-8.0","rfnkm5w9v2","","rfnkm5w9v2","""2024-11-12T18:53:10.519Z""","13264","<div style='text-align: center;'>
      <p>In each trial of this task, you will see three texture images: one target item on top, and two choices beneath the target item.</p>
      <p><strong>Please select the item that is most like the target item.</strong></p>
      <p>To select the option on the <strong>LEFT</strong>, press the <strong>LEFT ARROW</strong> key. 
      To select the option on the <strong>RIGHT</strong>, press the <strong>RIGHT ARROW</strong> key.</p>
                  <!-- Target Image at the Top -->
      <div style='margin: 20px;'>
        <img src='materials/imgs/instruction_images/InstructionImg1D78.png' alt='Target Image' style='width:200px; height:auto;' />
        <p><em>Target Image</em></p>
      </div>

      <!-- Two Choice Images Below -->
      <div style='display: flex; justify-content: center;'>
        <div style='margin-right: 50px;'>
          <img src='materials/imgs/instruction_images/InstructionImg2D34.png' alt='Choice Image 1' style='width:150px; height:auto;' />
          <p><em><strong>LEFT ARROW</strong></em></p>
        </div>
        <div style='margin-left: 50px;'>
          <img src='materials/imgs/instruction_images/InstructionImg3D80.png' alt='Choice Image 2' style='width:150px; height:auto;' />
          <p><em><strong>RIGHT ARROW</strong></em></p>
        </div>
      </div>
    </div>

      <p>When you are ready to proceed, please click 'Continue' to begin practice.</p>","0","","","","","","",""
"","","","","","html-keyboard-response","9","102783","0.0-9.0","rfnkm5w9v2","","rfnkm5w9v2","""2024-11-12T18:53:10.519Z""","null","+","null","","","","","","",""
"","","","","","html-keyboard-response","10","103285","0.0-10.0-0.0-0.0","rfnkm5w9v2","","rfnkm5w9v2","""2024-11-12T18:53:10.519Z""","null","+","null","","","","","","",""
"","","","","","image-keyboard-response","11","107728","0.0-10.0-0.0-1.0","rfnkm5w9v2","","rfnkm5w9v2","""2024-11-12T18:53:10.519Z""","4436","materials/imgs/D74.png","arrowleft","","[""materials/imgs/D66.png"",""materials/imgs/D102.png""]","false","random","","",""
"","","","","","html-keyboard-response","12","108230","0.0-10.0-0.0-0.1","rfnkm5w9v2","","rfnkm5w9v2","""2024-11-12T18:53:10.519Z""","null","+","null","","","","","","",""
"","","","","","image-keyboard-response","13","111157","0.0-10.0-0.0-1.1","rfnkm5w9v2","","rfnkm5w9v2","""2024-11-12T18:53:10.519Z""","2925","materials/imgs/D57.png","arrowright","","[""materials/imgs/D25.png"",""materials/imgs/D85.png""]","false","random","","",""
"","","","","","html-keyboard-response","14","111659","0.0-10.0-0.0-0.2","rfnkm5w9v2","","rfnkm5w9v2","""2024-11-12T18:53:10.519Z""","null","+","null","","","","","","",""
"","","","","","image-keyboard-response","15","114127","0.0-10.0-0.0-1.2","rfnkm5w9v2","","rfnkm5w9v2","""2024-11-12T18:53:10.519Z""","2467","materials/imgs/D11.png","arrowright","","[""materials/imgs/D56.png"",""materials/imgs/D76.png""]","false","random","","",""
"","","","","","html-keyboard-response","16","114628","0.0-10.0-0.0-0.3","rfnkm5w9v2","","rfnkm5w9v2","""2024-11-12T18:53:10.519Z""","null","+","null","","","","","","",""
"","","","","","image-keyboard-response","17","118105","0.0-10.0-0.0-1.3","rfnkm5w9v2","","rfnkm5w9v2","""2024-11-12T18:53:10.519Z""","3474","materials/imgs/D4.png","arrowright","","[""materials/imgs/D74.png"",""materials/imgs/D76.png""]","false","random","","",""
"","","","","","html-keyboard-response","18","118607","0.0-10.0-0.0-0.4","rfnkm5w9v2","","rfnkm5w9v2","""2024-11-12T18:53:10.519Z""","null","+","null","","","","","","",""
"","","","","","image-keyboard-response","19","120564","0.0-10.0-0.0-1.4","rfnkm5w9v2","","rfnkm5w9v2","""2024-11-12T18:53:10.519Z""","1955","materials/imgs/D18.png","arrowright","","[""materials/imgs/D68.png"",""materials/imgs/D20.png""]","false","random","","",""
"","","","","","html-keyboard-response","20","121066","0.0-10.0-0.0-0.5","rfnkm5w9v2","","rfnkm5w9v2","""2024-11-12T18:53:10.519Z""","null","+","null","","","","","","",""
"","","","","","image-keyboard-response","21","127516","0.0-10.0-0.0-1.5","rfnkm5w9v2","","rfnkm5w9v2","""2024-11-12T18:53:10.519Z""","6448","materials/imgs/D101.png","arrowright","","[""materials/imgs/D3.png"",""materials/imgs/D35.png""]","false","random","","",""
"","","","","","html-keyboard-response","22","128017","0.0-10.0-0.0-0.6","rfnkm5w9v2","","rfnkm5w9v2","""2024-11-12T18:53:10.519Z""","null","+","null","","","","","","",""
"","","","","","image-keyboard-response","23","135323","0.0-10.0-0.0-1.6","rfnkm5w9v2","","rfnkm5w9v2","""2024-11-12T18:53:10.519Z""","7304","materials/imgs/D25.png","arrowright","","[""materials/imgs/D111.png"",""materials/imgs/D57.png""]","false","random","","",""
"","","","","","html-keyboard-response","24","135825","0.0-10.0-0.0-0.7","rfnkm5w9v2","","rfnkm5w9v2","""2024-11-12T18:53:10.519Z""","null","+","null","","","","","","",""
"","","","","","image-keyboard-response","25","138034","0.0-10.0-0.0-1.7","rfnkm5w9v2","","rfnkm5w9v2","""2024-11-12T18:53:10.519Z""","2206","materials/imgs/D48.png","arrowleft","","[""materials/imgs/D19.png"",""materials/imgs/D4.png""]","false","random","","",""
"","","","","","html-keyboard-response","26","138535","0.0-10.0-0.0-0.8","rfnkm5w9v2","","rfnkm5w9v2","""2024-11-12T18:53:10.519Z""","null","+","null","","","","","","",""
"","","","","","image-keyboard-response","27","140613","0.0-10.0-0.0-1.8","rfnkm5w9v2","","rfnkm5w9v2","""2024-11-12T18:53:10.519Z""","2075","materials/imgs/D84.png","arrowleft","","[""materials/imgs/D87.png"",""materials/imgs/D17.png""]","false","random","","",""
"","","","","","html-keyboard-response","28","141114","0.0-10.0-0.0-0.9","rfnkm5w9v2","","rfnkm5w9v2","""2024-11-12T18:53:10.519Z""","null","+","null","","","","","","",""
"","","","","","image-keyboard-response","29","144527","0.0-10.0-0.0-1.9","rfnkm5w9v2","","rfnkm5w9v2","""2024-11-12T18:53:10.519Z""","3410","materials/imgs/D51.png","arrowleft","","[""materials/imgs/D36.png"",""materials/imgs/D75.png""]","false","random","","",""
"","","","","","html-button-response","30","146598","0.0-11.0","rfnkm5w9v2","","rfnkm5w9v2","""2024-11-12T18:53:10.519Z""","2069","<p>Great job!</p>
      <p>You are now ready to begin the experiment.</p>
      <p>There will be around 200 trials. You will have opportunities to take breaks at three stages of the trials.</p>
      <p>When you are ready to begin please click 'Continue'.</p>","0","","","","","","",""
"","","","","","html-keyboard-response","31","149102","0.0-12.0","rfnkm5w9v2","","rfnkm5w9v2","""2024-11-12T18:53:10.519Z""","null","+","null","","","","","","",""
"","","","","","html-keyboard-response","32","149603","0.0-13.0-0.0-0.0","rfnkm5w9v2","","rfnkm5w9v2","""2024-11-12T18:53:10.519Z""","null","+","null","","","","","","",""
"","","","","","image-keyboard-response","33","153042","0.0-13.0-0.0-1.0","rfnkm5w9v2","","rfnkm5w9v2","""2024-11-12T18:53:10.519Z""","3437","materials/imgs/D4.png","arrowleft","","[""materials/imgs/D53.png"",""materials/imgs/D56.png""]","false","random","","",""
"","","","","","html-keyboard-response","34","153543","0.0-13.0-0.0-0.1","rfnkm5w9v2","","rfnkm5w9v2","""2024-11-12T18:53:10.519Z""","null","+","null","","","","","","",""
"","","","","","image-keyboard-response","35","158605","0.0-13.0-0.0-1.1","rfnkm5w9v2","","rfnkm5w9v2","""2024-11-12T18:53:10.519Z""","5060","materials/imgs/D1.png","arrowleft","","[""materials/imgs/D35.png"",""materials/imgs/D22.png""]","false","random","","",""
"","","","","","html-keyboard-response","36","159106","0.0-13.0-0.0-0.2","rfnkm5w9v2","","rfnkm5w9v2","""2024-11-12T18:53:10.519Z""","null","+","null","","","","","","",""
"","","","","","image-keyboard-response","37","162308","0.0-13.0-0.0-1.2","rfnkm5w9v2","","rfnkm5w9v2","""2024-11-12T18:53:10.519Z""","3199","materials/imgs/D94.png","arrowright","","[""materials/imgs/D76.png"",""materials/imgs/D20.png""]","false","random","","",""
"","","","","","html-keyboard-response","38","162809","0.0-13.0-0.0-0.3","rfnkm5w9v2","","rfnkm5w9v2","""2024-11-12T18:53:10.519Z""","null","+","null","","","","","","",""
"","","","","","image-keyboard-response","39","167089","0.0-13.0-0.0-1.3","rfnkm5w9v2","","rfnkm5w9v2","""2024-11-12T18:53:10.519Z""","4277","materials/imgs/D18.png","arrowright","","[""materials/imgs/D14.png"",""materials/imgs/D52.png""]","false","random","","",""
"","","","","","html-keyboard-response","40","167591","0.0-13.0-0.0-0.4","rfnkm5w9v2","","rfnkm5w9v2","""2024-11-12T18:53:10.519Z""","null","+","null","","","","","","",""
"","","","","","image-keyboard-response","41","171676","0.0-13.0-0.0-1.4","rfnkm5w9v2","","rfnkm5w9v2","""2024-11-12T18:53:10.519Z""","4082","materials/imgs/D19.png","arrowright","","[""materials/imgs/D95.png"",""materials/imgs/D52.png""]","false","random","","",""
"","","","","","html-keyboard-response","42","172177","0.0-13.0-0.0-0.5","rfnkm5w9v2","","rfnkm5w9v2","""2024-11-12T18:53:10.519Z""","null","+","null","","","","","","",""
"","","","","","image-keyboard-response","43","173394","0.0-13.0-0.0-1.5","rfnkm5w9v2","","rfnkm5w9v2","""2024-11-12T18:53:10.519Z""","1214","materials/imgs/D68.png","arrowleft","","[""materials/imgs/D79.png"",""materials/imgs/D65.png""]","false","random","","",""
"","","","","","html-keyboard-response","44","173895","0.0-13.0-0.0-0.6","rfnkm5w9v2","","rfnkm5w9v2","""2024-11-12T18:53:10.519Z""","null","+","null","","","","","","",""
"","","","","","image-keyboard-response","45","175204","0.0-13.0-0.0-1.6","rfnkm5w9v2","","rfnkm5w9v2","""2024-11-12T18:53:10.519Z""","1306","materials/imgs/D80.png","arrowright","","[""materials/imgs/D21.png"",""materials/imgs/D65.png""]","false","random","","",""
"","","","","","html-keyboard-response","46","175705","0.0-13.0-1.0-0.0","rfnkm5w9v2","","rfnkm5w9v2","""2024-11-12T18:53:10.519Z""","null","+","null","","","","","","",""
"","","","","","image-keyboard-response","47","177495","0.0-13.0-1.0-1.0","rfnkm5w9v2","","rfnkm5w9v2","""2024-11-12T18:53:10.519Z""","1787","materials/imgs/D101.png","arrowright","","[""materials/imgs/D106.png"",""materials/imgs/D101.png""]","","check","materials/imgs/D101.png","1","true"
"","","","","","html-keyboard-response","48","177997","0.0-13.0-2.0-0.0","rfnkm5w9v2","","rfnkm5w9v2","""2024-11-12T18:53:10.519Z""","null","+","null","","","","","","",""
"","","","","","image-keyboard-response","49","181694","0.0-13.0-2.0-1.0","rfnkm5w9v2","","rfnkm5w9v2","""2024-11-12T18:53:10.519Z""","3695","materials/imgs/D16.png","arrowleft","","[""materials/imgs/D52.png"",""materials/imgs/D25.png""]","false","validation","","",""
"","","","","","html-keyboard-response","50","182196","0.0-13.0-2.0-0.1","rfnkm5w9v2","","rfnkm5w9v2","""2024-11-12T18:53:10.519Z""","null","+","null","","","","","","",""
"","","","","","image-keyboard-response","51","183864","0.0-13.0-2.0-1.1","rfnkm5w9v2","","rfnkm5w9v2","""2024-11-12T18:53:10.519Z""","1665","materials/imgs/D46.png","arrowleft","","[""materials/imgs/D92.png"",""materials/imgs/D77.png""]","false","validation","","",""
"","","","","","html-keyboard-response","52","184365","0.0-13.0-0.1-0.7","rfnkm5w9v2","","rfnkm5w9v2","""2024-11-12T18:53:10.519Z""","null","+","null","","","","","","",""
"","","","","","image-keyboard-response","53","187572","0.0-13.0-0.1-1.7","rfnkm5w9v2","","rfnkm5w9v2","""2024-11-12T18:53:10.519Z""","3205","materials/imgs/D3.png","arrowright","","[""materials/imgs/D56.png"",""materials/imgs/D4.png""]","false","random","","",""
"","","","","","html-keyboard-response","54","188074","0.0-13.0-0.1-0.8","rfnkm5w9v2","","rfnkm5w9v2","""2024-11-12T18:53:10.519Z""","null","+","null","","","","","","",""
"","","","","","image-keyboard-response","55","189657","0.0-13.0-0.1-1.8","rfnkm5w9v2","","rfnkm5w9v2","""2024-11-12T18:53:10.519Z""","1581","materials/imgs/D84.png","arrowright","","[""materials/imgs/D105.png"",""materials/imgs/D16.png""]","false","random","","",""
"","","","","","html-keyboard-response","56","190159","0.0-13.0-0.1-0.9","rfnkm5w9v2","","rfnkm5w9v2","""2024-11-12T18:53:10.519Z""","null","+","null","","","","","","",""
"","","","","","image-keyboard-response","57","194486","0.0-13.0-0.1-1.9","rfnkm5w9v2","","rfnkm5w9v2","""2024-11-12T18:53:10.519Z""","4324","materials/imgs/D11.png","arrowleft","","[""materials/imgs/D96.png"",""materials/imgs/D57.png""]","false","random","","",""
"","","","","","html-keyboard-response","58","194988","0.0-13.0-0.1-0.10","rfnkm5w9v2","","rfnkm5w9v2","""2024-11-12T18:53:10.519Z""","null","+","null","","","","","","",""
"","","","","","image-keyboard-response","59","197101","0.0-13.0-0.1-1.10","rfnkm5w9v2","","rfnkm5w9v2","""2024-11-12T18:53:10.519Z""","2111","materials/imgs/D17.png","arrowright","","[""materials/imgs/D95.png"",""materials/imgs/D29.png""]","false","random","","",""
"","","","","","html-keyboard-response","60","197602","0.0-13.0-0.1-0.11","rfnkm5w9v2","","rfnkm5w9v2","""2024-11-12T18:53:10.519Z""","null","+","null","","","","","","",""
"","","","","","image-keyboard-response","61","198619","0.0-13.0-0.1-1.11","rfnkm5w9v2","","rfnkm5w9v2","""2024-11-12T18:53:10.519Z""","1015","materials/imgs/D106.png","arrowright","","[""materials/imgs/D77.png"",""materials/imgs/D85.png""]","false","random","","",""
"","","","","","html-keyboard-response","62","199121","0.0-13.0-0.1-0.12","rfnkm5w9v2","","rfnkm5w9v2","""2024-11-12T18:53:10.519Z""","null","+","null","","","","","","",""
"","","","","","image-keyboard-response","63","200609","0.0-13.0-0.1-1.12","rfnkm5w9v2","","rfnkm5w9v2","""2024-11-12T18:53:10.519Z""","1486","materials/imgs/D65.png","arrowleft","","[""materials/imgs/D95.png"",""materials/imgs/D11.png""]","false","random","","",""
"","","","","","html-keyboard-response","64","201110","0.0-13.0-0.1-0.13","rfnkm5w9v2","","rfnkm5w9v2","""2024-11-12T18:53:10.519Z""","null","+","null","","","","","","",""
"","","","","","image-keyboard-response","65","203320","0.0-13.0-0.1-1.13","rfnkm5w9v2","","rfnkm5w9v2","""2024-11-12T18:53:10.519Z""","2207","materials/imgs/D49.png","arrowright","","[""materials/imgs/D81.png"",""materials/imgs/D94.png""]","false","random","","",""
"","","","","","html-keyboard-response","66","203822","0.0-13.0-1.1-0.1","rfnkm5w9v2","","rfnkm5w9v2","""2024-11-12T18:53:10.519Z""","null","+","null","","","","","","",""
"","","","","","image-keyboard-response","67","204586","0.0-13.0-1.1-1.1","rfnkm5w9v2","","rfnkm5w9v2","""2024-11-12T18:53:10.519Z""","762","materials/imgs/D101.png","arrowright","","[""materials/imgs/D106.png"",""materials/imgs/D101.png""]","","check","materials/imgs/D101.png","1","true"
"","","","","","html-keyboard-response","68","205088","0.0-13.0-2.1-0.2","rfnkm5w9v2","","rfnkm5w9v2","""2024-11-12T18:53:10.519Z""","null","+","null","","","","","","",""
"","","","","","image-keyboard-response","69","211178","0.0-13.0-2.1-1.2","rfnkm5w9v2","","rfnkm5w9v2","""2024-11-12T18:53:10.519Z""","6088","materials/imgs/D3.png","arrowleft","","[""materials/imgs/D79.png"",""materials/imgs/D48.png""]","false","validation","","",""
"","","","","","html-keyboard-response","70","211679","0.0-13.0-2.1-0.3","rfnkm5w9v2","","rfnkm5w9v2","""2024-11-12T18:53:10.519Z""","null","+","null","","","","","","",""
"","","","","","image-keyboard-response","71","212983","0.0-13.0-2.1-1.3","rfnkm5w9v2","","rfnkm5w9v2","""2024-11-12T18:53:10.519Z""","1302","materials/imgs/D22.png","arrowleft","","[""materials/imgs/D4.png"",""materials/imgs/D25.png""]","false","validation","","",""
"","","","","","html-keyboard-response","72","213485","0.0-13.0-0.2-0.14","rfnkm5w9v2","","rfnkm5w9v2","""2024-11-12T18:53:10.519Z""","null","+","null","","","","","","",""
"","","","","","image-keyboard-response","73","214754","0.0-13.0-0.2-1.14","rfnkm5w9v2","","rfnkm5w9v2","""2024-11-12T18:53:10.519Z""","1267","materials/imgs/D34.png","arrowright","","[""materials/imgs/D81.png"",""materials/imgs/D75.png""]","false","random","","",""
"","","","","","html-keyboard-response","74","215256","0.0-13.0-0.2-0.15","rfnkm5w9v2","","rfnkm5w9v2","""2024-11-12T18:53:10.519Z""","null","+","null","","","","","","",""
"","","","","","image-keyboard-response","75","216027","0.0-13.0-0.2-1.15","rfnkm5w9v2","","rfnkm5w9v2","""2024-11-12T18:53:10.519Z""","768","materials/imgs/D101.png","arrowleft","","[""materials/imgs/D8.png"",""materials/imgs/D24.png""]","false","random","","",""
"","","","","","html-keyboard-response","76","216529","0.0-13.0-0.2-0.16","rfnkm5w9v2","","rfnkm5w9v2","""2024-11-12T18:53:10.519Z""","null","+","null","","","","","","",""
"","","","","","image-keyboard-response","77","218659","0.0-13.0-0.2-1.16","rfnkm5w9v2","","rfnkm5w9v2","""2024-11-12T18:53:10.519Z""","2127","materials/imgs/D47.png","arrowleft","","[""materials/imgs/D8.png"",""materials/imgs/D51.png""]","false","random","","",""
"","","","","","html-keyboard-response","78","219160","0.0-13.0-0.2-0.17","rfnkm5w9v2","","rfnkm5w9v2","""2024-11-12T18:53:10.519Z""","null","+","null","","","","","","",""
"","","","","","image-keyboard-response","79","220426","0.0-13.0-0.2-1.17","rfnkm5w9v2","","rfnkm5w9v2","""2024-11-12T18:53:10.519Z""","1263","materials/imgs/D51.png","arrowright","","[""materials/imgs/D64.png"",""materials/imgs/D68.png""]","false","random","","",""
"","","","","","html-keyboard-response","80","220927","0.0-13.0-0.2-0.18","rfnkm5w9v2","","rfnkm5w9v2","""2024-11-12T18:53:10.519Z""","null","+","null","","","","","","",""
"","","","","","image-keyboard-response","81","222115","0.0-13.0-0.2-1.18","rfnkm5w9v2","","rfnkm5w9v2","""2024-11-12T18:53:10.519Z""","1186","materials/imgs/D3.png","arrowright","","[""materials/imgs/D49.png"",""materials/imgs/D35.png""]","false","random","","",""
"","","","","","html-keyboard-response","82","222616","0.0-13.0-0.2-0.19","rfnkm5w9v2","","rfnkm5w9v2","""2024-11-12T18:53:10.519Z""","null","+","null","","","","","","",""
"","","","","","image-keyboard-response","83","224048","0.0-13.0-0.2-1.19","rfnkm5w9v2","","rfnkm5w9v2","""2024-11-12T18:53:10.519Z""","1429","materials/imgs/D37.png","arrowleft","","[""materials/imgs/D81.png"",""materials/imgs/D85.png""]","false","random","","",""
"","","","","","html-keyboard-response","84","224549","0.0-13.0-0.2-0.20","rfnkm5w9v2","","rfnkm5w9v2","""2024-11-12T18:53:10.519Z""","null","+","null","","","","","","",""
"","","","","","image-keyboard-response","85","225567","0.0-13.0-0.2-1.20","rfnkm5w9v2","","rfnkm5w9v2","""2024-11-12T18:53:10.519Z""","1016","materials/imgs/D51.png","arrowleft","","[""materials/imgs/D105.png"",""materials/imgs/D77.png""]","false","random","","",""
"","","","","","html-keyboard-response","86","226068","0.0-13.0-1.2-0.2","rfnkm5w9v2","","rfnkm5w9v2","""2024-11-12T18:53:10.519Z""","null","+","null","","","","","","",""
"","","","","","image-keyboard-response","87","234617","0.0-13.0-1.2-1.2","rfnkm5w9v2","","rfnkm5w9v2","""2024-11-12T18:53:10.519Z""","8546","materials/imgs/D76.png","arrowleft","","[""materials/imgs/D76.png"",""materials/imgs/D78.png""]","","check","materials/imgs/D76.png","0","true"
"","","","","","html-keyboard-response","88","235119","0.0-13.0-2.2-0.4","rfnkm5w9v2","","rfnkm5w9v2","""2024-11-12T18:53:10.519Z""","null","+","null","","","","","","",""
"","","","","","image-keyboard-response","89","237518","0.0-13.0-2.2-1.4","rfnkm5w9v2","","rfnkm5w9v2","""2024-11-12T18:53:10.519Z""","2396","materials/imgs/D85.png","arrowleft","","[""materials/imgs/D6.png"",""materials/imgs/D111.png""]","false","validation","","",""
"","","","","","html-keyboard-response","90","238019","0.0-13.0-2.2-0.5","rfnkm5w9v2","","rfnkm5w9v2","""2024-11-12T18:53:10.519Z""","null","+","null","","","","","","",""
"","","","","","image-keyboard-response","91","247106","0.0-13.0-2.2-1.5","rfnkm5w9v2","","rfnkm5w9v2","""2024-11-12T18:53:10.519Z""","9084","materials/imgs/D20.png","arrowleft","","[""materials/imgs/D84.png"",""materials/imgs/D85.png""]","false","validation","","",""
"","","","","","html-keyboard-response","92","247607","0.0-13.0-0.3-0.21","rfnkm5w9v2","","rfnkm5w9v2","""2024-11-12T18:53:10.519Z""","null","+","null","","","","","","",""
"","","","","","image-keyboard-response","93","250336","0.0-13.0-0.3-1.21","rfnkm5w9v2","","rfnkm5w9v2","""2024-11-12T18:53:10.519Z""","2726","materials/imgs/D1.png","arrowright","","[""materials/imgs/D75.png"",""materials/imgs/D57.png""]","false","random","","",""
"","","","","","html-keyboard-response","94","250837","0.0-13.0-0.3-0.22","rfnkm5w9v2","","rfnkm5w9v2","""2024-11-12T18:53:10.519Z""","null","+","null","","","","","","",""
"","","","","","image-keyboard-response","95","252237","0.0-13.0-0.3-1.22","rfnkm5w9v2","","rfnkm5w9v2","""2024-11-12T18:53:10.519Z""","1397","materials/imgs/D65.png","arrowright","","[""materials/imgs/D46.png"",""materials/imgs/D82.png""]","false","random","","",""
"","","","","","html-keyboard-response","96","252739","0.0-13.0-0.3-0.23","rfnkm5w9v2","","rfnkm5w9v2","""2024-11-12T18:53:10.519Z""","null","+","null","","","","","","",""
"","","","","","image-keyboard-response","97","255871","0.0-13.0-0.3-1.23","rfnkm5w9v2","","rfnkm5w9v2","""2024-11-12T18:53:10.519Z""","3130","materials/imgs/D9.png","arrowright","","[""materials/imgs/D65.png"",""materials/imgs/D75.png""]","false","random","","",""
"","","","","","html-keyboard-response","98","256372","0.0-13.0-0.3-0.24","rfnkm5w9v2","","rfnkm5w9v2","""2024-11-12T18:53:10.519Z""","null","+","null","","","","","","",""
"","","","","","image-keyboard-response","99","257563","0.0-13.0-0.3-1.24","rfnkm5w9v2","","rfnkm5w9v2","""2024-11-12T18:53:10.519Z""","1189","materials/imgs/D36.png","arrowright","","[""materials/imgs/D96.png"",""materials/imgs/D21.png""]","false","random","","",""
"","","","","","html-keyboard-response","100","258065","0.0-13.0-0.3-0.25","rfnkm5w9v2","","rfnkm5w9v2","""2024-11-12T18:53:10.519Z""","null","+","null","","","","","","",""
"","","","","","image-keyboard-response","101","259258","0.0-13.0-0.3-1.25","rfnkm5w9v2","","rfnkm5w9v2","""2024-11-12T18:53:10.519Z""","1190","materials/imgs/D57.png","arrowleft","","[""materials/imgs/D87.png"",""materials/imgs/D85.png""]","false","random","","",""
"","","","","","html-keyboard-response","102","259759","0.0-13.0-0.3-0.26","rfnkm5w9v2","","rfnkm5w9v2","""2024-11-12T18:53:10.519Z""","null","+","null","","","","","","",""
"","","","","","image-keyboard-response","103","260332","0.0-13.0-0.3-1.26","rfnkm5w9v2","","rfnkm5w9v2","""2024-11-12T18:53:10.519Z""","571","materials/imgs/D92.png","arrowright","","[""materials/imgs/D48.png"",""materials/imgs/D36.png""]","false","random","","",""
"","","","","","html-keyboard-response","104","260834","0.0-13.0-0.3-0.27","rfnkm5w9v2","","rfnkm5w9v2","""2024-11-12T18:53:10.519Z""","null","+","null","","","","","","",""
"","","","","","image-keyboard-response","105","262519","0.0-13.0-0.3-1.27","rfnkm5w9v2","","rfnkm5w9v2","""2024-11-12T18:53:10.519Z""","1683","materials/imgs/D47.png","arrowleft","","[""materials/imgs/D35.png"",""materials/imgs/D11.png""]","false","random","","",""
"","","","","","html-keyboard-response","106","263020","0.0-13.0-1.3-0.3","rfnkm5w9v2","","rfnkm5w9v2","""2024-11-12T18:53:10.519Z""","null","+","null","","","","","","",""
"","","","","","image-keyboard-response","107","263644","0.0-13.0-1.3-1.3","rfnkm5w9v2","","rfnkm5w9v2","""2024-11-12T18:53:10.519Z""","621","materials/imgs/D64.png","arrowleft","","[""materials/imgs/D64.png"",""materials/imgs/D53.png""]","","check","materials/imgs/D64.png","0","true"
"","","","","","html-keyboard-response","108","264145","0.0-13.0-2.3-0.6","rfnkm5w9v2","","rfnkm5w9v2","""2024-11-12T18:53:10.519Z""","null","+","null","","","","","","",""
"","","","","","image-keyboard-response","109","266311","0.0-13.0-2.3-1.6","rfnkm5w9v2","","rfnkm5w9v2","""2024-11-12T18:53:10.519Z""","2163","materials/imgs/D56.png","arrowleft","","[""materials/imgs/D25.png"",""materials/imgs/D105.png""]","false","validation","","",""
"","","","","","html-keyboard-response","110","266812","0.0-13.0-2.3-0.7","rfnkm5w9v2","","rfnkm5w9v2","""2024-11-12T18:53:10.519Z""","null","+","null","","","","","","",""
"","","","","","image-keyboard-response","111","267851","0.0-13.0-2.3-1.7","rfnkm5w9v2","","rfnkm5w9v2","""2024-11-12T18:53:10.519Z""","1037","materials/imgs/D48.png","arrowleft","","[""materials/imgs/D4.png"",""materials/imgs/D37.png""]","false","validation","","",""
"","","","","","html-keyboard-response","112","268353","0.0-13.0-0.4-0.28","rfnkm5w9v2","","rfnkm5w9v2","""2024-11-12T18:53:10.519Z""","null","+","null","","","","","","",""
"","","","","","image-keyboard-response","113","271613","0.0-13.0-0.4-1.28","rfnkm5w9v2","","rfnkm5w9v2","""2024-11-12T18:53:10.519Z""","3258","materials/imgs/D65.png","arrowright","","[""materials/imgs/D78.png"",""materials/imgs/D4.png""]","false","random","","",""
"","","","","","html-keyboard-response","114","272114","0.0-13.0-0.4-0.29","rfnkm5w9v2","","rfnkm5w9v2","""2024-11-12T18:53:10.519Z""","null","+","null","","","","","","",""
"","","","","","image-keyboard-response","115","275561","0.0-13.0-0.4-1.29","rfnkm5w9v2","","rfnkm5w9v2","""2024-11-12T18:53:10.519Z""","3444","materials/imgs/D17.png","arrowright","","[""materials/imgs/D101.png"",""materials/imgs/D22.png""]","false","random","","",""
"","","","","","html-keyboard-response","116","276062","0.0-13.0-0.4-0.30","rfnkm5w9v2","","rfnkm5w9v2","""2024-11-12T18:53:10.519Z""","null","+","null","","","","","","",""
"","","","","","image-keyboard-response","117","278068","0.0-13.0-0.4-1.30","rfnkm5w9v2","","rfnkm5w9v2","""2024-11-12T18:53:10.519Z""","2003","materials/imgs/D95.png","arrowleft","","[""materials/imgs/D55.png"",""materials/imgs/D79.png""]","false","random","","",""
"","","","","","html-keyboard-response","118","278569","0.0-13.0-0.4-0.31","rfnkm5w9v2","","rfnkm5w9v2","""2024-11-12T18:53:10.519Z""","null","+","null","","","","","","",""
"","","","","","image-keyboard-response","119","281046","0.0-13.0-0.4-1.31","rfnkm5w9v2","","rfnkm5w9v2","""2024-11-12T18:53:10.519Z""","2474","materials/imgs/D9.png","arrowleft","","[""materials/imgs/D21.png"",""materials/imgs/D52.png""]","false","random","","",""
"","","","","","html-keyboard-response","120","281547","0.0-13.0-0.4-0.32","rfnkm5w9v2","","rfnkm5w9v2","""2024-11-12T18:53:10.519Z""","null","+","null","","","","","","",""
"","","","","","image-keyboard-response","121","282930","0.0-13.0-0.4-1.32","rfnkm5w9v2","","rfnkm5w9v2","""2024-11-12T18:53:10.519Z""","1380","materials/imgs/D65.png","arrowleft","","[""materials/imgs/D1.png"",""materials/imgs/D77.png""]","false","random","","",""
"","","","","","html-keyboard-response","122","283431","0.0-13.0-0.4-0.33","rfnkm5w9v2","","rfnkm5w9v2","""2024-11-12T18:53:10.519Z""","null","+","null","","","","","","",""
"","","","","","image-keyboard-response","123","287235","0.0-13.0-0.4-1.33","rfnkm5w9v2","","rfnkm5w9v2","""2024-11-12T18:53:10.519Z""","3801","materials/imgs/D57.png","arrowright","","[""materials/imgs/D66.png"",""materials/imgs/D35.png""]","false","random","","",""
"","","","","","html-keyboard-response","124","287736","0.0-13.0-0.4-0.34","rfnkm5w9v2","","rfnkm5w9v2","""2024-11-12T18:53:10.519Z""","null","+","null","","","","","","",""
"","","","","","image-keyboard-response","125","289219","0.0-13.0-0.4-1.34","rfnkm5w9v2","","rfnkm5w9v2","""2024-11-12T18:53:10.519Z""","1480","materials/imgs/D80.png","arrowright","","[""materials/imgs/D26.png"",""materials/imgs/D103.png""]","false","random","","",""
"","","","","","html-keyboard-response","126","289720","0.0-13.0-1.4-0.4","rfnkm5w9v2","","rfnkm5w9v2","""2024-11-12T18:53:10.519Z""","null","+","null","","","","","","",""
"","","","","","image-keyboard-response","127","290437","0.0-13.0-1.4-1.4","rfnkm5w9v2","","rfnkm5w9v2","""2024-11-12T18:53:10.519Z""","715","materials/imgs/D46.png","arrowleft","","[""materials/imgs/D46.png"",""materials/imgs/D26.png""]","","check","materials/imgs/D46.png","0","true"
"","","","","","html-keyboard-response","128","290939","0.0-13.0-2.4-0.8","rfnkm5w9v2","","rfnkm5w9v2","""2024-11-12T18:53:10.519Z""","null","+","null","","","","","","",""
"","","","","","image-keyboard-response","129","294786","0.0-13.0-2.4-1.8","rfnkm5w9v2","","rfnkm5w9v2","""2024-11-12T18:53:10.519Z""","3845","materials/imgs/D52.png","arrowleft","","[""materials/imgs/D9.png"",""materials/imgs/D19.png""]","false","validation","","",""
"","","","","","html-keyboard-response","130","295287","0.0-13.0-2.4-0.9","rfnkm5w9v2","","rfnkm5w9v2","""2024-11-12T18:53:10.519Z""","null","+","null","","","","","","",""
"","","","","","image-keyboard-response","131","306470","0.0-13.0-2.4-1.9","rfnkm5w9v2","","rfnkm5w9v2","""2024-11-12T18:53:10.519Z""","11180","materials/imgs/D46.png","arrowleft","","[""materials/imgs/D92.png"",""materials/imgs/D77.png""]","false","validation","","",""
"","","","","","html-button-response","132","312993","0.0-14.0","rfnkm5w9v2","","rfnkm5w9v2","""2024-11-12T18:53:10.519Z""","6521","You have completed 25% of the trials. Please click 'Continue' when you are ready proceed.","0","","","","","","",""
"","","","","","html-keyboard-response","133","313494","0.0-15.0-0.0-0.0","rfnkm5w9v2","","rfnkm5w9v2","""2024-11-12T18:53:10.519Z""","null","+","null","","","","","","",""
"","","","","","image-keyboard-response","134","316855","0.0-15.0-0.0-1.0","rfnkm5w9v2","","rfnkm5w9v2","""2024-11-12T18:53:10.519Z""","3358","materials/imgs/D49.png","arrowleft","","[""materials/imgs/D103.png"",""materials/imgs/D75.png""]","false","random","","",""
"","","","","","html-keyboard-response","135","317356","0.0-15.0-0.0-0.1","rfnkm5w9v2","","rfnkm5w9v2","""2024-11-12T18:53:10.519Z""","null","+","null","","","","","","",""
"","","","","","image-keyboard-response","136","318376","0.0-15.0-0.0-1.1","rfnkm5w9v2","","rfnkm5w9v2","""2024-11-12T18:53:10.519Z""","1018","materials/imgs/D46.png","arrowright","","[""materials/imgs/D52.png"",""materials/imgs/D74.png""]","false","random","","",""
"","","","","","html-keyboard-response","137","318877","0.0-15.0-0.0-0.2","rfnkm5w9v2","","rfnkm5w9v2","""2024-11-12T18:53:10.519Z""","null","+","null","","","","","","",""
"","","","","","image-keyboard-response","138","320556","0.0-15.0-0.0-1.2","rfnkm5w9v2","","rfnkm5w9v2","""2024-11-12T18:53:10.519Z""","1667","materials/imgs/D83.png","arrowright","","[""materials/imgs/D51.png"",""materials/imgs/D76.png""]","false","random","","",""
"","","","","","html-keyboard-response","139","321058","0.0-15.0-0.0-0.3","rfnkm5w9v2","","rfnkm5w9v2","""2024-11-12T18:53:10.519Z""","null","+","null","","","","","","",""
"","","","","","image-keyboard-response","140","322546","0.0-15.0-0.0-1.3","rfnkm5w9v2","","rfnkm5w9v2","""2024-11-12T18:53:10.519Z""","1485","materials/imgs/D92.png","arrowright","","[""materials/imgs/D55.png"",""materials/imgs/D74.png""]","false","random","","",""
"","","","","","html-keyboard-response","141","323047","0.0-15.0-0.0-0.4","rfnkm5w9v2","","rfnkm5w9v2","""2024-11-12T18:53:10.519Z""","null","+","null","","","","","","",""
"","","","","","image-keyboard-response","142","324340","0.0-15.0-0.0-1.4","rfnkm5w9v2","","rfnkm5w9v2","""2024-11-12T18:53:10.519Z""","1290","materials/imgs/D9.png","arrowright","","[""materials/imgs/D11.png"",""materials/imgs/D24.png""]","false","random","","",""
"","","","","","html-keyboard-response","143","324841","0.0-15.0-0.0-0.5","rfnkm5w9v2","","rfnkm5w9v2","""2024-11-12T18:53:10.519Z""","null","+","null","","","","","","",""
"","","","","","image-keyboard-response","144","327164","0.0-15.0-0.0-1.5","rfnkm5w9v2","","rfnkm5w9v2","""2024-11-12T18:53:10.519Z""","2320","materials/imgs/D103.png","arrowleft","","[""materials/imgs/D3.png"",""materials/imgs/D64.png""]","false","random","","",""
"","","","","","html-keyboard-response","145","327665","0.0-15.0-0.0-0.6","rfnkm5w9v2","","rfnkm5w9v2","""2024-11-12T18:53:10.519Z""","null","+","null","","","","","","",""
"","","","","","image-keyboard-response","146","334406","0.0-15.0-0.0-1.6","rfnkm5w9v2","","rfnkm5w9v2","""2024-11-12T18:53:10.519Z""","6738","materials/imgs/D68.png","arrowleft","","[""materials/imgs/D18.png"",""materials/imgs/D46.png""]","false","random","","",""
"","","","","","html-keyboard-response","147","334907","0.0-15.0-1.0-0.0","rfnkm5w9v2","","rfnkm5w9v2","""2024-11-12T18:53:10.519Z""","null","+","null","","","","","","",""
"","","","","","image-keyboard-response","148","335478","0.0-15.0-1.0-1.0","rfnkm5w9v2","","rfnkm5w9v2","""2024-11-12T18:53:10.519Z""","569","materials/imgs/D64.png","arrowleft","","[""materials/imgs/D64.png"",""materials/imgs/D53.png""]","","check","materials/imgs/D64.png","0","true"
"","","","","","html-keyboard-response","149","335980","0.0-15.0-2.0-0.0","rfnkm5w9v2","","rfnkm5w9v2","""2024-11-12T18:53:10.519Z""","null","+","null","","","","","","",""
"","","","","","image-keyboard-response","150","338007","0.0-15.0-2.0-1.0","rfnkm5w9v2","","rfnkm5w9v2","""2024-11-12T18:53:10.519Z""","2025","materials/imgs/D35.png","arrowleft","","[""materials/imgs/D83.png"",""materials/imgs/D24.png""]","false","validation","","",""
"","","","","","html-keyboard-response","151","338508","0.0-15.0-2.0-0.1","rfnkm5w9v2","","rfnkm5w9v2","""2024-11-12T18:53:10.519Z""","null","+","null","","","","","","",""
"","","","","","image-keyboard-response","152","340651","0.0-15.0-2.0-1.1","rfnkm5w9v2","","rfnkm5w9v2","""2024-11-12T18:53:10.519Z""","2140","materials/imgs/D65.png","arrowright","","[""materials/imgs/D4.png"",""materials/imgs/D16.png""]","false","validation","","",""
"","","","","","html-keyboard-response","153","341152","0.0-15.0-0.1-0.7","rfnkm5w9v2","","rfnkm5w9v2","""2024-11-12T18:53:10.519Z""","null","+","null","","","","","","",""
"","","","","","image-keyboard-response","154","342598","0.0-15.0-0.1-1.7","rfnkm5w9v2","","rfnkm5w9v2","""2024-11-12T18:53:10.519Z""","1444","materials/imgs/D96.png","arrowright","","[""materials/imgs/D46.png"",""materials/imgs/D20.png""]","false","random","","",""
"","","","","","html-keyboard-response","155","343099","0.0-15.0-0.1-0.8","rfnkm5w9v2","","rfnkm5w9v2","""2024-11-12T18:53:10.519Z""","null","+","null","","","","","","",""
"","","","","","image-keyboard-response","156","347896","0.0-15.0-0.1-1.8","rfnkm5w9v2","","rfnkm5w9v2","""2024-11-12T18:53:10.519Z""","4794","materials/imgs/D101.png","arrowright","","[""materials/imgs/D29.png"",""materials/imgs/D55.png""]","false","random","","",""
"","","","","","html-keyboard-response","157","348397","0.0-15.0-0.1-0.9","rfnkm5w9v2","","rfnkm5w9v2","""2024-11-12T18:53:10.519Z""","null","+","null","","","","","","",""
"","","","","","image-keyboard-response","158","349360","0.0-15.0-0.1-1.9","rfnkm5w9v2","","rfnkm5w9v2","""2024-11-12T18:53:10.519Z""","962","materials/imgs/D1.png","arrowright","","[""materials/imgs/D48.png"",""materials/imgs/D81.png""]","false","random","","",""
"","","","","","html-keyboard-response","159","349861","0.0-15.0-0.1-0.10","rfnkm5w9v2","","rfnkm5w9v2","""2024-11-12T18:53:10.519Z""","null","+","null","","","","","","",""
"","","","","","image-keyboard-response","160","351149","0.0-15.0-0.1-1.10","rfnkm5w9v2","","rfnkm5w9v2","""2024-11-12T18:53:10.519Z""","1285","materials/imgs/D82.png","arrowleft","","[""materials/imgs/D103.png"",""materials/imgs/D51.png""]","false","random","","",""
"","","","","","html-keyboard-response","161","351650","0.0-15.0-0.1-0.11","rfnkm5w9v2","","rfnkm5w9v2","""2024-11-12T18:53:10.519Z""","null","+","null","","","","","","",""
"","","","","","image-keyboard-response","162","352683","0.0-15.0-0.1-1.11","rfnkm5w9v2","","rfnkm5w9v2","""2024-11-12T18:53:10.519Z""","1031","materials/imgs/D111.png","arrowleft","","[""materials/imgs/D18.png"",""materials/imgs/D78.png""]","false","random","","",""
"","","","","","html-keyboard-response","163","353184","0.0-15.0-0.1-0.12","rfnkm5w9v2","","rfnkm5w9v2","""2024-11-12T18:53:10.519Z""","null","+","null","","","","","","",""
"","","","","","image-keyboard-response","164","355133","0.0-15.0-0.1-1.12","rfnkm5w9v2","","rfnkm5w9v2","""2024-11-12T18:53:10.519Z""","1947","materials/imgs/D36.png","arrowleft","","[""materials/imgs/D8.png"",""materials/imgs/D48.png""]","false","random","","",""
"","","","","","html-keyboard-response","165","355635","0.0-15.0-0.1-0.13","rfnkm5w9v2","","rfnkm5w9v2","""2024-11-12T18:53:10.519Z""","null","+","null","","","","","","",""
"","","","","","image-keyboard-response","166","357225","0.0-15.0-0.1-1.13","rfnkm5w9v2","","rfnkm5w9v2","""2024-11-12T18:53:10.519Z""","1588","materials/imgs/D21.png","arrowright","","[""materials/imgs/D74.png"",""materials/imgs/D82.png""]","false","random","","",""
"","","","","","html-keyboard-response","167","357727","0.0-15.0-1.1-0.1","rfnkm5w9v2","","rfnkm5w9v2","""2024-11-12T18:53:10.519Z""","null","+","null","","","","","","",""
"","","","","","image-keyboard-response","168","361719","0.0-15.0-1.1-1.1","rfnkm5w9v2","","rfnkm5w9v2","""2024-11-12T18:53:10.519Z""","3990","materials/imgs/D53.png","arrowright","","[""materials/imgs/D64.png"",""materials/imgs/D53.png""]","","check","materials/imgs/D53.png","1","true"
"","","","","","html-keyboard-response","169","362220","0.0-15.0-2.1-0.2","rfnkm5w9v2","","rfnkm5w9v2","""2024-11-12T18:53:10.519Z""","null","+","null","","","","","","",""
"","","","","","image-keyboard-response","170","433214","0.0-15.0-2.1-1.2","rfnkm5w9v2","","rfnkm5w9v2","""2024-11-12T18:53:10.519Z""","70989","materials/imgs/D65.png","arrowleft","","[""materials/imgs/D4.png"",""materials/imgs/D16.png""]","false","validation","","",""
"","","","","","html-keyboard-response","171","433715","0.0-15.0-2.1-0.3","rfnkm5w9v2","","rfnkm5w9v2","""2024-11-12T18:53:10.519Z""","null","+","null","","","","","","",""
"","","","","","image-keyboard-response","172","435421","0.0-15.0-2.1-1.3","rfnkm5w9v2","","rfnkm5w9v2","""2024-11-12T18:53:10.519Z""","1704","materials/imgs/D92.png","arrowleft","","[""materials/imgs/D56.png"",""materials/imgs/D77.png""]","false","validation","","",""
"","","","","","html-keyboard-response","173","435923","0.0-15.0-0.2-0.14","rfnkm5w9v2","","rfnkm5w9v2","""2024-11-12T18:53:10.519Z""","null","+","null","","","","","","",""
"","","","","","image-keyboard-response","174","437072","0.0-15.0-0.2-1.14","rfnkm5w9v2","","rfnkm5w9v2","""2024-11-12T18:53:10.519Z""","1146","materials/imgs/D49.png","arrowleft","","[""materials/imgs/D80.png"",""materials/imgs/D29.png""]","false","random","","",""
"","","","","","html-keyboard-response","175","437573","0.0-15.0-0.2-0.15","rfnkm5w9v2","","rfnkm5w9v2","""2024-11-12T18:53:10.519Z""","null","+","null","","","","","","",""
"","","","","","image-keyboard-response","176","439641","0.0-15.0-0.2-1.15","rfnkm5w9v2","","rfnkm5w9v2","""2024-11-12T18:53:10.519Z""","2066","materials/imgs/D16.png","arrowleft","","[""materials/imgs/D1.png"",""materials/imgs/D35.png""]","false","random","","",""
"","","","","","html-keyboard-response","177","440143","0.0-15.0-0.2-0.16","rfnkm5w9v2","","rfnkm5w9v2","""2024-11-12T18:53:10.519Z""","null","+","null","","","","","","",""
"","","","","","image-keyboard-response","178","441379","0.0-15.0-0.2-1.16","rfnkm5w9v2","","rfnkm5w9v2","""2024-11-12T18:53:10.519Z""","1234","materials/imgs/D51.png","arrowright","","[""materials/imgs/D52.png"",""materials/imgs/D22.png""]","false","random","","",""
"","","","","","html-keyboard-response","179","441880","0.0-15.0-0.2-0.17","rfnkm5w9v2","","rfnkm5w9v2","""2024-11-12T18:53:10.519Z""","null","+","null","","","","","","",""
"","","","","","image-keyboard-response","180","442814","0.0-15.0-0.2-1.17","rfnkm5w9v2","","rfnkm5w9v2","""2024-11-12T18:53:10.519Z""","931","materials/imgs/D32.png","arrowright","","[""materials/imgs/D3.png"",""materials/imgs/D14.png""]","false","random","","",""
"","","","","","html-keyboard-response","181","443315","0.0-15.0-0.2-0.18","rfnkm5w9v2","","rfnkm5w9v2","""2024-11-12T18:53:10.519Z""","null","+","null","","","","","","",""
"","","","","","image-keyboard-response","182","445327","0.0-15.0-0.2-1.18","rfnkm5w9v2","","rfnkm5w9v2","""2024-11-12T18:53:10.519Z""","2009","materials/imgs/D84.png","arrowleft","","[""materials/imgs/D81.png"",""materials/imgs/D79.png""]","false","random","","",""
"","","","","","html-keyboard-response","183","445829","0.0-15.0-0.2-0.19","rfnkm5w9v2","","rfnkm5w9v2","""2024-11-12T18:53:10.519Z""","null","+","null","","","","","","",""
"","","","","","image-keyboard-response","184","447113","0.0-15.0-0.2-1.19","rfnkm5w9v2","","rfnkm5w9v2","""2024-11-12T18:53:10.519Z""","1282","materials/imgs/D11.png","arrowright","","[""materials/imgs/D46.png"",""materials/imgs/D14.png""]","false","random","","",""
"","","","","","html-keyboard-response","185","447614","0.0-15.0-0.2-0.20","rfnkm5w9v2","","rfnkm5w9v2","""2024-11-12T18:53:10.519Z""","null","+","null","","","","","","",""
"","","","","","image-keyboard-response","186","448823","0.0-15.0-0.2-1.20","rfnkm5w9v2","","rfnkm5w9v2","""2024-11-12T18:53:10.519Z""","1207","materials/imgs/D48.png","arrowleft","","[""materials/imgs/D66.png"",""materials/imgs/D53.png""]","false","random","","",""
"","","","","","html-keyboard-response","187","449325","0.0-15.0-1.2-0.2","rfnkm5w9v2","","rfnkm5w9v2","""2024-11-12T18:53:10.519Z""","null","+","null","","","","","","",""
"","","","","","image-keyboard-response","188","450052","0.0-15.0-1.2-1.2","rfnkm5w9v2","","rfnkm5w9v2","""2024-11-12T18:53:10.519Z""","725","materials/imgs/D53.png","arrowright","","[""materials/imgs/D64.png"",""materials/imgs/D53.png""]","","check","materials/imgs/D53.png","1","true"
"","","","","","html-keyboard-response","189","450553","0.0-15.0-2.2-0.4","rfnkm5w9v2","","rfnkm5w9v2","""2024-11-12T18:53:10.519Z""","null","+","null","","","","","","",""
"","","","","","image-keyboard-response","190","451254","0.0-15.0-2.2-1.4","rfnkm5w9v2","","rfnkm5w9v2","""2024-11-12T18:53:10.519Z""","698","materials/imgs/D19.png","arrowleft","","[""materials/imgs/D111.png"",""materials/imgs/D56.png""]","false","validation","","",""
"","","","","","html-keyboard-response","191","451755","0.0-15.0-2.2-0.5","rfnkm5w9v2","","rfnkm5w9v2","""2024-11-12T18:53:10.519Z""","null","+","null","","","","","","",""
"","","","","","image-keyboard-response","192","453238","0.0-15.0-2.2-1.5","rfnkm5w9v2","","rfnkm5w9v2","""2024-11-12T18:53:10.519Z""","1481","materials/imgs/D26.png","arrowright","","[""materials/imgs/D36.png"",""materials/imgs/D92.png""]","false","validation","","",""
"","","","","","html-keyboard-response","193","453739","0.0-15.0-0.3-0.21","rfnkm5w9v2","","rfnkm5w9v2","""2024-11-12T18:53:10.519Z""","null","+","null","","","","","","",""
"","","","","","image-keyboard-response","194","454570","0.0-15.0-0.3-1.21","rfnkm5w9v2","","rfnkm5w9v2","""2024-11-12T18:53:10.519Z""","828","materials/imgs/D82.png","arrowleft","","[""materials/imgs/D80.png"",""materials/imgs/D21.png""]","false","random","","",""
"","","","","","html-keyboard-response","195","455071","0.0-15.0-0.3-0.22","rfnkm5w9v2","","rfnkm5w9v2","""2024-11-12T18:53:10.519Z""","null","+","null","","","","","","",""
"","","","","","image-keyboard-response","196","456746","0.0-15.0-0.3-1.22","rfnkm5w9v2","","rfnkm5w9v2","""2024-11-12T18:53:10.519Z""","1673","materials/imgs/D49.png","arrowright","","[""materials/imgs/D65.png"",""materials/imgs/D106.png""]","false","random","","",""
"","","","","","html-keyboard-response","197","457247","0.0-15.0-0.3-0.23","rfnkm5w9v2","","rfnkm5w9v2","""2024-11-12T18:53:10.519Z""","null","+","null","","","","","","",""
"","","","","","image-keyboard-response","198","458119","0.0-15.0-0.3-1.23","rfnkm5w9v2","","rfnkm5w9v2","""2024-11-12T18:53:10.519Z""","869","materials/imgs/D20.png","arrowright","","[""materials/imgs/D53.png"",""materials/imgs/D82.png""]","false","random","","",""
"","","","","","html-keyboard-response","199","458621","0.0-15.0-0.3-0.24","rfnkm5w9v2","","rfnkm5w9v2","""2024-11-12T18:53:10.519Z""","null","+","null","","","","","","",""
"","","","","","image-keyboard-response","200","459872","0.0-15.0-0.3-1.24","rfnkm5w9v2","","rfnkm5w9v2","""2024-11-12T18:53:10.519Z""","1249","materials/imgs/D75.png","arrowright","","[""materials/imgs/D26.png"",""materials/imgs/D102.png""]","false","random","","",""
"","","","","","html-keyboard-response","201","460374","0.0-15.0-0.3-0.25","rfnkm5w9v2","","rfnkm5w9v2","""2024-11-12T18:53:10.519Z""","null","+","null","","","","","","",""
"","","","","","image-keyboard-response","202","461421","0.0-15.0-0.3-1.25","rfnkm5w9v2","","rfnkm5w9v2","""2024-11-12T18:53:10.519Z""","1044","materials/imgs/D24.png","arrowleft","","[""materials/imgs/D76.png"",""materials/imgs/D96.png""]","false","random","","",""
"","","","","","html-keyboard-response","203","461922","0.0-15.0-0.3-0.26","rfnkm5w9v2","","rfnkm5w9v2","""2024-11-12T18:53:10.519Z""","null","+","null","","","","","","",""
"","","","","","image-keyboard-response","204","465906","0.0-15.0-0.3-1.26","rfnkm5w9v2","","rfnkm5w9v2","""2024-11-12T18:53:10.519Z""","3981","materials/imgs/D94.png","arrowleft","","[""materials/imgs/D35.png"",""materials/imgs/D48.png""]","false","random","","",""
"","","","","","html-keyboard-response","205","466407","0.0-15.0-0.3-0.27","rfnkm5w9v2","","rfnkm5w9v2","""2024-11-12T18:53:10.519Z""","null","+","null","","","","","","",""
"","","","","","image-keyboard-response","206","467665","0.0-15.0-0.3-1.27","rfnkm5w9v2","","rfnkm5w9v2","""2024-11-12T18:53:10.519Z""","1255","materials/imgs/D52.png","arrowleft","","[""materials/imgs/D57.png"",""materials/imgs/D32.png""]","false","random","","",""
"","","","","","html-keyboard-response","207","468166","0.0-15.0-1.3-0.3","rfnkm5w9v2","","rfnkm5w9v2","""2024-11-12T18:53:10.519Z""","null","+","null","","","","","","",""
"","","","","","image-keyboard-response","208","468953","0.0-15.0-1.3-1.3","rfnkm5w9v2","","rfnkm5w9v2","""2024-11-12T18:53:10.519Z""","785","materials/imgs/D76.png","arrowleft","","[""materials/imgs/D76.png"",""materials/imgs/D78.png""]","","check","materials/imgs/D76.png","0","true"
"","","","","","html-keyboard-response","209","469455","0.0-15.0-2.3-0.6","rfnkm5w9v2","","rfnkm5w9v2","""2024-11-12T18:53:10.519Z""","null","+","null","","","","","","",""
"","","","","","image-keyboard-response","210","475107","0.0-15.0-2.3-1.6","rfnkm5w9v2","","rfnkm5w9v2","""2024-11-12T18:53:10.519Z""","5649","materials/imgs/D103.png","arrowright","","[""materials/imgs/D76.png"",""materials/imgs/D106.png""]","false","validation","","",""
"","","","","","html-keyboard-response","211","475608","0.0-15.0-2.3-0.7","rfnkm5w9v2","","rfnkm5w9v2","""2024-11-12T18:53:10.519Z""","null","+","null","","","","","","",""
"","","","","","image-keyboard-response","212","478113","0.0-15.0-2.3-1.7","rfnkm5w9v2","","rfnkm5w9v2","""2024-11-12T18:53:10.519Z""","2504","materials/imgs/D84.png","arrowright","","[""materials/imgs/D106.png"",""materials/imgs/D37.png""]","false","validation","","",""
"","","","","","html-keyboard-response","213","478616","0.0-15.0-0.4-0.28","rfnkm5w9v2","","rfnkm5w9v2","""2024-11-12T18:53:10.519Z""","null","+","null","","","","","","",""
"","","","","","image-keyboard-response","214","480329","0.0-15.0-0.4-1.28","rfnkm5w9v2","","rfnkm5w9v2","""2024-11-12T18:53:10.519Z""","1711","materials/imgs/D14.png","arrowleft","","[""materials/imgs/D84.png"",""materials/imgs/D104.png""]","false","random","","",""
"","","","","","html-keyboard-response","215","480830","0.0-15.0-0.4-0.29","rfnkm5w9v2","","rfnkm5w9v2","""2024-11-12T18:53:10.519Z""","null","+","null","","","","","","",""
"","","","","","image-keyboard-response","216","482290","0.0-15.0-0.4-1.29","rfnkm5w9v2","","rfnkm5w9v2","""2024-11-12T18:53:10.519Z""","1458","materials/imgs/D34.png","arrowleft","","[""materials/imgs/D66.png"",""materials/imgs/D47.png""]","false","random","","",""
"","","","","","html-keyboard-response","217","482791","0.0-15.0-0.4-0.30","rfnkm5w9v2","","rfnkm5w9v2","""2024-11-12T18:53:10.519Z""","null","+","null","","","","","","",""
"","","","","","image-keyboard-response","218","483989","0.0-15.0-0.4-1.30","rfnkm5w9v2","","rfnkm5w9v2","""2024-11-12T18:53:10.519Z""","1195","materials/imgs/D17.png","arrowleft","","[""materials/imgs/D52.png"",""materials/imgs/D105.png""]","false","random","","",""
"","","","","","html-keyboard-response","219","484490","0.0-15.0-0.4-0.31","rfnkm5w9v2","","rfnkm5w9v2","""2024-11-12T18:53:10.519Z""","null","+","null","","","","","","",""
"","","","","","image-keyboard-response","220","485354","0.0-15.0-0.4-1.31","rfnkm5w9v2","","rfnkm5w9v2","""2024-11-12T18:53:10.519Z""","861","materials/imgs/D37.png","arrowleft","","[""materials/imgs/D18.png"",""materials/imgs/D29.png""]","false","random","","",""
"","","","","","html-keyboard-response","221","485856","0.0-15.0-0.4-0.32","rfnkm5w9v2","","rfnkm5w9v2","""2024-11-12T18:53:10.519Z""","null","+","null","","","","","","",""
"","","","","","image-keyboard-response","222","487302","0.0-15.0-0.4-1.32","rfnkm5w9v2","","rfnkm5w9v2","""2024-11-12T18:53:10.519Z""","1445","materials/imgs/D66.png","arrowright","","[""materials/imgs/D96.png"",""materials/imgs/D22.png""]","false","random","","",""
"","","","","","html-keyboard-response","223","487804","0.0-15.0-0.4-0.33","rfnkm5w9v2","","rfnkm5w9v2","""2024-11-12T18:53:10.519Z""","null","+","null","","","","","","",""
"","","","","","image-keyboard-response","224","489310","0.0-15.0-0.4-1.33","rfnkm5w9v2","","rfnkm5w9v2","""2024-11-12T18:53:10.519Z""","1503","materials/imgs/D9.png","arrowright","","[""materials/imgs/D85.png"",""materials/imgs/D6.png""]","false","random","","",""
"","","","","","html-keyboard-response","225","489812","0.0-15.0-0.4-0.34","rfnkm5w9v2","","rfnkm5w9v2","""2024-11-12T18:53:10.519Z""","null","+","null","","","","","","",""
"","","","","","image-keyboard-response","226","491792","0.0-15.0-0.4-1.34","rfnkm5w9v2","","rfnkm5w9v2","""2024-11-12T18:53:10.519Z""","1978","materials/imgs/D34.png","arrowleft","","[""materials/imgs/D48.png"",""materials/imgs/D77.png""]","false","random","","",""
"","","","","","html-keyboard-response","227","492294","0.0-15.0-1.4-0.4","rfnkm5w9v2","","rfnkm5w9v2","""2024-11-12T18:53:10.519Z""","null","+","null","","","","","","",""
"","","","","","image-keyboard-response","228","503043","0.0-15.0-1.4-1.4","rfnkm5w9v2","","rfnkm5w9v2","""2024-11-12T18:53:10.519Z""","10747","materials/imgs/D53.png","arrowright","","[""materials/imgs/D64.png"",""materials/imgs/D53.png""]","","check","materials/imgs/D53.png","1","true"
"","","","","","html-keyboard-response","229","503545","0.0-15.0-2.4-0.8","rfnkm5w9v2","","rfnkm5w9v2","""2024-11-12T18:53:10.519Z""","null","+","null","","","","","","",""
"","","","","","image-keyboard-response","230","504498","0.0-15.0-2.4-1.8","rfnkm5w9v2","","rfnkm5w9v2","""2024-11-12T18:53:10.519Z""","952","materials/imgs/D105.png","arrowleft","","[""materials/imgs/D106.png"",""materials/imgs/D52.png""]","false","validation","","",""
"","","","","","html-keyboard-response","231","504999","0.0-15.0-2.4-0.9","rfnkm5w9v2","","rfnkm5w9v2","""2024-11-12T18:53:10.519Z""","null","+","null","","","","","","",""
"","","","","","image-keyboard-response","232","507930","0.0-15.0-2.4-1.9","rfnkm5w9v2","","rfnkm5w9v2","""2024-11-12T18:53:10.519Z""","2930","materials/imgs/D81.png","arrowleft","","[""materials/imgs/D105.png"",""materials/imgs/D24.png""]","false","validation","","",""
"","","","","","html-button-response","233","509273","0.0-16.0","rfnkm5w9v2","","rfnkm5w9v2","""2024-11-12T18:53:10.519Z""","1341","You have completed 50% of the trials. Please click 'Continue' when you are ready proceed.","0","","","","","","",""
"","","","","","html-keyboard-response","234","509774","0.0-17.0-0.0-0.0","rfnkm5w9v2","","rfnkm5w9v2","""2024-11-12T18:53:10.519Z""","null","+","null","","","","","","",""
"","","","","","image-keyboard-response","235","510880","0.0-17.0-0.0-1.0","rfnkm5w9v2","","rfnkm5w9v2","""2024-11-12T18:53:10.519Z""","1104","materials/imgs/D87.png","arrowleft","","[""materials/imgs/D65.png"",""materials/imgs/D25.png""]","false","random","","",""
"","","","","","html-keyboard-response","236","511382","0.0-17.0-0.0-0.1","rfnkm5w9v2","","rfnkm5w9v2","""2024-11-12T18:53:10.519Z""","null","+","null","","","","","","",""
"","","","","","image-keyboard-response","237","512809","0.0-17.0-0.0-1.1","rfnkm5w9v2","","rfnkm5w9v2","""2024-11-12T18:53:10.519Z""","1424","materials/imgs/D25.png","arrowleft","","[""materials/imgs/D57.png"",""materials/imgs/D3.png""]","false","random","","",""
"","","","","","html-keyboard-response","238","513310","0.0-17.0-0.0-0.2","rfnkm5w9v2","","rfnkm5w9v2","""2024-11-12T18:53:10.519Z""","null","+","null","","","","","","",""
"","","","","","image-keyboard-response","239","515474","0.0-17.0-0.0-1.2","rfnkm5w9v2","","rfnkm5w9v2","""2024-11-12T18:53:10.519Z""","2162","materials/imgs/D37.png","arrowleft","","[""materials/imgs/D65.png"",""materials/imgs/D55.png""]","false","random","","",""
"","","","","","html-keyboard-response","240","515975","0.0-17.0-0.0-0.3","rfnkm5w9v2","","rfnkm5w9v2","""2024-11-12T18:53:10.519Z""","null","+","null","","","","","","",""
"","","","","","image-keyboard-response","241","516696","0.0-17.0-0.0-1.3","rfnkm5w9v2","","rfnkm5w9v2","""2024-11-12T18:53:10.519Z""","719","materials/imgs/D53.png","arrowleft","","[""materials/imgs/D34.png"",""materials/imgs/D9.png""]","false","random","","",""
"","","","","","html-keyboard-response","242","517197","0.0-17.0-0.0-0.4","rfnkm5w9v2","","rfnkm5w9v2","""2024-11-12T18:53:10.519Z""","null","+","null","","","","","","",""
"","","","","","image-keyboard-response","243","518064","0.0-17.0-0.0-1.4","rfnkm5w9v2","","rfnkm5w9v2","""2024-11-12T18:53:10.519Z""","864","materials/imgs/D3.png","arrowright","","[""materials/imgs/D95.png"",""materials/imgs/D78.png""]","false","random","","",""
"","","","","","html-keyboard-response","244","518565","0.0-17.0-0.0-0.5","rfnkm5w9v2","","rfnkm5w9v2","""2024-11-12T18:53:10.519Z""","null","+","null","","","","","","",""
"","","","","","image-keyboard-response","245","520569","0.0-17.0-0.0-1.5","rfnkm5w9v2","","rfnkm5w9v2","""2024-11-12T18:53:10.519Z""","2001","materials/imgs/D106.png","arrowleft","","[""materials/imgs/D95.png"",""materials/imgs/D34.png""]","false","random","","",""
"","","","","","html-keyboard-response","246","521070","0.0-17.0-0.0-0.6","rfnkm5w9v2","","rfnkm5w9v2","""2024-11-12T18:53:10.519Z""","null","+","null","","","","","","",""
"","","","","","image-keyboard-response","247","521634","0.0-17.0-0.0-1.6","rfnkm5w9v2","","rfnkm5w9v2","""2024-11-12T18:53:10.519Z""","563","materials/imgs/D22.png","arrowleft","","[""materials/imgs/D52.png"",""materials/imgs/D94.png""]","false","random","","",""
"","","","","","html-keyboard-response","248","522135","0.0-17.0-1.0-0.0","rfnkm5w9v2","","rfnkm5w9v2","""2024-11-12T18:53:10.519Z""","null","+","null","","","","","","",""
"","","","","","image-keyboard-response","249","522738","0.0-17.0-1.0-1.0","rfnkm5w9v2","","rfnkm5w9v2","""2024-11-12T18:53:10.519Z""","600","materials/imgs/D46.png","arrowleft","","[""materials/imgs/D46.png"",""materials/imgs/D26.png""]","","check","materials/imgs/D46.png","0","true"
"","","","","","html-keyboard-response","250","523239","0.0-17.0-2.0-0.0","rfnkm5w9v2","","rfnkm5w9v2","""2024-11-12T18:53:10.519Z""","null","+","null","","","","","","",""
"","","","","","image-keyboard-response","251","527528","0.0-17.0-2.0-1.0","rfnkm5w9v2","","rfnkm5w9v2","""2024-11-12T18:53:10.519Z""","4287","materials/imgs/D95.png","arrowright","","[""materials/imgs/D36.png"",""materials/imgs/D4.png""]","false","validation","","",""
"","","","","","html-keyboard-response","252","528029","0.0-17.0-2.0-0.1","rfnkm5w9v2","","rfnkm5w9v2","""2024-11-12T18:53:10.519Z""","null","+","null","","","","","","",""
"","","","","","image-keyboard-response","253","529774","0.0-17.0-2.0-1.1","rfnkm5w9v2","","rfnkm5w9v2","""2024-11-12T18:53:10.519Z""","1742","materials/imgs/D79.png","arrowleft","","[""materials/imgs/D51.png"",""materials/imgs/D64.png""]","false","validation","","",""
"","","","","","html-keyboard-response","254","530275","0.0-17.0-0.1-0.7","rfnkm5w9v2","","rfnkm5w9v2","""2024-11-12T18:53:10.519Z""","null","+","null","","","","","","",""
"","","","","","image-keyboard-response","255","532405","0.0-17.0-0.1-1.7","rfnkm5w9v2","","rfnkm5w9v2","""2024-11-12T18:53:10.519Z""","2129","materials/imgs/D84.png","arrowright","","[""materials/imgs/D25.png"",""materials/imgs/D20.png""]","false","random","","",""
"","","","","","html-keyboard-response","256","532906","0.0-17.0-0.1-0.8","rfnkm5w9v2","","rfnkm5w9v2","""2024-11-12T18:53:10.519Z""","null","+","null","","","","","","",""
"","","","","","image-keyboard-response","257","534077","0.0-17.0-0.1-1.8","rfnkm5w9v2","","rfnkm5w9v2","""2024-11-12T18:53:10.519Z""","1168","materials/imgs/D22.png","arrowleft","","[""materials/imgs/D53.png"",""materials/imgs/D77.png""]","false","random","","",""
"","","","","","html-keyboard-response","258","534578","0.0-17.0-0.1-0.9","rfnkm5w9v2","","rfnkm5w9v2","""2024-11-12T18:53:10.519Z""","null","+","null","","","","","","",""
"","","","","","image-keyboard-response","259","536354","0.0-17.0-0.1-1.9","rfnkm5w9v2","","rfnkm5w9v2","""2024-11-12T18:53:10.519Z""","1774","materials/imgs/D49.png","arrowright","","[""materials/imgs/D51.png"",""materials/imgs/D52.png""]","false","random","","",""
"","","","","","html-keyboard-response","260","536856","0.0-17.0-0.1-0.10","rfnkm5w9v2","","rfnkm5w9v2","""2024-11-12T18:53:10.519Z""","null","+","null","","","","","","",""
"","","","","","image-keyboard-response","261","538423","0.0-17.0-0.1-1.10","rfnkm5w9v2","","rfnkm5w9v2","""2024-11-12T18:53:10.519Z""","1565","materials/imgs/D36.png","arrowright","","[""materials/imgs/D11.png"",""materials/imgs/D14.png""]","false","random","","",""
"","","","","","html-keyboard-response","262","538925","0.0-17.0-0.1-0.11","rfnkm5w9v2","","rfnkm5w9v2","""2024-11-12T18:53:10.519Z""","null","+","null","","","","","","",""
"","","","","","image-keyboard-response","263","541459","0.0-17.0-0.1-1.11","rfnkm5w9v2","","rfnkm5w9v2","""2024-11-12T18:53:10.519Z""","2531","materials/imgs/D20.png","arrowright","","[""materials/imgs/D14.png"",""materials/imgs/D51.png""]","false","random","","",""
"","","","","","html-keyboard-response","264","541960","0.0-17.0-0.1-0.12","rfnkm5w9v2","","rfnkm5w9v2","""2024-11-12T18:53:10.519Z""","null","+","null","","","","","","",""
"","","","","","image-keyboard-response","265","542959","0.0-17.0-0.1-1.12","rfnkm5w9v2","","rfnkm5w9v2","""2024-11-12T18:53:10.519Z""","986","materials/imgs/D17.png","arrowleft","","[""materials/imgs/D82.png"",""materials/imgs/D37.png""]","false","random","","",""
"","","","","","html-keyboard-response","266","543460","0.0-17.0-0.1-0.13","rfnkm5w9v2","","rfnkm5w9v2","""2024-11-12T18:53:10.519Z""","null","+","null","","","","","","",""
"","","","","","image-keyboard-response","267","544111","0.0-17.0-0.1-1.13","rfnkm5w9v2","","rfnkm5w9v2","""2024-11-12T18:53:10.519Z""","648","materials/imgs/D16.png","arrowright","","[""materials/imgs/D75.png"",""materials/imgs/D4.png""]","false","random","","",""
"","","","","","html-keyboard-response","268","544613","0.0-17.0-1.1-0.1","rfnkm5w9v2","","rfnkm5w9v2","""2024-11-12T18:53:10.519Z""","null","+","null","","","","","","",""
"","","","","","image-keyboard-response","269","545217","0.0-17.0-1.1-1.1","rfnkm5w9v2","","rfnkm5w9v2","""2024-11-12T18:53:10.519Z""","602","materials/imgs/D18.png","arrowright","","[""materials/imgs/D8.png"",""materials/imgs/D18.png""]","","check","materials/imgs/D18.png","1","true"
"","","","","","html-keyboard-response","270","545718","0.0-17.0-2.1-0.2","rfnkm5w9v2","","rfnkm5w9v2","""2024-11-12T18:53:10.519Z""","null","+","null","","","","","","",""
"","","","","","image-keyboard-response","271","547554","0.0-17.0-2.1-1.2","rfnkm5w9v2","","rfnkm5w9v2","""2024-11-12T18:53:10.519Z""","1833","materials/imgs/D75.png","arrowleft","","[""materials/imgs/D96.png"",""materials/imgs/D4.png""]","false","validation","","",""
"","","","","","html-keyboard-response","272","548055","0.0-17.0-2.1-0.3","rfnkm5w9v2","","rfnkm5w9v2","""2024-11-12T18:53:10.519Z""","null","+","null","","","","","","",""
"","","","","","image-keyboard-response","273","548888","0.0-17.0-2.1-1.3","rfnkm5w9v2","","rfnkm5w9v2","""2024-11-12T18:53:10.519Z""","831","materials/imgs/D8.png","arrowleft","","[""materials/imgs/D101.png"",""materials/imgs/D52.png""]","false","validation","","",""
"","","","","","html-keyboard-response","274","549390","0.0-17.0-0.2-0.14","rfnkm5w9v2","","rfnkm5w9v2","""2024-11-12T18:53:10.519Z""","null","+","null","","","","","","",""
"","","","","","image-keyboard-response","275","551730","0.0-17.0-0.2-1.14","rfnkm5w9v2","","rfnkm5w9v2","""2024-11-12T18:53:10.519Z""","2338","materials/imgs/D81.png","arrowright","","[""materials/imgs/D34.png"",""materials/imgs/D83.png""]","false","random","","",""
"","","","","","html-keyboard-response","276","552232","0.0-17.0-0.2-0.15","rfnkm5w9v2","","rfnkm5w9v2","""2024-11-12T18:53:10.519Z""","null","+","null","","","","","","",""
"","","","","","image-keyboard-response","277","553308","0.0-17.0-0.2-1.15","rfnkm5w9v2","","rfnkm5w9v2","""2024-11-12T18:53:10.519Z""","1074","materials/imgs/D49.png","arrowleft","","[""materials/imgs/D21.png"",""materials/imgs/D95.png""]","false","random","","",""
"","","","","","html-keyboard-response","278","553809","0.0-17.0-0.2-0.16","rfnkm5w9v2","","rfnkm5w9v2","""2024-11-12T18:53:10.519Z""","null","+","null","","","","","","",""
"","","","","","image-keyboard-response","279","554463","0.0-17.0-0.2-1.16","rfnkm5w9v2","","rfnkm5w9v2","""2024-11-12T18:53:10.519Z""","651","materials/imgs/D68.png","arrowleft","","[""materials/imgs/D79.png"",""materials/imgs/D76.png""]","false","random","","",""
"","","","","","html-keyboard-response","280","554964","0.0-17.0-0.2-0.17","rfnkm5w9v2","","rfnkm5w9v2","""2024-11-12T18:53:10.519Z""","null","+","null","","","","","","",""
"","","","","","image-keyboard-response","281","556302","0.0-17.0-0.2-1.17","rfnkm5w9v2","","rfnkm5w9v2","""2024-11-12T18:53:10.519Z""","1335","materials/imgs/D26.png","arrowright","","[""materials/imgs/D68.png"",""materials/imgs/D96.png""]","false","random","","",""
"","","","","","html-keyboard-response","282","556804","0.0-17.0-0.2-0.18","rfnkm5w9v2","","rfnkm5w9v2","""2024-11-12T18:53:10.519Z""","null","+","null","","","","","","",""
"","","","","","image-keyboard-response","283","558902","0.0-17.0-0.2-1.18","rfnkm5w9v2","","rfnkm5w9v2","""2024-11-12T18:53:10.519Z""","2096","materials/imgs/D51.png","arrowleft","","[""materials/imgs/D49.png"",""materials/imgs/D6.png""]","false","random","","",""
"","","","","","html-keyboard-response","284","559403","0.0-17.0-0.2-0.19","rfnkm5w9v2","","rfnkm5w9v2","""2024-11-12T18:53:10.519Z""","null","+","null","","","","","","",""
"","","","","","image-keyboard-response","285","561367","0.0-17.0-0.2-1.19","rfnkm5w9v2","","rfnkm5w9v2","""2024-11-12T18:53:10.519Z""","1963","materials/imgs/D1.png","arrowleft","","[""materials/imgs/D26.png"",""materials/imgs/D55.png""]","false","random","","",""
"","","","","","html-keyboard-response","286","561869","0.0-17.0-0.2-0.20","rfnkm5w9v2","","rfnkm5w9v2","""2024-11-12T18:53:10.519Z""","null","+","null","","","","","","",""
"","","","","","image-keyboard-response","287","564237","0.0-17.0-0.2-1.20","rfnkm5w9v2","","rfnkm5w9v2","""2024-11-12T18:53:10.519Z""","2366","materials/imgs/D46.png","arrowright","","[""materials/imgs/D57.png"",""materials/imgs/D96.png""]","false","random","","",""
"","","","","","html-keyboard-response","288","564739","0.0-17.0-1.2-0.2","rfnkm5w9v2","","rfnkm5w9v2","""2024-11-12T18:53:10.519Z""","null","+","null","","","","","","",""
"","","","","","image-keyboard-response","289","565302","0.0-17.0-1.2-1.2","rfnkm5w9v2","","rfnkm5w9v2","""2024-11-12T18:53:10.519Z""","561","materials/imgs/D101.png","arrowright","","[""materials/imgs/D106.png"",""materials/imgs/D101.png""]","","check","materials/imgs/D101.png","1","true"
"","","","","","html-keyboard-response","290","565804","0.0-17.0-2.2-0.4","rfnkm5w9v2","","rfnkm5w9v2","""2024-11-12T18:53:10.519Z""","null","+","null","","","","","","",""
"","","","","","image-keyboard-response","291","568261","0.0-17.0-2.2-1.4","rfnkm5w9v2","","rfnkm5w9v2","""2024-11-12T18:53:10.519Z""","2454","materials/imgs/D64.png","arrowright","","[""materials/imgs/D6.png"",""materials/imgs/D81.png""]","false","validation","","",""
"","","","","","html-keyboard-response","292","568761","0.0-17.0-2.2-0.5","rfnkm5w9v2","","rfnkm5w9v2","""2024-11-12T18:53:10.519Z""","null","+","null","","","","","","",""
"","","","","","image-keyboard-response","293","569362","0.0-17.0-2.2-1.5","rfnkm5w9v2","","rfnkm5w9v2","""2024-11-12T18:53:10.519Z""","598","materials/imgs/D24.png","arrowleft","","[""materials/imgs/D36.png"",""materials/imgs/D8.png""]","false","validation","","",""
"","","","","","html-keyboard-response","294","569863","0.0-17.0-0.3-0.21","rfnkm5w9v2","","rfnkm5w9v2","""2024-11-12T18:53:10.519Z""","null","+","null","","","","","","",""
"","","","","","image-keyboard-response","295","571496","0.0-17.0-0.3-1.21","rfnkm5w9v2","","rfnkm5w9v2","""2024-11-12T18:53:10.519Z""","1631","materials/imgs/D21.png","arrowleft","","[""materials/imgs/D79.png"",""materials/imgs/D81.png""]","false","random","","",""
"","","","","","html-keyboard-response","296","571997","0.0-17.0-0.3-0.22","rfnkm5w9v2","","rfnkm5w9v2","""2024-11-12T18:53:10.519Z""","null","+","null","","","","","","",""
"","","","","","image-keyboard-response","297","572605","0.0-17.0-0.3-1.22","rfnkm5w9v2","","rfnkm5w9v2","""2024-11-12T18:53:10.519Z""","605","materials/imgs/D52.png","arrowleft","","[""materials/imgs/D34.png"",""materials/imgs/D101.png""]","false","random","","",""
"","","","","","html-keyboard-response","298","573106","0.0-17.0-0.3-0.23","rfnkm5w9v2","","rfnkm5w9v2","""2024-11-12T18:53:10.519Z""","null","+","null","","","","","","",""
"","","","","","image-keyboard-response","299","574588","0.0-17.0-0.3-1.23","rfnkm5w9v2","","rfnkm5w9v2","""2024-11-12T18:53:10.519Z""","1480","materials/imgs/D81.png","arrowright","","[""materials/imgs/D64.png"",""materials/imgs/D92.png""]","false","random","","",""
"","","","","","html-keyboard-response","300","575090","0.0-17.0-0.3-0.24","rfnkm5w9v2","","rfnkm5w9v2","""2024-11-12T18:53:10.519Z""","null","+","null","","","","","","",""
"","","","","","image-keyboard-response","301","576387","0.0-17.0-0.3-1.24","rfnkm5w9v2","","rfnkm5w9v2","""2024-11-12T18:53:10.519Z""","1295","materials/imgs/D3.png","arrowright","","[""materials/imgs/D32.png"",""materials/imgs/D19.png""]","false","random","","",""
"","","","","","html-keyboard-response","302","576888","0.0-17.0-0.3-0.25","rfnkm5w9v2","","rfnkm5w9v2","""2024-11-12T18:53:10.519Z""","null","+","null","","","","","","",""
"","","","","","image-keyboard-response","303","579853","0.0-17.0-0.3-1.25","rfnkm5w9v2","","rfnkm5w9v2","""2024-11-12T18:53:10.519Z""","2962","materials/imgs/D65.png","arrowleft","","[""materials/imgs/D29.png"",""materials/imgs/D36.png""]","false","random","","",""
"","","","","","html-keyboard-response","304","580354","0.0-17.0-0.3-0.26","rfnkm5w9v2","","rfnkm5w9v2","""2024-11-12T18:53:10.519Z""","null","+","null","","","","","","",""
"","","","","","image-keyboard-response","305","581446","0.0-17.0-0.3-1.26","rfnkm5w9v2","","rfnkm5w9v2","""2024-11-12T18:53:10.519Z""","1089","materials/imgs/D32.png","arrowright","","[""materials/imgs/D25.png"",""materials/imgs/D84.png""]","false","random","","",""
"","","","","","html-keyboard-response","306","581948","0.0-17.0-0.3-0.27","rfnkm5w9v2","","rfnkm5w9v2","""2024-11-12T18:53:10.519Z""","null","+","null","","","","","","",""
"","","","","","image-keyboard-response","307","584015","0.0-17.0-0.3-1.27","rfnkm5w9v2","","rfnkm5w9v2","""2024-11-12T18:53:10.519Z""","2065","materials/imgs/D36.png","arrowright","","[""materials/imgs/D37.png"",""materials/imgs/D1.png""]","false","random","","",""
"","","","","","html-keyboard-response","308","584517","0.0-17.0-1.3-0.3","rfnkm5w9v2","","rfnkm5w9v2","""2024-11-12T18:53:10.519Z""","null","+","null","","","","","","",""
"","","","","","image-keyboard-response","309","585088","0.0-17.0-1.3-1.3","rfnkm5w9v2","","rfnkm5w9v2","""2024-11-12T18:53:10.519Z""","569","materials/imgs/D53.png","arrowright","","[""materials/imgs/D64.png"",""materials/imgs/D53.png""]","","check","materials/imgs/D53.png","1","true"
"","","","","","html-keyboard-response","310","585589","0.0-17.0-2.3-0.6","rfnkm5w9v2","","rfnkm5w9v2","""2024-11-12T18:53:10.519Z""","null","+","null","","","","","","",""
"","","","","","image-keyboard-response","311","586339","0.0-17.0-2.3-1.6","rfnkm5w9v2","","rfnkm5w9v2","""2024-11-12T18:53:10.519Z""","747","materials/imgs/D19.png","arrowleft","","[""materials/imgs/D111.png"",""materials/imgs/D56.png""]","false","validation","","",""
"","","","","","html-keyboard-response","312","586841","0.0-17.0-2.3-0.7","rfnkm5w9v2","","rfnkm5w9v2","""2024-11-12T18:53:10.519Z""","null","+","null","","","","","","",""
"","","","","","image-keyboard-response","313","588123","0.0-17.0-2.3-1.7","rfnkm5w9v2","","rfnkm5w9v2","""2024-11-12T18:53:10.519Z""","1280","materials/imgs/D106.png","arrowleft","","[""materials/imgs/D57.png"",""materials/imgs/D18.png""]","false","validation","","",""
"","","","","","html-keyboard-response","314","588624","0.0-17.0-0.4-0.28","rfnkm5w9v2","","rfnkm5w9v2","""2024-11-12T18:53:10.519Z""","null","+","null","","","","","","",""
"","","","","","image-keyboard-response","315","590975","0.0-17.0-0.4-1.28","rfnkm5w9v2","","rfnkm5w9v2","""2024-11-12T18:53:10.519Z""","2349","materials/imgs/D35.png","arrowleft","","[""materials/imgs/D101.png"",""materials/imgs/D81.png""]","false","random","","",""
"","","","","","html-keyboard-response","316","591476","0.0-17.0-0.4-0.29","rfnkm5w9v2","","rfnkm5w9v2","""2024-11-12T18:53:10.519Z""","null","+","null","","","","","","",""
"","","","","","image-keyboard-response","317","595120","0.0-17.0-0.4-1.29","rfnkm5w9v2","","rfnkm5w9v2","""2024-11-12T18:53:10.519Z""","3641","materials/imgs/D36.png","arrowright","","[""materials/imgs/D47.png"",""materials/imgs/D105.png""]","false","random","","",""
"","","","","","html-keyboard-response","318","595621","0.0-17.0-0.4-0.30","rfnkm5w9v2","","rfnkm5w9v2","""2024-11-12T18:53:10.519Z""","null","+","null","","","","","","",""
"","","","","","image-keyboard-response","319","598257","0.0-17.0-0.4-1.30","rfnkm5w9v2","","rfnkm5w9v2","""2024-11-12T18:53:10.519Z""","2633","materials/imgs/D80.png","arrowright","","[""materials/imgs/D102.png"",""materials/imgs/D18.png""]","false","random","","",""
"","","","","","html-keyboard-response","320","598758","0.0-17.0-0.4-0.31","rfnkm5w9v2","","rfnkm5w9v2","""2024-11-12T18:53:10.519Z""","null","+","null","","","","","","",""
"","","","","","image-keyboard-response","321","599864","0.0-17.0-0.4-1.31","rfnkm5w9v2","","rfnkm5w9v2","""2024-11-12T18:53:10.519Z""","1103","materials/imgs/D102.png","arrowright","","[""materials/imgs/D3.png"",""materials/imgs/D66.png""]","false","random","","",""
"","","","","","html-keyboard-response","322","600365","0.0-17.0-0.4-0.32","rfnkm5w9v2","","rfnkm5w9v2","""2024-11-12T18:53:10.519Z""","null","+","null","","","","","","",""
"","","","","","image-keyboard-response","323","601283","0.0-17.0-0.4-1.32","rfnkm5w9v2","","rfnkm5w9v2","""2024-11-12T18:53:10.519Z""","916","materials/imgs/D82.png","arrowright","","[""materials/imgs/D34.png"",""materials/imgs/D77.png""]","false","random","","",""
"","","","","","html-keyboard-response","324","601785","0.0-17.0-0.4-0.33","rfnkm5w9v2","","rfnkm5w9v2","""2024-11-12T18:53:10.519Z""","null","+","null","","","","","","",""
"","","","","","image-keyboard-response","325","603173","0.0-17.0-0.4-1.33","rfnkm5w9v2","","rfnkm5w9v2","""2024-11-12T18:53:10.519Z""","1385","materials/imgs/D78.png","arrowright","","[""materials/imgs/D95.png"",""materials/imgs/D9.png""]","false","random","","",""
"","","","","","html-keyboard-response","326","603674","0.0-17.0-0.4-0.34","rfnkm5w9v2","","rfnkm5w9v2","""2024-11-12T18:53:10.519Z""","null","+","null","","","","","","",""
"","","","","","image-keyboard-response","327","604533","0.0-17.0-0.4-1.34","rfnkm5w9v2","","rfnkm5w9v2","""2024-11-12T18:53:10.519Z""","857","materials/imgs/D16.png","arrowright","","[""materials/imgs/D19.png"",""materials/imgs/D4.png""]","false","random","","",""
"","","","","","html-keyboard-response","328","605035","0.0-17.0-1.4-0.4","rfnkm5w9v2","","rfnkm5w9v2","""2024-11-12T18:53:10.519Z""","null","+","null","","","","","","",""
"","","","","","image-keyboard-response","329","605641","0.0-17.0-1.4-1.4","rfnkm5w9v2","","rfnkm5w9v2","""2024-11-12T18:53:10.519Z""","604","materials/imgs/D64.png","arrowleft","","[""materials/imgs/D64.png"",""materials/imgs/D53.png""]","","check","materials/imgs/D64.png","0","true"
"","","","","","html-keyboard-response","330","606143","0.0-17.0-2.4-0.8","rfnkm5w9v2","","rfnkm5w9v2","""2024-11-12T18:53:10.519Z""","null","+","null","","","","","","",""
"","","","","","image-keyboard-response","331","606887","0.0-17.0-2.4-1.8","rfnkm5w9v2","","rfnkm5w9v2","""2024-11-12T18:53:10.519Z""","742","materials/imgs/D101.png","arrowright","","[""materials/imgs/D76.png"",""materials/imgs/D47.png""]","false","validation","","",""
"","","","","","html-keyboard-response","332","607388","0.0-17.0-2.4-0.9","rfnkm5w9v2","","rfnkm5w9v2","""2024-11-12T18:53:10.519Z""","null","+","null","","","","","","",""
"","","","","","image-keyboard-response","333","609582","0.0-17.0-2.4-1.9","rfnkm5w9v2","","rfnkm5w9v2","""2024-11-12T18:53:10.519Z""","2193","materials/imgs/D25.png","arrowright","","[""materials/imgs/D103.png"",""materials/imgs/D64.png""]","false","validation","","",""
"","","","","","html-button-response","334","610667","0.0-18.0","rfnkm5w9v2","","rfnkm5w9v2","""2024-11-12T18:53:10.519Z""","1083","You have completed 75% of the trials. Please click 'Continue' when you are ready proceed.","0","","","","","","",""
"","","","","","html-keyboard-response","335","611168","0.0-19.0-0.0-0.0","rfnkm5w9v2","","rfnkm5w9v2","""2024-11-12T18:53:10.519Z""","null","+","null","","","","","","",""
"","","","","","image-keyboard-response","336","611987","0.0-19.0-0.0-1.0","rfnkm5w9v2","","rfnkm5w9v2","""2024-11-12T18:53:10.519Z""","816","materials/imgs/D82.png","arrowright","","[""materials/imgs/D11.png"",""materials/imgs/D24.png""]","false","random","","",""
"","","","","","html-keyboard-response","337","612488","0.0-19.0-0.0-0.1","rfnkm5w9v2","","rfnkm5w9v2","""2024-11-12T18:53:10.519Z""","null","+","null","","","","","","",""
"","","","","","image-keyboard-response","338","613746","0.0-19.0-0.0-1.1","rfnkm5w9v2","","rfnkm5w9v2","""2024-11-12T18:53:10.519Z""","1256","materials/imgs/D96.png","arrowright","","[""materials/imgs/D76.png"",""materials/imgs/D64.png""]","false","random","","",""
"","","","","","html-keyboard-response","339","614248","0.0-19.0-0.0-0.2","rfnkm5w9v2","","rfnkm5w9v2","""2024-11-12T18:53:10.519Z""","null","+","null","","","","","","",""
"","","","","","image-keyboard-response","340","616396","0.0-19.0-0.0-1.2","rfnkm5w9v2","","rfnkm5w9v2","""2024-11-12T18:53:10.519Z""","2145","materials/imgs/D4.png","arrowright","","[""materials/imgs/D3.png"",""materials/imgs/D65.png""]","false","random","","",""
"","","","","","html-keyboard-response","341","616897","0.0-19.0-0.0-0.3","rfnkm5w9v2","","rfnkm5w9v2","""2024-11-12T18:53:10.519Z""","null","+","null","","","","","","",""
"","","","","","image-keyboard-response","342","617782","0.0-19.0-0.0-1.3","rfnkm5w9v2","","rfnkm5w9v2","""2024-11-12T18:53:10.519Z""","882","materials/imgs/D14.png","arrowright","","[""materials/imgs/D85.png"",""materials/imgs/D57.png""]","false","random","","",""
"","","","","","html-keyboard-response","343","618283","0.0-19.0-0.0-0.4","rfnkm5w9v2","","rfnkm5w9v2","""2024-11-12T18:53:10.519Z""","null","+","null","","","","","","",""
"","","","","","image-keyboard-response","344","619531","0.0-19.0-0.0-1.4","rfnkm5w9v2","","rfnkm5w9v2","""2024-11-12T18:53:10.519Z""","1245","materials/imgs/D52.png","arrowright","","[""materials/imgs/D106.png"",""materials/imgs/D4.png""]","false","random","","",""
"","","","","","html-keyboard-response","345","620033","0.0-19.0-0.0-0.5","rfnkm5w9v2","","rfnkm5w9v2","""2024-11-12T18:53:10.519Z""","null","+","null","","","","","","",""
"","","","","","image-keyboard-response","346","621402","0.0-19.0-0.0-1.5","rfnkm5w9v2","","rfnkm5w9v2","""2024-11-12T18:53:10.519Z""","1366","materials/imgs/D48.png","arrowright","","[""materials/imgs/D25.png"",""materials/imgs/D20.png""]","false","random","","",""
"","","","","","html-keyboard-response","347","621903","0.0-19.0-0.0-0.6","rfnkm5w9v2","","rfnkm5w9v2","""2024-11-12T18:53:10.519Z""","null","+","null","","","","","","",""
"","","","","","image-keyboard-response","348","622836","0.0-19.0-0.0-1.6","rfnkm5w9v2","","rfnkm5w9v2","""2024-11-12T18:53:10.519Z""","930","materials/imgs/D92.png","arrowleft","","[""materials/imgs/D80.png"",""materials/imgs/D20.png""]","false","random","","",""
"","","","","","html-keyboard-response","349","623337","0.0-19.0-1.0-0.0","rfnkm5w9v2","","rfnkm5w9v2","""2024-11-12T18:53:10.519Z""","null","+","null","","","","","","",""
"","","","","","image-keyboard-response","350","623837","0.0-19.0-1.0-1.0","rfnkm5w9v2","","rfnkm5w9v2","""2024-11-12T18:53:10.519Z""","498","materials/imgs/D53.png","arrowright","","[""materials/imgs/D64.png"",""materials/imgs/D53.png""]","","check","materials/imgs/D53.png","1","true"
"","","","","","html-keyboard-response","351","624338","0.0-19.0-2.0-0.0","rfnkm5w9v2","","rfnkm5w9v2","""2024-11-12T18:53:10.519Z""","null","+","null","","","","","","",""
"","","","","","image-keyboard-response","352","625262","0.0-19.0-2.0-1.0","rfnkm5w9v2","","rfnkm5w9v2","""2024-11-12T18:53:10.519Z""","922","materials/imgs/D57.png","arrowright","","[""materials/imgs/D111.png"",""materials/imgs/D4.png""]","false","validation","","",""
"","","","","","html-keyboard-response","353","625763","0.0-19.0-2.0-0.1","rfnkm5w9v2","","rfnkm5w9v2","""2024-11-12T18:53:10.519Z""","null","+","null","","","","","","",""
"","","","","","image-keyboard-response","354","626879","0.0-19.0-2.0-1.1","rfnkm5w9v2","","rfnkm5w9v2","""2024-11-12T18:53:10.519Z""","1114","materials/imgs/D8.png","arrowleft","","[""materials/imgs/D101.png"",""materials/imgs/D52.png""]","false","validation","","",""
"","","","","","html-keyboard-response","355","627381","0.0-19.0-0.1-0.7","rfnkm5w9v2","","rfnkm5w9v2","""2024-11-12T18:53:10.519Z""","null","+","null","","","","","","",""
"","","","","","image-keyboard-response","356","628193","0.0-19.0-0.1-1.7","rfnkm5w9v2","","rfnkm5w9v2","""2024-11-12T18:53:10.519Z""","810","materials/imgs/D105.png","arrowright","","[""materials/imgs/D37.png"",""materials/imgs/D14.png""]","false","random","","",""
"","","","","","html-keyboard-response","357","628695","0.0-19.0-0.1-0.8","rfnkm5w9v2","","rfnkm5w9v2","""2024-11-12T18:53:10.519Z""","null","+","null","","","","","","",""
"","","","","","image-keyboard-response","358","632319","0.0-19.0-0.1-1.8","rfnkm5w9v2","","rfnkm5w9v2","""2024-11-12T18:53:10.519Z""","3621","materials/imgs/D37.png","arrowright","","[""materials/imgs/D106.png"",""materials/imgs/D66.png""]","false","random","","",""
"","","","","","html-keyboard-response","359","632820","0.0-19.0-0.1-0.9","rfnkm5w9v2","","rfnkm5w9v2","""2024-11-12T18:53:10.519Z""","null","+","null","","","","","","",""
"","","","","","image-keyboard-response","360","633819","0.0-19.0-0.1-1.9","rfnkm5w9v2","","rfnkm5w9v2","""2024-11-12T18:53:10.519Z""","996","materials/imgs/D25.png","arrowleft","","[""materials/imgs/D9.png"",""materials/imgs/D87.png""]","false","random","","",""
"","","","","","html-keyboard-response","361","634320","0.0-19.0-0.1-0.10","rfnkm5w9v2","","rfnkm5w9v2","""2024-11-12T18:53:10.519Z""","null","+","null","","","","","","",""
"","","","","","image-keyboard-response","362","635208","0.0-19.0-0.1-1.10","rfnkm5w9v2","","rfnkm5w9v2","""2024-11-12T18:53:10.519Z""","886","materials/imgs/D65.png","arrowleft","","[""materials/imgs/D56.png"",""materials/imgs/D68.png""]","false","random","","",""
"","","","","","html-keyboard-response","363","635709","0.0-19.0-0.1-0.11","rfnkm5w9v2","","rfnkm5w9v2","""2024-11-12T18:53:10.519Z""","null","+","null","","","","","","",""
"","","","","","image-keyboard-response","364","637289","0.0-19.0-0.1-1.11","rfnkm5w9v2","","rfnkm5w9v2","""2024-11-12T18:53:10.519Z""","1577","materials/imgs/D1.png","arrowleft","","[""materials/imgs/D96.png"",""materials/imgs/D35.png""]","false","random","","",""
"","","","","","html-keyboard-response","365","637790","0.0-19.0-0.1-0.12","rfnkm5w9v2","","rfnkm5w9v2","""2024-11-12T18:53:10.519Z""","null","+","null","","","","","","",""
"","","","","","image-keyboard-response","366","638625","0.0-19.0-0.1-1.12","rfnkm5w9v2","","rfnkm5w9v2","""2024-11-12T18:53:10.519Z""","832","materials/imgs/D32.png","arrowleft","","[""materials/imgs/D101.png"",""materials/imgs/D75.png""]","false","random","","",""
"","","","","","html-keyboard-response","367","639126","0.0-19.0-0.1-0.13","rfnkm5w9v2","","rfnkm5w9v2","""2024-11-12T18:53:10.519Z""","null","+","null","","","","","","",""
"","","","","","image-keyboard-response","368","640421","0.0-19.0-0.1-1.13","rfnkm5w9v2","","rfnkm5w9v2","""2024-11-12T18:53:10.519Z""","1292","materials/imgs/D51.png","arrowright","","[""materials/imgs/D48.png"",""materials/imgs/D104.png""]","false","random","","",""
"","","","","","html-keyboard-response","369","640922","0.0-19.0-1.1-0.1","rfnkm5w9v2","","rfnkm5w9v2","""2024-11-12T18:53:10.519Z""","null","+","null","","","","","","",""
"","","","","","image-keyboard-response","370","641473","0.0-19.0-1.1-1.1","rfnkm5w9v2","","rfnkm5w9v2","""2024-11-12T18:53:10.519Z""","549","materials/imgs/D76.png","arrowleft","","[""materials/imgs/D76.png"",""materials/imgs/D78.png""]","","check","materials/imgs/D76.png","0","true"
"","","","","","html-keyboard-response","371","641975","0.0-19.0-2.1-0.2","rfnkm5w9v2","","rfnkm5w9v2","""2024-11-12T18:53:10.519Z""","null","+","null","","","","","","",""
"","","","","","image-keyboard-response","372","642629","0.0-19.0-2.1-1.2","rfnkm5w9v2","","rfnkm5w9v2","""2024-11-12T18:53:10.519Z""","652","materials/imgs/D25.png","arrowright","","[""materials/imgs/D103.png"",""materials/imgs/D64.png""]","false","validation","","",""
"","","","","","html-keyboard-response","373","643131","0.0-19.0-2.1-0.3","rfnkm5w9v2","","rfnkm5w9v2","""2024-11-12T18:53:10.519Z""","null","+","null","","","","","","",""
"","","","","","image-keyboard-response","374","644317","0.0-19.0-2.1-1.3","rfnkm5w9v2","","rfnkm5w9v2","""2024-11-12T18:53:10.519Z""","1184","materials/imgs/D96.png","arrowright","","[""materials/imgs/D46.png"",""materials/imgs/D18.png""]","false","validation","","",""
"","","","","","html-keyboard-response","375","644818","0.0-19.0-0.2-0.14","rfnkm5w9v2","","rfnkm5w9v2","""2024-11-12T18:53:10.519Z""","null","+","null","","","","","","",""
"","","","","","image-keyboard-response","376","703944","0.0-19.0-0.2-1.14","rfnkm5w9v2","","rfnkm5w9v2","""2024-11-12T18:53:10.519Z""","59121","materials/imgs/D9.png","arrowright","","[""materials/imgs/D52.png"",""materials/imgs/D103.png""]","false","random","","",""
"","","","","","html-keyboard-response","377","704446","0.0-19.0-0.2-0.15","rfnkm5w9v2","","rfnkm5w9v2","""2024-11-12T18:53:10.519Z""","null","+","null","","","","","","",""
"","","","","","image-keyboard-response","378","706437","0.0-19.0-0.2-1.15","rfnkm5w9v2","","rfnkm5w9v2","""2024-11-12T18:53:10.519Z""","1987","materials/imgs/D81.png","arrowleft","","[""materials/imgs/D80.png"",""materials/imgs/D37.png""]","false","random","","",""
"","","","","","html-keyboard-response","379","706939","0.0-19.0-0.2-0.16","rfnkm5w9v2","","rfnkm5w9v2","""2024-11-12T18:53:10.519Z""","null","+","null","","","","","","",""
"","","","","","image-keyboard-response","380","708306","0.0-19.0-0.2-1.16","rfnkm5w9v2","","rfnkm5w9v2","""2024-11-12T18:53:10.519Z""","1365","materials/imgs/D92.png","arrowright","","[""materials/imgs/D36.png"",""materials/imgs/D52.png""]","false","random","","",""
"","","","","","html-keyboard-response","381","708807","0.0-19.0-0.2-0.17","rfnkm5w9v2","","rfnkm5w9v2","""2024-11-12T18:53:10.519Z""","null","+","null","","","","","","",""
"","","","","","image-keyboard-response","382","711030","0.0-19.0-0.2-1.17","rfnkm5w9v2","","rfnkm5w9v2","""2024-11-12T18:53:10.519Z""","2219","materials/imgs/D101.png","arrowleft","","[""materials/imgs/D78.png"",""materials/imgs/D25.png""]","false","random","","",""
"","","","","","html-keyboard-response","383","711531","0.0-19.0-0.2-0.18","rfnkm5w9v2","","rfnkm5w9v2","""2024-11-12T18:53:10.519Z""","null","+","null","","","","","","",""
"","","","","","image-keyboard-response","384","712122","0.0-19.0-0.2-1.18","rfnkm5w9v2","","rfnkm5w9v2","""2024-11-12T18:53:10.519Z""","588","materials/imgs/D101.png","arrowleft","","[""materials/imgs/D65.png"",""materials/imgs/D14.png""]","false","random","","",""
"","","","","","html-keyboard-response","385","712623","0.0-19.0-0.2-0.19","rfnkm5w9v2","","rfnkm5w9v2","""2024-11-12T18:53:10.519Z""","null","+","null","","","","","","",""
"","","","","","image-keyboard-response","386","713975","0.0-19.0-0.2-1.19","rfnkm5w9v2","","rfnkm5w9v2","""2024-11-12T18:53:10.519Z""","1350","materials/imgs/D22.png","arrowright","","[""materials/imgs/D111.png"",""materials/imgs/D101.png""]","false","random","","",""
"","","","","","html-keyboard-response","387","714477","0.0-19.0-0.2-0.20","rfnkm5w9v2","","rfnkm5w9v2","""2024-11-12T18:53:10.519Z""","null","+","null","","","","","","",""
"","","","","","image-keyboard-response","388","715633","0.0-19.0-0.2-1.20","rfnkm5w9v2","","rfnkm5w9v2","""2024-11-12T18:53:10.519Z""","1153","materials/imgs/D14.png","arrowleft","","[""materials/imgs/D11.png"",""materials/imgs/D66.png""]","false","random","","",""
"","","","","","html-keyboard-response","389","716134","0.0-19.0-1.2-0.2","rfnkm5w9v2","","rfnkm5w9v2","""2024-11-12T18:53:10.519Z""","null","+","null","","","","","","",""
"","","","","","image-keyboard-response","390","716674","0.0-19.0-1.2-1.2","rfnkm5w9v2","","rfnkm5w9v2","""2024-11-12T18:53:10.519Z""","537","materials/imgs/D53.png","arrowright","","[""materials/imgs/D64.png"",""materials/imgs/D53.png""]","","check","materials/imgs/D53.png","1","true"
"","","","","","html-keyboard-response","391","717175","0.0-19.0-2.2-0.4","rfnkm5w9v2","","rfnkm5w9v2","""2024-11-12T18:53:10.519Z""","null","+","null","","","","","","",""
"","","","","","image-keyboard-response","392","718261","0.0-19.0-2.2-1.4","rfnkm5w9v2","","rfnkm5w9v2","""2024-11-12T18:53:10.519Z""","1081","materials/imgs/D85.png","arrowleft","","[""materials/imgs/D6.png"",""materials/imgs/D111.png""]","false","validation","","",""
"","","","","","html-keyboard-response","393","718762","0.0-19.0-2.2-0.5","rfnkm5w9v2","","rfnkm5w9v2","""2024-11-12T18:53:10.519Z""","null","+","null","","","","","","",""
"","","","","","image-keyboard-response","394","725701","0.0-19.0-2.2-1.5","rfnkm5w9v2","","rfnkm5w9v2","""2024-11-12T18:53:10.519Z""","6936","materials/imgs/D53.png","arrowleft","","[""materials/imgs/D77.png"",""materials/imgs/D75.png""]","false","validation","","",""
"","","","","","html-keyboard-response","395","726202","0.0-19.0-0.3-0.21","rfnkm5w9v2","","rfnkm5w9v2","""2024-11-12T18:53:10.519Z""","null","+","null","","","","","","",""
"","","","","","image-keyboard-response","396","727222","0.0-19.0-0.3-1.21","rfnkm5w9v2","","rfnkm5w9v2","""2024-11-12T18:53:10.519Z""","1017","materials/imgs/D101.png","arrowleft","","[""materials/imgs/D102.png"",""materials/imgs/D8.png""]","false","random","","",""
"","","","","","html-keyboard-response","397","727723","0.0-19.0-0.3-0.22","rfnkm5w9v2","","rfnkm5w9v2","""2024-11-12T18:53:10.519Z""","null","+","null","","","","","","",""
"","","","","","image-keyboard-response","398","728520","0.0-19.0-0.3-1.22","rfnkm5w9v2","","rfnkm5w9v2","""2024-11-12T18:53:10.519Z""","794","materials/imgs/D55.png","arrowleft","","[""materials/imgs/D36.png"",""materials/imgs/D57.png""]","false","random","","",""
"","","","","","html-keyboard-response","399","729021","0.0-19.0-0.3-0.23","rfnkm5w9v2","","rfnkm5w9v2","""2024-11-12T18:53:10.519Z""","null","+","null","","","","","","",""
"","","","","","image-keyboard-response","400","730298","0.0-19.0-0.3-1.23","rfnkm5w9v2","","rfnkm5w9v2","""2024-11-12T18:53:10.519Z""","1274","materials/imgs/D20.png","arrowleft","","[""materials/imgs/D103.png"",""materials/imgs/D1.png""]","false","random","","",""
"","","","","","html-keyboard-response","401","730800","0.0-19.0-0.3-0.24","rfnkm5w9v2","","rfnkm5w9v2","""2024-11-12T18:53:10.519Z""","null","+","null","","","","","","",""
"","","","","","image-keyboard-response","402","731500","0.0-19.0-0.3-1.24","rfnkm5w9v2","","rfnkm5w9v2","""2024-11-12T18:53:10.519Z""","698","materials/imgs/D64.png","arrowright","","[""materials/imgs/D82.png"",""materials/imgs/D8.png""]","false","random","","",""
"","","","","","html-keyboard-response","403","732002","0.0-19.0-0.3-0.25","rfnkm5w9v2","","rfnkm5w9v2","""2024-11-12T18:53:10.519Z""","null","+","null","","","","","","",""
"","","","","","image-keyboard-response","404","733006","0.0-19.0-0.3-1.25","rfnkm5w9v2","","rfnkm5w9v2","""2024-11-12T18:53:10.519Z""","1002","materials/imgs/D18.png","arrowright","","[""materials/imgs/D77.png"",""materials/imgs/D20.png""]","false","random","","",""
"","","","","","html-keyboard-response","405","733507","0.0-19.0-0.3-0.26","rfnkm5w9v2","","rfnkm5w9v2","""2024-11-12T18:53:10.519Z""","null","+","null","","","","","","",""
"","","","","","image-keyboard-response","406","735547","0.0-19.0-0.3-1.26","rfnkm5w9v2","","rfnkm5w9v2","""2024-11-12T18:53:10.519Z""","2038","materials/imgs/D96.png","arrowleft","","[""materials/imgs/D57.png"",""materials/imgs/D105.png""]","false","random","","",""
"","","","","","html-keyboard-response","407","736049","0.0-19.0-0.3-0.27","rfnkm5w9v2","","rfnkm5w9v2","""2024-11-12T18:53:10.519Z""","null","+","null","","","","","","",""
"","","","","","image-keyboard-response","408","736915","0.0-19.0-0.3-1.27","rfnkm5w9v2","","rfnkm5w9v2","""2024-11-12T18:53:10.519Z""","864","materials/imgs/D51.png","arrowright","","[""materials/imgs/D25.png"",""materials/imgs/D103.png""]","false","random","","",""
"","","","","","html-keyboard-response","409","737416","0.0-19.0-1.3-0.3","rfnkm5w9v2","","rfnkm5w9v2","""2024-11-12T18:53:10.519Z""","null","+","null","","","","","","",""
"","","","","","image-keyboard-response","410","737926","0.0-19.0-1.3-1.3","rfnkm5w9v2","","rfnkm5w9v2","""2024-11-12T18:53:10.519Z""","507","materials/imgs/D64.png","arrowleft","","[""materials/imgs/D64.png"",""materials/imgs/D53.png""]","","check","materials/imgs/D64.png","0","true"
"","","","","","html-keyboard-response","411","738428","0.0-19.0-2.3-0.6","rfnkm5w9v2","","rfnkm5w9v2","""2024-11-12T18:53:10.519Z""","null","+","null","","","","","","",""
"","","","","","image-keyboard-response","412","739009","0.0-19.0-2.3-1.6","rfnkm5w9v2","","rfnkm5w9v2","""2024-11-12T18:53:10.519Z""","579","materials/imgs/D53.png","arrowleft","","[""materials/imgs/D77.png"",""materials/imgs/D75.png""]","false","validation","","",""
"","","","","","html-keyboard-response","413","739511","0.0-19.0-2.3-0.7","rfnkm5w9v2","","rfnkm5w9v2","""2024-11-12T18:53:10.519Z""","null","+","null","","","","","","",""
"","","","","","image-keyboard-response","414","740163","0.0-19.0-2.3-1.7","rfnkm5w9v2","","rfnkm5w9v2","""2024-11-12T18:53:10.519Z""","650","materials/imgs/D47.png","arrowleft","","[""materials/imgs/D1.png"",""materials/imgs/D52.png""]","false","validation","","",""
"","","","","","html-keyboard-response","415","740664","0.0-19.0-0.4-0.28","rfnkm5w9v2","","rfnkm5w9v2","""2024-11-12T18:53:10.519Z""","null","+","null","","","","","","",""
"","","","","","image-keyboard-response","416","742642","0.0-19.0-0.4-1.28","rfnkm5w9v2","","rfnkm5w9v2","""2024-11-12T18:53:10.519Z""","1975","materials/imgs/D68.png","arrowleft","","[""materials/imgs/D53.png"",""materials/imgs/D21.png""]","false","random","","",""
"","","","","","html-keyboard-response","417","743144","0.0-19.0-0.4-0.29","rfnkm5w9v2","","rfnkm5w9v2","""2024-11-12T18:53:10.519Z""","null","+","null","","","","","","",""
"","","","","","image-keyboard-response","418","744076","0.0-19.0-0.4-1.29","rfnkm5w9v2","","rfnkm5w9v2","""2024-11-12T18:53:10.519Z""","930","materials/imgs/D102.png","arrowright","","[""materials/imgs/D79.png"",""materials/imgs/D75.png""]","false","random","","",""
"","","","","","html-keyboard-response","419","744578","0.0-19.0-0.4-0.30","rfnkm5w9v2","","rfnkm5w9v2","""2024-11-12T18:53:10.519Z""","null","+","null","","","","","","",""
"","","","","","image-keyboard-response","420","745234","0.0-19.0-0.4-1.30","rfnkm5w9v2","","rfnkm5w9v2","""2024-11-12T18:53:10.519Z""","653","materials/imgs/D52.png","arrowright","","[""materials/imgs/D68.png"",""materials/imgs/D55.png""]","false","random","","",""
"","","","","","html-keyboard-response","421","745735","0.0-19.0-0.4-0.31","rfnkm5w9v2","","rfnkm5w9v2","""2024-11-12T18:53:10.519Z""","null","+","null","","","","","","",""
"","","","","","image-keyboard-response","422","748961","0.0-19.0-0.4-1.31","rfnkm5w9v2","","rfnkm5w9v2","""2024-11-12T18:53:10.519Z""","3223","materials/imgs/D96.png","arrowright","","[""materials/imgs/D74.png"",""materials/imgs/D17.png""]","false","random","","",""
"","","","","","html-keyboard-response","423","749463","0.0-19.0-0.4-0.32","rfnkm5w9v2","","rfnkm5w9v2","""2024-11-12T18:53:10.519Z""","null","+","null","","","","","","",""
"","","","","","image-keyboard-response","424","750601","0.0-19.0-0.4-1.32","rfnkm5w9v2","","rfnkm5w9v2","""2024-11-12T18:53:10.519Z""","1135","materials/imgs/D24.png","arrowleft","","[""materials/imgs/D53.png"",""materials/imgs/D65.png""]","false","random","","",""
"","","","","","html-keyboard-response","425","751103","0.0-19.0-0.4-0.33","rfnkm5w9v2","","rfnkm5w9v2","""2024-11-12T18:53:10.519Z""","null","+","null","","","","","","",""
"","","","","","image-keyboard-response","426","752125","0.0-19.0-0.4-1.33","rfnkm5w9v2","","rfnkm5w9v2","""2024-11-12T18:53:10.519Z""","1021","materials/imgs/D80.png","arrowleft","","[""materials/imgs/D24.png"",""materials/imgs/D64.png""]","false","random","","",""
"","","","","","html-keyboard-response","427","752627","0.0-19.0-0.4-0.34","rfnkm5w9v2","","rfnkm5w9v2","""2024-11-12T18:53:10.519Z""","null","+","null","","","","","","",""
"","","","","","image-keyboard-response","428","753128","0.0-19.0-0.4-1.34","rfnkm5w9v2","","rfnkm5w9v2","""2024-11-12T18:53:10.519Z""","499","materials/imgs/D4.png","arrowright","","[""materials/imgs/D51.png"",""materials/imgs/D36.png""]","true","random","","",""
"","","","","","html-keyboard-response","429","757980","0.0-19.0-0.4-2.34-0.34","rfnkm5w9v2","","rfnkm5w9v2","""2024-11-12T18:53:10.519Z""","4851","<p><strong>You're going too fast.</strong><p>Please slow down and assess each triplet.<p>Press 'y' to continue.</p></p>","y","","","","","","",""
"","","","","","html-keyboard-response","430","758481","0.0-19.0-1.4-0.4","rfnkm5w9v2","","rfnkm5w9v2","""2024-11-12T18:53:10.519Z""","null","+","null","","","","","","",""
"","","","","","image-keyboard-response","431","760106","0.0-19.0-1.4-1.4","rfnkm5w9v2","","rfnkm5w9v2","""2024-11-12T18:53:10.519Z""","1623","materials/imgs/D64.png","arrowleft","","[""materials/imgs/D64.png"",""materials/imgs/D53.png""]","","check","materials/imgs/D64.png","0","true"
"","","","","","html-keyboard-response","432","760607","0.0-19.0-2.4-0.8","rfnkm5w9v2","","rfnkm5w9v2","""2024-11-12T18:53:10.519Z""","null","+","null","","","","","","",""
"","","","","","image-keyboard-response","433","762139","0.0-19.0-2.4-1.8","rfnkm5w9v2","","rfnkm5w9v2","""2024-11-12T18:53:10.519Z""","1530","materials/imgs/D49.png","arrowright","","[""materials/imgs/D8.png"",""materials/imgs/D101.png""]","false","validation","","",""
"","","","","","html-keyboard-response","434","762640","0.0-19.0-2.4-0.9","rfnkm5w9v2","","rfnkm5w9v2","""2024-11-12T18:53:10.519Z""","null","+","null","","","","","","",""
"","","","","","image-keyboard-response","435","764586","0.0-19.0-2.4-1.9","rfnkm5w9v2","","rfnkm5w9v2","""2024-11-12T18:53:10.519Z""","1943","materials/imgs/D68.png","arrowleft","","[""materials/imgs/D96.png"",""materials/imgs/D48.png""]","false","validation","","",""
