"success","timeout","failed_images","failed_audio","failed_video","trial_type","trial_index","time_elapsed","internal_node_id","subject_id","sona_id","subjectID","dateInfo","rt","stimulus","response","question_order","choices","speedy","sampleAlg","selected_image","selected_index","correct"
"true","false","[]","[]","[]","preload","0","1884","0.0-0.0","s7rv9njpr8","","s7rv9njpr8","""2024-11-13T03:22:18.954Z""","","","","","","","","","",""
"true","","","","","fullscreen","1","3894","0.0-1.0","s7rv9njpr8","","s7rv9njpr8","""2024-11-13T03:22:18.954Z""","","","","","","","","","",""
"","","","","","html-keyboard-response","2","3906","0.0-2.0","s7rv9njpr8","","s7rv9njpr8","""2024-11-13T03:22:18.954Z""","null","","null","","","","","","",""
"","","","","","html-button-response","3","5291","0.0-3.0","s7rv9njpr8","","s7rv9njpr8","""2024-11-13T03:22:18.954Z""","1383","<div style='text-align:center; font-size:20px; line-height:25px; width: 1200px;'>
                Welcome to our experiment! <br>
                <br>At the bottom of this screen, you will see a button that says 'Begin Experiment.
                <br>Please only click that button when you are ready to complete the 25 minute experiment in one sitting. <br>
                <br> Once you click that button, it will not be possible to restart the experiment. <br><br>","0","","","","","","",""
"true","","","","","fullscreen","4","7298","0.0-4.0","s7rv9njpr8","","s7rv9njpr8","""2024-11-13T03:22:18.954Z""","","","","","","","","","",""
"","","","","","survey-multi-select","5","10679","0.0-5.0","s7rv9njpr8","","s7rv9njpr8","""2024-11-13T03:22:18.954Z""","3376","","{""Consent"":[""<strong>I consent</strong>""]}","[0]","","","","","",""
"","","","","","html-button-response","6","11683","0.0-6.0","s7rv9njpr8","","s7rv9njpr8","""2024-11-13T03:22:18.954Z""","1002","Welcome! <p> This experiment involves two parts: demographic information, followed by the experimental task.<p> It will take about 25 minutes to complete both parts.","0","","","","","","",""
"","","","","","survey-text","7","24745","0.0-7.0","s7rv9njpr8","","s7rv9njpr8","""2024-11-13T03:22:18.954Z""","13059","","{""Age"":""18"",""Gender"":""Male"",""Race/ethnicity"":""White/Jewish""}","","","","","","",""
"","","","","","html-button-response","8","37569","0.0-8.0","s7rv9njpr8","","s7rv9njpr8","""2024-11-13T03:22:18.954Z""","12821","<div style='text-align: center;'>
      <p>In each trial of this task, you will see three texture images: one target item on top, and two choices beneath the target item.</p>
      <p><strong>Please select the item that is most like the target item.</strong></p>
      <p>To select the option on the <strong>LEFT</strong>, press the <strong>LEFT ARROW</strong> key. 
      To select the option on the <strong>RIGHT</strong>, press the <strong>RIGHT ARROW</strong> key.</p>
                  <!-- Target Image at the Top -->
      <div style='margin: 20px;'>
        <img src='materials/imgs/instruction_images/InstructionImg1D78.png' alt='Target Image' style='width:200px; height:auto;' />
        <p><em>Target Image</em></p>
      </div>

      <!-- Two Choice Images Below -->
      <div style='display: flex; justify-content: center;'>
        <div style='margin-right: 50px;'>
          <img src='materials/imgs/instruction_images/InstructionImg2D34.png' alt='Choice Image 1' style='width:150px; height:auto;' />
          <p><em><strong>LEFT ARROW</strong></em></p>
        </div>
        <div style='margin-left: 50px;'>
          <img src='materials/imgs/instruction_images/InstructionImg3D80.png' alt='Choice Image 2' style='width:150px; height:auto;' />
          <p><em><strong>RIGHT ARROW</strong></em></p>
        </div>
      </div>
    </div>

      <p>When you are ready to proceed, please click 'Continue' to begin practice.</p>","0","","","","","","",""
"","","","","","html-keyboard-response","9","40073","0.0-9.0","s7rv9njpr8","","s7rv9njpr8","""2024-11-13T03:22:18.954Z""","null","+","null","","","","","","",""
"","","","","","html-keyboard-response","10","40575","0.0-10.0-0.0-0.0","s7rv9njpr8","","s7rv9njpr8","""2024-11-13T03:22:18.954Z""","null","+","null","","","","","","",""
"","","","","","image-keyboard-response","11","41639","0.0-10.0-0.0-1.0","s7rv9njpr8","","s7rv9njpr8","""2024-11-13T03:22:18.954Z""","1058","materials/imgs/D92.png","arrowright","","[""materials/imgs/D106.png"",""materials/imgs/D111.png""]","false","random","","",""
"","","","","","html-keyboard-response","12","42141","0.0-10.0-0.0-0.1","s7rv9njpr8","","s7rv9njpr8","""2024-11-13T03:22:18.954Z""","null","+","null","","","","","","",""
"","","","","","image-keyboard-response","13","43633","0.0-10.0-0.0-1.1","s7rv9njpr8","","s7rv9njpr8","""2024-11-13T03:22:18.954Z""","1490","materials/imgs/D36.png","arrowright","","[""materials/imgs/D85.png"",""materials/imgs/D87.png""]","false","random","","",""
"","","","","","html-keyboard-response","14","44134","0.0-10.0-0.0-0.2","s7rv9njpr8","","s7rv9njpr8","""2024-11-13T03:22:18.954Z""","null","+","null","","","","","","",""
"","","","","","image-keyboard-response","15","45378","0.0-10.0-0.0-1.2","s7rv9njpr8","","s7rv9njpr8","""2024-11-13T03:22:18.954Z""","1242","materials/imgs/D9.png","arrowleft","","[""materials/imgs/D19.png"",""materials/imgs/D18.png""]","false","random","","",""
"","","","","","html-keyboard-response","16","45879","0.0-10.0-0.0-0.3","s7rv9njpr8","","s7rv9njpr8","""2024-11-13T03:22:18.954Z""","null","+","null","","","","","","",""
"","","","","","image-keyboard-response","17","47062","0.0-10.0-0.0-1.3","s7rv9njpr8","","s7rv9njpr8","""2024-11-13T03:22:18.954Z""","1181","materials/imgs/D96.png","arrowright","","[""materials/imgs/D74.png"",""materials/imgs/D83.png""]","false","random","","",""
"","","","","","html-keyboard-response","18","47563","0.0-10.0-0.0-0.4","s7rv9njpr8","","s7rv9njpr8","""2024-11-13T03:22:18.954Z""","null","+","null","","","","","","",""
"","","","","","image-keyboard-response","19","49345","0.0-10.0-0.0-1.4","s7rv9njpr8","","s7rv9njpr8","""2024-11-13T03:22:18.954Z""","1780","materials/imgs/D11.png","arrowright","","[""materials/imgs/D92.png"",""materials/imgs/D103.png""]","false","random","","",""
"","","","","","html-keyboard-response","20","49846","0.0-10.0-0.0-0.5","s7rv9njpr8","","s7rv9njpr8","""2024-11-13T03:22:18.954Z""","null","+","null","","","","","","",""
"","","","","","image-keyboard-response","21","53739","0.0-10.0-0.0-1.5","s7rv9njpr8","","s7rv9njpr8","""2024-11-13T03:22:18.954Z""","3892","materials/imgs/D20.png","arrowright","","[""materials/imgs/D14.png"",""materials/imgs/D102.png""]","false","random","","",""
"","","","","","html-keyboard-response","22","54240","0.0-10.0-0.0-0.6","s7rv9njpr8","","s7rv9njpr8","""2024-11-13T03:22:18.954Z""","null","+","null","","","","","","",""
"","","","","","image-keyboard-response","23","56116","0.0-10.0-0.0-1.6","s7rv9njpr8","","s7rv9njpr8","""2024-11-13T03:22:18.954Z""","1874","materials/imgs/D4.png","arrowright","","[""materials/imgs/D56.png"",""materials/imgs/D66.png""]","false","random","","",""
"","","","","","html-keyboard-response","24","56617","0.0-10.0-0.0-0.7","s7rv9njpr8","","s7rv9njpr8","""2024-11-13T03:22:18.954Z""","null","+","null","","","","","","",""
"","","","","","image-keyboard-response","25","57599","0.0-10.0-0.0-1.7","s7rv9njpr8","","s7rv9njpr8","""2024-11-13T03:22:18.954Z""","980","materials/imgs/D57.png","arrowleft","","[""materials/imgs/D77.png"",""materials/imgs/D26.png""]","false","random","","",""
"","","","","","html-keyboard-response","26","58100","0.0-10.0-0.0-0.8","s7rv9njpr8","","s7rv9njpr8","""2024-11-13T03:22:18.954Z""","null","+","null","","","","","","",""
"","","","","","image-keyboard-response","27","59588","0.0-10.0-0.0-1.8","s7rv9njpr8","","s7rv9njpr8","""2024-11-13T03:22:18.954Z""","1486","materials/imgs/D92.png","arrowright","","[""materials/imgs/D68.png"",""materials/imgs/D1.png""]","false","random","","",""
"","","","","","html-keyboard-response","28","60089","0.0-10.0-0.0-0.9","s7rv9njpr8","","s7rv9njpr8","""2024-11-13T03:22:18.954Z""","null","+","null","","","","","","",""
"","","","","","image-keyboard-response","29","61398","0.0-10.0-0.0-1.9","s7rv9njpr8","","s7rv9njpr8","""2024-11-13T03:22:18.954Z""","1307","materials/imgs/D48.png","arrowright","","[""materials/imgs/D96.png"",""materials/imgs/D102.png""]","false","random","","",""
"","","","","","html-button-response","30","67626","0.0-11.0","s7rv9njpr8","","s7rv9njpr8","""2024-11-13T03:22:18.954Z""","6227","<p>Great job!</p>
      <p>You are now ready to begin the experiment.</p>
      <p>There will be around 200 trials. You will have opportunities to take breaks at three stages of the trials.</p>
      <p>When you are ready to begin please click 'Continue'.</p>","0","","","","","","",""
"","","","","","html-keyboard-response","31","70129","0.0-12.0","s7rv9njpr8","","s7rv9njpr8","""2024-11-13T03:22:18.954Z""","null","+","null","","","","","","",""
"","","","","","html-keyboard-response","32","70631","0.0-13.0-0.0-0.0","s7rv9njpr8","","s7rv9njpr8","""2024-11-13T03:22:18.954Z""","null","+","null","","","","","","",""
"","","","","","image-keyboard-response","33","72227","0.0-13.0-0.0-1.0","s7rv9njpr8","","s7rv9njpr8","""2024-11-13T03:22:18.954Z""","1594","materials/imgs/D66.png","arrowright","","[""materials/imgs/D105.png"",""materials/imgs/D79.png""]","false","random","","",""
"","","","","","html-keyboard-response","34","72730","0.0-13.0-0.0-0.1","s7rv9njpr8","","s7rv9njpr8","""2024-11-13T03:22:18.954Z""","null","+","null","","","","","","",""
"","","","","","image-keyboard-response","35","73652","0.0-13.0-0.0-1.1","s7rv9njpr8","","s7rv9njpr8","""2024-11-13T03:22:18.954Z""","920","materials/imgs/D9.png","arrowleft","","[""materials/imgs/D24.png"",""materials/imgs/D47.png""]","false","random","","",""
"","","","","","html-keyboard-response","36","74153","0.0-13.0-0.0-0.2","s7rv9njpr8","","s7rv9njpr8","""2024-11-13T03:22:18.954Z""","null","+","null","","","","","","",""
"","","","","","image-keyboard-response","37","76091","0.0-13.0-0.0-1.2","s7rv9njpr8","","s7rv9njpr8","""2024-11-13T03:22:18.954Z""","1937","materials/imgs/D51.png","arrowright","","[""materials/imgs/D102.png"",""materials/imgs/D25.png""]","false","random","","",""
"","","","","","html-keyboard-response","38","76592","0.0-13.0-0.0-0.3","s7rv9njpr8","","s7rv9njpr8","""2024-11-13T03:22:18.954Z""","null","+","null","","","","","","",""
"","","","","","image-keyboard-response","39","78981","0.0-13.0-0.0-1.3","s7rv9njpr8","","s7rv9njpr8","""2024-11-13T03:22:18.954Z""","2387","materials/imgs/D25.png","arrowright","","[""materials/imgs/D92.png"",""materials/imgs/D81.png""]","false","random","","",""
"","","","","","html-keyboard-response","40","79483","0.0-13.0-0.0-0.4","s7rv9njpr8","","s7rv9njpr8","""2024-11-13T03:22:18.954Z""","null","+","null","","","","","","",""
"","","","","","image-keyboard-response","41","81777","0.0-13.0-0.0-1.4","s7rv9njpr8","","s7rv9njpr8","""2024-11-13T03:22:18.954Z""","2292","materials/imgs/D102.png","arrowright","","[""materials/imgs/D51.png"",""materials/imgs/D47.png""]","false","random","","",""
"","","","","","html-keyboard-response","42","82279","0.0-13.0-0.0-0.5","s7rv9njpr8","","s7rv9njpr8","""2024-11-13T03:22:18.954Z""","null","+","null","","","","","","",""
"","","","","","image-keyboard-response","43","84395","0.0-13.0-0.0-1.5","s7rv9njpr8","","s7rv9njpr8","""2024-11-13T03:22:18.954Z""","2114","materials/imgs/D75.png","arrowleft","","[""materials/imgs/D68.png"",""materials/imgs/D106.png""]","false","random","","",""
"","","","","","html-keyboard-response","44","84896","0.0-13.0-0.0-0.6","s7rv9njpr8","","s7rv9njpr8","""2024-11-13T03:22:18.954Z""","null","+","null","","","","","","",""
"","","","","","image-keyboard-response","45","86355","0.0-13.0-0.0-1.6","s7rv9njpr8","","s7rv9njpr8","""2024-11-13T03:22:18.954Z""","1457","materials/imgs/D4.png","arrowleft","","[""materials/imgs/D75.png"",""materials/imgs/D26.png""]","false","random","","",""
"","","","","","html-keyboard-response","46","86857","0.0-13.0-1.0-0.0","s7rv9njpr8","","s7rv9njpr8","""2024-11-13T03:22:18.954Z""","null","+","null","","","","","","",""
"","","","","","image-keyboard-response","47","90110","0.0-13.0-1.0-1.0","s7rv9njpr8","","s7rv9njpr8","""2024-11-13T03:22:18.954Z""","3251","materials/imgs/D78.png","arrowright","","[""materials/imgs/D76.png"",""materials/imgs/D78.png""]","","check","materials/imgs/D78.png","1","true"
"","","","","","html-keyboard-response","48","90611","0.0-13.0-2.0-0.0","s7rv9njpr8","","s7rv9njpr8","""2024-11-13T03:22:18.954Z""","null","+","null","","","","","","",""
"","","","","","image-keyboard-response","49","92000","0.0-13.0-2.0-1.0","s7rv9njpr8","","s7rv9njpr8","""2024-11-13T03:22:18.954Z""","1386","materials/imgs/D20.png","arrowleft","","[""materials/imgs/D84.png"",""materials/imgs/D85.png""]","false","validation","","",""
"","","","","","html-keyboard-response","50","92501","0.0-13.0-2.0-0.1","s7rv9njpr8","","s7rv9njpr8","""2024-11-13T03:22:18.954Z""","null","+","null","","","","","","",""
"","","","","","image-keyboard-response","51","93906","0.0-13.0-2.0-1.1","s7rv9njpr8","","s7rv9njpr8","""2024-11-13T03:22:18.954Z""","1404","materials/imgs/D32.png","arrowleft","","[""materials/imgs/D68.png"",""materials/imgs/D96.png""]","false","validation","","",""
"","","","","","html-keyboard-response","52","94407","0.0-13.0-0.1-0.7","s7rv9njpr8","","s7rv9njpr8","""2024-11-13T03:22:18.954Z""","null","+","null","","","","","","",""
"","","","","","image-keyboard-response","53","95446","0.0-13.0-0.1-1.7","s7rv9njpr8","","s7rv9njpr8","""2024-11-13T03:22:18.954Z""","1037","materials/imgs/D24.png","arrowright","","[""materials/imgs/D21.png"",""materials/imgs/D101.png""]","false","random","","",""
"","","","","","html-keyboard-response","54","95948","0.0-13.0-0.1-0.8","s7rv9njpr8","","s7rv9njpr8","""2024-11-13T03:22:18.954Z""","null","+","null","","","","","","",""
"","","","","","image-keyboard-response","55","97050","0.0-13.0-0.1-1.8","s7rv9njpr8","","s7rv9njpr8","""2024-11-13T03:22:18.954Z""","1100","materials/imgs/D84.png","arrowright","","[""materials/imgs/D56.png"",""materials/imgs/D24.png""]","false","random","","",""
"","","","","","html-keyboard-response","56","97551","0.0-13.0-0.1-0.9","s7rv9njpr8","","s7rv9njpr8","""2024-11-13T03:22:18.954Z""","null","+","null","","","","","","",""
"","","","","","image-keyboard-response","57","98496","0.0-13.0-0.1-1.9","s7rv9njpr8","","s7rv9njpr8","""2024-11-13T03:22:18.954Z""","943","materials/imgs/D64.png","arrowright","","[""materials/imgs/D105.png"",""materials/imgs/D94.png""]","false","random","","",""
"","","","","","html-keyboard-response","58","98997","0.0-13.0-0.1-0.10","s7rv9njpr8","","s7rv9njpr8","""2024-11-13T03:22:18.954Z""","null","+","null","","","","","","",""
"","","","","","image-keyboard-response","59","99735","0.0-13.0-0.1-1.10","s7rv9njpr8","","s7rv9njpr8","""2024-11-13T03:22:18.954Z""","736","materials/imgs/D48.png","arrowleft","","[""materials/imgs/D52.png"",""materials/imgs/D16.png""]","false","random","","",""
"","","","","","html-keyboard-response","60","100236","0.0-13.0-0.1-0.11","s7rv9njpr8","","s7rv9njpr8","""2024-11-13T03:22:18.954Z""","null","+","null","","","","","","",""
"","","","","","image-keyboard-response","61","101003","0.0-13.0-0.1-1.11","s7rv9njpr8","","s7rv9njpr8","""2024-11-13T03:22:18.954Z""","766","materials/imgs/D24.png","arrowright","","[""materials/imgs/D75.png"",""materials/imgs/D87.png""]","false","random","","",""
"","","","","","html-keyboard-response","62","101505","0.0-13.0-0.1-0.12","s7rv9njpr8","","s7rv9njpr8","""2024-11-13T03:22:18.954Z""","null","+","null","","","","","","",""
"","","","","","image-keyboard-response","63","102344","0.0-13.0-0.1-1.12","s7rv9njpr8","","s7rv9njpr8","""2024-11-13T03:22:18.954Z""","837","materials/imgs/D53.png","arrowleft","","[""materials/imgs/D83.png"",""materials/imgs/D87.png""]","false","random","","",""
"","","","","","html-keyboard-response","64","102845","0.0-13.0-0.1-0.13","s7rv9njpr8","","s7rv9njpr8","""2024-11-13T03:22:18.954Z""","null","+","null","","","","","","",""
"","","","","","image-keyboard-response","65","104436","0.0-13.0-0.1-1.13","s7rv9njpr8","","s7rv9njpr8","""2024-11-13T03:22:18.954Z""","1590","materials/imgs/D25.png","arrowleft","","[""materials/imgs/D104.png"",""materials/imgs/D21.png""]","false","random","","",""
"","","","","","html-keyboard-response","66","104938","0.0-13.0-1.1-0.1","s7rv9njpr8","","s7rv9njpr8","""2024-11-13T03:22:18.954Z""","null","+","null","","","","","","",""
"","","","","","image-keyboard-response","67","105633","0.0-13.0-1.1-1.1","s7rv9njpr8","","s7rv9njpr8","""2024-11-13T03:22:18.954Z""","694","materials/imgs/D106.png","arrowleft","","[""materials/imgs/D106.png"",""materials/imgs/D101.png""]","","check","materials/imgs/D106.png","0","true"
"","","","","","html-keyboard-response","68","106134","0.0-13.0-2.1-0.2","s7rv9njpr8","","s7rv9njpr8","""2024-11-13T03:22:18.954Z""","null","+","null","","","","","","",""
"","","","","","image-keyboard-response","69","107036","0.0-13.0-2.1-1.2","s7rv9njpr8","","s7rv9njpr8","""2024-11-13T03:22:18.954Z""","901","materials/imgs/D19.png","arrowleft","","[""materials/imgs/D111.png"",""materials/imgs/D56.png""]","false","validation","","",""
"","","","","","html-keyboard-response","70","107538","0.0-13.0-2.1-0.3","s7rv9njpr8","","s7rv9njpr8","""2024-11-13T03:22:18.954Z""","null","+","null","","","","","","",""
"","","","","","image-keyboard-response","71","111540","0.0-13.0-2.1-1.3","s7rv9njpr8","","s7rv9njpr8","""2024-11-13T03:22:18.954Z""","4001","materials/imgs/D18.png","arrowright","","[""materials/imgs/D32.png"",""materials/imgs/D57.png""]","false","validation","","",""
"","","","","","html-keyboard-response","72","112042","0.0-13.0-0.2-0.14","s7rv9njpr8","","s7rv9njpr8","""2024-11-13T03:22:18.954Z""","null","+","null","","","","","","",""
"","","","","","image-keyboard-response","73","114924","0.0-13.0-0.2-1.14","s7rv9njpr8","","s7rv9njpr8","""2024-11-13T03:22:18.954Z""","2880","materials/imgs/D37.png","arrowleft","","[""materials/imgs/D68.png"",""materials/imgs/D85.png""]","false","random","","",""
"","","","","","html-keyboard-response","74","115425","0.0-13.0-0.2-0.15","s7rv9njpr8","","s7rv9njpr8","""2024-11-13T03:22:18.954Z""","null","+","null","","","","","","",""
"","","","","","image-keyboard-response","75","116569","0.0-13.0-0.2-1.15","s7rv9njpr8","","s7rv9njpr8","""2024-11-13T03:22:18.954Z""","1142","materials/imgs/D20.png","arrowright","","[""materials/imgs/D106.png"",""materials/imgs/D82.png""]","false","random","","",""
"","","","","","html-keyboard-response","76","117070","0.0-13.0-0.2-0.16","s7rv9njpr8","","s7rv9njpr8","""2024-11-13T03:22:18.954Z""","null","+","null","","","","","","",""
"","","","","","image-keyboard-response","77","118649","0.0-13.0-0.2-1.16","s7rv9njpr8","","s7rv9njpr8","""2024-11-13T03:22:18.954Z""","1578","materials/imgs/D9.png","arrowright","","[""materials/imgs/D21.png"",""materials/imgs/D82.png""]","false","random","","",""
"","","","","","html-keyboard-response","78","119150","0.0-13.0-0.2-0.17","s7rv9njpr8","","s7rv9njpr8","""2024-11-13T03:22:18.954Z""","null","+","null","","","","","","",""
"","","","","","image-keyboard-response","79","120497","0.0-13.0-0.2-1.17","s7rv9njpr8","","s7rv9njpr8","""2024-11-13T03:22:18.954Z""","1345","materials/imgs/D35.png","arrowleft","","[""materials/imgs/D4.png"",""materials/imgs/D105.png""]","false","random","","",""
"","","","","","html-keyboard-response","80","120998","0.0-13.0-0.2-0.18","s7rv9njpr8","","s7rv9njpr8","""2024-11-13T03:22:18.954Z""","null","+","null","","","","","","",""
"","","","","","image-keyboard-response","81","121983","0.0-13.0-0.2-1.18","s7rv9njpr8","","s7rv9njpr8","""2024-11-13T03:22:18.954Z""","984","materials/imgs/D14.png","arrowleft","","[""materials/imgs/D55.png"",""materials/imgs/D37.png""]","false","random","","",""
"","","","","","html-keyboard-response","82","122485","0.0-13.0-0.2-0.19","s7rv9njpr8","","s7rv9njpr8","""2024-11-13T03:22:18.954Z""","null","+","null","","","","","","",""
"","","","","","image-keyboard-response","83","123388","0.0-13.0-0.2-1.19","s7rv9njpr8","","s7rv9njpr8","""2024-11-13T03:22:18.954Z""","902","materials/imgs/D26.png","arrowright","","[""materials/imgs/D18.png"",""materials/imgs/D22.png""]","false","random","","",""
"","","","","","html-keyboard-response","84","123889","0.0-13.0-0.2-0.20","s7rv9njpr8","","s7rv9njpr8","""2024-11-13T03:22:18.954Z""","null","+","null","","","","","","",""
"","","","","","image-keyboard-response","85","125276","0.0-13.0-0.2-1.20","s7rv9njpr8","","s7rv9njpr8","""2024-11-13T03:22:18.954Z""","1385","materials/imgs/D94.png","arrowleft","","[""materials/imgs/D36.png"",""materials/imgs/D85.png""]","false","random","","",""
"","","","","","html-keyboard-response","86","125777","0.0-13.0-1.2-0.2","s7rv9njpr8","","s7rv9njpr8","""2024-11-13T03:22:18.954Z""","null","+","null","","","","","","",""
"","","","","","image-keyboard-response","87","126560","0.0-13.0-1.2-1.2","s7rv9njpr8","","s7rv9njpr8","""2024-11-13T03:22:18.954Z""","781","materials/imgs/D64.png","arrowleft","","[""materials/imgs/D64.png"",""materials/imgs/D53.png""]","","check","materials/imgs/D64.png","0","true"
"","","","","","html-keyboard-response","88","127062","0.0-13.0-2.2-0.4","s7rv9njpr8","","s7rv9njpr8","""2024-11-13T03:22:18.954Z""","null","+","null","","","","","","",""
"","","","","","image-keyboard-response","89","128562","0.0-13.0-2.2-1.4","s7rv9njpr8","","s7rv9njpr8","""2024-11-13T03:22:18.954Z""","1499","materials/imgs/D49.png","arrowright","","[""materials/imgs/D8.png"",""materials/imgs/D101.png""]","false","validation","","",""
"","","","","","html-keyboard-response","90","129063","0.0-13.0-2.2-0.5","s7rv9njpr8","","s7rv9njpr8","""2024-11-13T03:22:18.954Z""","null","+","null","","","","","","",""
"","","","","","image-keyboard-response","91","129933","0.0-13.0-2.2-1.5","s7rv9njpr8","","s7rv9njpr8","""2024-11-13T03:22:18.954Z""","868","materials/imgs/D68.png","arrowleft","","[""materials/imgs/D96.png"",""materials/imgs/D48.png""]","false","validation","","",""
"","","","","","html-keyboard-response","92","130434","0.0-13.0-0.3-0.21","s7rv9njpr8","","s7rv9njpr8","""2024-11-13T03:22:18.954Z""","null","+","null","","","","","","",""
"","","","","","image-keyboard-response","93","131737","0.0-13.0-0.3-1.21","s7rv9njpr8","","s7rv9njpr8","""2024-11-13T03:22:18.954Z""","1301","materials/imgs/D78.png","arrowright","","[""materials/imgs/D111.png"",""materials/imgs/D35.png""]","false","random","","",""
"","","","","","html-keyboard-response","94","132237","0.0-13.0-0.3-0.22","s7rv9njpr8","","s7rv9njpr8","""2024-11-13T03:22:18.954Z""","null","+","null","","","","","","",""
"","","","","","image-keyboard-response","95","134454","0.0-13.0-0.3-1.22","s7rv9njpr8","","s7rv9njpr8","""2024-11-13T03:22:18.954Z""","2215","materials/imgs/D24.png","arrowright","","[""materials/imgs/D64.png"",""materials/imgs/D103.png""]","false","random","","",""
"","","","","","html-keyboard-response","96","134956","0.0-13.0-0.3-0.23","s7rv9njpr8","","s7rv9njpr8","""2024-11-13T03:22:18.954Z""","null","+","null","","","","","","",""
"","","","","","image-keyboard-response","97","136019","0.0-13.0-0.3-1.23","s7rv9njpr8","","s7rv9njpr8","""2024-11-13T03:22:18.954Z""","1062","materials/imgs/D79.png","arrowright","","[""materials/imgs/D101.png"",""materials/imgs/D80.png""]","false","random","","",""
"","","","","","html-keyboard-response","98","136520","0.0-13.0-0.3-0.24","s7rv9njpr8","","s7rv9njpr8","""2024-11-13T03:22:18.954Z""","null","+","null","","","","","","",""
"","","","","","image-keyboard-response","99","138648","0.0-13.0-0.3-1.24","s7rv9njpr8","","s7rv9njpr8","""2024-11-13T03:22:18.954Z""","2127","materials/imgs/D20.png","arrowright","","[""materials/imgs/D79.png"",""materials/imgs/D78.png""]","false","random","","",""
"","","","","","html-keyboard-response","100","139149","0.0-13.0-0.3-0.25","s7rv9njpr8","","s7rv9njpr8","""2024-11-13T03:22:18.954Z""","null","+","null","","","","","","",""
"","","","","","image-keyboard-response","101","139941","0.0-13.0-0.3-1.25","s7rv9njpr8","","s7rv9njpr8","""2024-11-13T03:22:18.954Z""","790","materials/imgs/D47.png","arrowleft","","[""materials/imgs/D53.png"",""materials/imgs/D46.png""]","false","random","","",""
"","","","","","html-keyboard-response","102","140443","0.0-13.0-0.3-0.26","s7rv9njpr8","","s7rv9njpr8","""2024-11-13T03:22:18.954Z""","null","+","null","","","","","","",""
"","","","","","image-keyboard-response","103","141241","0.0-13.0-0.3-1.26","s7rv9njpr8","","s7rv9njpr8","""2024-11-13T03:22:18.954Z""","797","materials/imgs/D6.png","arrowright","","[""materials/imgs/D87.png"",""materials/imgs/D83.png""]","false","random","","",""
"","","","","","html-keyboard-response","104","141743","0.0-13.0-0.3-0.27","s7rv9njpr8","","s7rv9njpr8","""2024-11-13T03:22:18.954Z""","null","+","null","","","","","","",""
"","","","","","image-keyboard-response","105","142593","0.0-13.0-0.3-1.27","s7rv9njpr8","","s7rv9njpr8","""2024-11-13T03:22:18.954Z""","848","materials/imgs/D74.png","arrowleft","","[""materials/imgs/D46.png"",""materials/imgs/D68.png""]","false","random","","",""
"","","","","","html-keyboard-response","106","143094","0.0-13.0-1.3-0.3","s7rv9njpr8","","s7rv9njpr8","""2024-11-13T03:22:18.954Z""","null","+","null","","","","","","",""
"","","","","","image-keyboard-response","107","143920","0.0-13.0-1.3-1.3","s7rv9njpr8","","s7rv9njpr8","""2024-11-13T03:22:18.954Z""","824","materials/imgs/D18.png","arrowright","","[""materials/imgs/D8.png"",""materials/imgs/D18.png""]","","check","materials/imgs/D18.png","1","true"
"","","","","","html-keyboard-response","108","144421","0.0-13.0-2.3-0.6","s7rv9njpr8","","s7rv9njpr8","""2024-11-13T03:22:18.954Z""","null","+","null","","","","","","",""
"","","","","","image-keyboard-response","109","148069","0.0-13.0-2.3-1.6","s7rv9njpr8","","s7rv9njpr8","""2024-11-13T03:22:18.954Z""","3646","materials/imgs/D75.png","arrowright","","[""materials/imgs/D96.png"",""materials/imgs/D4.png""]","false","validation","","",""
"","","","","","html-keyboard-response","110","148570","0.0-13.0-2.3-0.7","s7rv9njpr8","","s7rv9njpr8","""2024-11-13T03:22:18.954Z""","null","+","null","","","","","","",""
"","","","","","image-keyboard-response","111","149612","0.0-13.0-2.3-1.7","s7rv9njpr8","","s7rv9njpr8","""2024-11-13T03:22:18.954Z""","1041","materials/imgs/D46.png","arrowleft","","[""materials/imgs/D92.png"",""materials/imgs/D77.png""]","false","validation","","",""
"","","","","","html-keyboard-response","112","150113","0.0-13.0-0.4-0.28","s7rv9njpr8","","s7rv9njpr8","""2024-11-13T03:22:18.954Z""","null","+","null","","","","","","",""
"","","","","","image-keyboard-response","113","151336","0.0-13.0-0.4-1.28","s7rv9njpr8","","s7rv9njpr8","""2024-11-13T03:22:18.954Z""","1220","materials/imgs/D76.png","arrowright","","[""materials/imgs/D111.png"",""materials/imgs/D65.png""]","false","random","","",""
"","","","","","html-keyboard-response","114","151836","0.0-13.0-0.4-0.29","s7rv9njpr8","","s7rv9njpr8","""2024-11-13T03:22:18.954Z""","null","+","null","","","","","","",""
"","","","","","image-keyboard-response","115","153404","0.0-13.0-0.4-1.29","s7rv9njpr8","","s7rv9njpr8","""2024-11-13T03:22:18.954Z""","1565","materials/imgs/D66.png","arrowright","","[""materials/imgs/D49.png"",""materials/imgs/D47.png""]","false","random","","",""
"","","","","","html-keyboard-response","116","153905","0.0-13.0-0.4-0.30","s7rv9njpr8","","s7rv9njpr8","""2024-11-13T03:22:18.954Z""","null","+","null","","","","","","",""
"","","","","","image-keyboard-response","117","154621","0.0-13.0-0.4-1.30","s7rv9njpr8","","s7rv9njpr8","""2024-11-13T03:22:18.954Z""","715","materials/imgs/D21.png","arrowleft","","[""materials/imgs/D17.png"",""materials/imgs/D32.png""]","false","random","","",""
"","","","","","html-keyboard-response","118","155122","0.0-13.0-0.4-0.31","s7rv9njpr8","","s7rv9njpr8","""2024-11-13T03:22:18.954Z""","null","+","null","","","","","","",""
"","","","","","image-keyboard-response","119","156150","0.0-13.0-0.4-1.31","s7rv9njpr8","","s7rv9njpr8","""2024-11-13T03:22:18.954Z""","1026","materials/imgs/D85.png","arrowleft","","[""materials/imgs/D8.png"",""materials/imgs/D74.png""]","false","random","","",""
"","","","","","html-keyboard-response","120","156651","0.0-13.0-0.4-0.32","s7rv9njpr8","","s7rv9njpr8","""2024-11-13T03:22:18.954Z""","null","+","null","","","","","","",""
"","","","","","image-keyboard-response","121","157800","0.0-13.0-0.4-1.32","s7rv9njpr8","","s7rv9njpr8","""2024-11-13T03:22:18.954Z""","1147","materials/imgs/D56.png","arrowleft","","[""materials/imgs/D21.png"",""materials/imgs/D9.png""]","false","random","","",""
"","","","","","html-keyboard-response","122","158301","0.0-13.0-0.4-0.33","s7rv9njpr8","","s7rv9njpr8","""2024-11-13T03:22:18.954Z""","null","+","null","","","","","","",""
"","","","","","image-keyboard-response","123","159123","0.0-13.0-0.4-1.33","s7rv9njpr8","","s7rv9njpr8","""2024-11-13T03:22:18.954Z""","821","materials/imgs/D18.png","arrowright","","[""materials/imgs/D4.png"",""materials/imgs/D87.png""]","false","random","","",""
"","","","","","html-keyboard-response","124","159625","0.0-13.0-0.4-0.34","s7rv9njpr8","","s7rv9njpr8","""2024-11-13T03:22:18.954Z""","null","+","null","","","","","","",""
"","","","","","image-keyboard-response","125","160959","0.0-13.0-0.4-1.34","s7rv9njpr8","","s7rv9njpr8","""2024-11-13T03:22:18.954Z""","1332","materials/imgs/D6.png","arrowleft","","[""materials/imgs/D85.png"",""materials/imgs/D37.png""]","false","random","","",""
"","","","","","html-keyboard-response","126","161461","0.0-13.0-1.4-0.4","s7rv9njpr8","","s7rv9njpr8","""2024-11-13T03:22:18.954Z""","null","+","null","","","","","","",""
"","","","","","image-keyboard-response","127","162230","0.0-13.0-1.4-1.4","s7rv9njpr8","","s7rv9njpr8","""2024-11-13T03:22:18.954Z""","768","materials/imgs/D64.png","arrowleft","","[""materials/imgs/D64.png"",""materials/imgs/D53.png""]","","check","materials/imgs/D64.png","0","true"
"","","","","","html-keyboard-response","128","162731","0.0-13.0-2.4-0.8","s7rv9njpr8","","s7rv9njpr8","""2024-11-13T03:22:18.954Z""","null","+","null","","","","","","",""
"","","","","","image-keyboard-response","129","163800","0.0-13.0-2.4-1.8","s7rv9njpr8","","s7rv9njpr8","""2024-11-13T03:22:18.954Z""","1068","materials/imgs/D92.png","arrowright","","[""materials/imgs/D56.png"",""materials/imgs/D77.png""]","false","validation","","",""
"","","","","","html-keyboard-response","130","164302","0.0-13.0-2.4-0.9","s7rv9njpr8","","s7rv9njpr8","""2024-11-13T03:22:18.954Z""","null","+","null","","","","","","",""
"","","","","","image-keyboard-response","131","165373","0.0-13.0-2.4-1.9","s7rv9njpr8","","s7rv9njpr8","""2024-11-13T03:22:18.954Z""","1069","materials/imgs/D16.png","arrowleft","","[""materials/imgs/D52.png"",""materials/imgs/D25.png""]","false","validation","","",""
"","","","","","html-button-response","132","325263","0.0-14.0","s7rv9njpr8","","s7rv9njpr8","""2024-11-13T03:22:18.954Z""","159893","You have completed 25% of the trials. Please click 'Continue' when you are ready proceed.","0","","","","","","",""
"","","","","","html-keyboard-response","133","325763","0.0-15.0-0.0-0.0","s7rv9njpr8","","s7rv9njpr8","""2024-11-13T03:22:18.954Z""","null","+","null","","","","","","",""
"","","","","","image-keyboard-response","134","326941","0.0-15.0-0.0-1.0","s7rv9njpr8","","s7rv9njpr8","""2024-11-13T03:22:18.954Z""","1176","materials/imgs/D20.png","arrowleft","","[""materials/imgs/D35.png"",""materials/imgs/D78.png""]","false","random","","",""
"","","","","","html-keyboard-response","135","327441","0.0-15.0-0.0-0.1","s7rv9njpr8","","s7rv9njpr8","""2024-11-13T03:22:18.954Z""","null","+","null","","","","","","",""
"","","","","","image-keyboard-response","136","328266","0.0-15.0-0.0-1.1","s7rv9njpr8","","s7rv9njpr8","""2024-11-13T03:22:18.954Z""","823","materials/imgs/D1.png","arrowleft","","[""materials/imgs/D8.png"",""materials/imgs/D68.png""]","false","random","","",""
"","","","","","html-keyboard-response","137","328767","0.0-15.0-0.0-0.2","s7rv9njpr8","","s7rv9njpr8","""2024-11-13T03:22:18.954Z""","null","+","null","","","","","","",""
"","","","","","image-keyboard-response","138","329750","0.0-15.0-0.0-1.2","s7rv9njpr8","","s7rv9njpr8","""2024-11-13T03:22:18.954Z""","973","materials/imgs/D24.png","arrowleft","","[""materials/imgs/D21.png"",""materials/imgs/D46.png""]","false","random","","",""
"","","","","","html-keyboard-response","139","330251","0.0-15.0-0.0-0.3","s7rv9njpr8","","s7rv9njpr8","""2024-11-13T03:22:18.954Z""","null","+","null","","","","","","",""
"","","","","","image-keyboard-response","140","331706","0.0-15.0-0.0-1.3","s7rv9njpr8","","s7rv9njpr8","""2024-11-13T03:22:18.954Z""","1454","materials/imgs/D64.png","arrowright","","[""materials/imgs/D84.png"",""materials/imgs/D46.png""]","false","random","","",""
"","","","","","html-keyboard-response","141","332208","0.0-15.0-0.0-0.4","s7rv9njpr8","","s7rv9njpr8","""2024-11-13T03:22:18.954Z""","null","+","null","","","","","","",""
"","","","","","image-keyboard-response","142","332879","0.0-15.0-0.0-1.4","s7rv9njpr8","","s7rv9njpr8","""2024-11-13T03:22:18.954Z""","670","materials/imgs/D65.png","arrowleft","","[""materials/imgs/D80.png"",""materials/imgs/D9.png""]","false","random","","",""
"","","","","","html-keyboard-response","143","333381","0.0-15.0-0.0-0.5","s7rv9njpr8","","s7rv9njpr8","""2024-11-13T03:22:18.954Z""","null","+","null","","","","","","",""
"","","","","","image-keyboard-response","144","334618","0.0-15.0-0.0-1.5","s7rv9njpr8","","s7rv9njpr8","""2024-11-13T03:22:18.954Z""","1236","materials/imgs/D78.png","arrowleft","","[""materials/imgs/D57.png"",""materials/imgs/D92.png""]","false","random","","",""
"","","","","","html-keyboard-response","145","335119","0.0-15.0-0.0-0.6","s7rv9njpr8","","s7rv9njpr8","""2024-11-13T03:22:18.954Z""","null","+","null","","","","","","",""
"","","","","","image-keyboard-response","146","335691","0.0-15.0-0.0-1.6","s7rv9njpr8","","s7rv9njpr8","""2024-11-13T03:22:18.954Z""","570","materials/imgs/D22.png","arrowright","","[""materials/imgs/D8.png"",""materials/imgs/D102.png""]","false","random","","",""
"","","","","","html-keyboard-response","147","336192","0.0-15.0-1.0-0.0","s7rv9njpr8","","s7rv9njpr8","""2024-11-13T03:22:18.954Z""","null","+","null","","","","","","",""
"","","","","","image-keyboard-response","148","336735","0.0-15.0-1.0-1.0","s7rv9njpr8","","s7rv9njpr8","""2024-11-13T03:22:18.954Z""","541","materials/imgs/D8.png","arrowright","","[""materials/imgs/D18.png"",""materials/imgs/D8.png""]","","check","materials/imgs/D8.png","1","true"
"","","","","","html-keyboard-response","149","337235","0.0-15.0-2.0-0.0","s7rv9njpr8","","s7rv9njpr8","""2024-11-13T03:22:18.954Z""","null","+","null","","","","","","",""
"","","","","","image-keyboard-response","150","337834","0.0-15.0-2.0-1.0","s7rv9njpr8","","s7rv9njpr8","""2024-11-13T03:22:18.954Z""","597","materials/imgs/D81.png","arrowright","","[""materials/imgs/D105.png"",""materials/imgs/D24.png""]","false","validation","","",""
"","","","","","html-keyboard-response","151","338335","0.0-15.0-2.0-0.1","s7rv9njpr8","","s7rv9njpr8","""2024-11-13T03:22:18.954Z""","null","+","null","","","","","","",""
"","","","","","image-keyboard-response","152","338987","0.0-15.0-2.0-1.1","s7rv9njpr8","","s7rv9njpr8","""2024-11-13T03:22:18.954Z""","651","materials/imgs/D46.png","arrowleft","","[""materials/imgs/D92.png"",""materials/imgs/D77.png""]","false","validation","","",""
"","","","","","html-keyboard-response","153","339488","0.0-15.0-0.1-0.7","s7rv9njpr8","","s7rv9njpr8","""2024-11-13T03:22:18.954Z""","null","+","null","","","","","","",""
"","","","","","image-keyboard-response","154","340228","0.0-15.0-0.1-1.7","s7rv9njpr8","","s7rv9njpr8","""2024-11-13T03:22:18.954Z""","738","materials/imgs/D57.png","arrowright","","[""materials/imgs/D51.png"",""materials/imgs/D111.png""]","false","random","","",""
"","","","","","html-keyboard-response","155","340730","0.0-15.0-0.1-0.8","s7rv9njpr8","","s7rv9njpr8","""2024-11-13T03:22:18.954Z""","null","+","null","","","","","","",""
"","","","","","image-keyboard-response","156","341373","0.0-15.0-0.1-1.8","s7rv9njpr8","","s7rv9njpr8","""2024-11-13T03:22:18.954Z""","642","materials/imgs/D75.png","arrowleft","","[""materials/imgs/D47.png"",""materials/imgs/D48.png""]","false","random","","",""
"","","","","","html-keyboard-response","157","341874","0.0-15.0-0.1-0.9","s7rv9njpr8","","s7rv9njpr8","""2024-11-13T03:22:18.954Z""","null","+","null","","","","","","",""
"","","","","","image-keyboard-response","158","342710","0.0-15.0-0.1-1.9","s7rv9njpr8","","s7rv9njpr8","""2024-11-13T03:22:18.954Z""","834","materials/imgs/D56.png","arrowright","","[""materials/imgs/D3.png"",""materials/imgs/D94.png""]","false","random","","",""
"","","","","","html-keyboard-response","159","343211","0.0-15.0-0.1-0.10","s7rv9njpr8","","s7rv9njpr8","""2024-11-13T03:22:18.954Z""","null","+","null","","","","","","",""
"","","","","","image-keyboard-response","160","343778","0.0-15.0-0.1-1.10","s7rv9njpr8","","s7rv9njpr8","""2024-11-13T03:22:18.954Z""","566","materials/imgs/D20.png","arrowleft","","[""materials/imgs/D1.png"",""materials/imgs/D48.png""]","false","random","","",""
"","","","","","html-keyboard-response","161","344280","0.0-15.0-0.1-0.11","s7rv9njpr8","","s7rv9njpr8","""2024-11-13T03:22:18.954Z""","null","+","null","","","","","","",""
"","","","","","image-keyboard-response","162","344968","0.0-15.0-0.1-1.11","s7rv9njpr8","","s7rv9njpr8","""2024-11-13T03:22:18.954Z""","686","materials/imgs/D21.png","arrowleft","","[""materials/imgs/D68.png"",""materials/imgs/D46.png""]","false","random","","",""
"","","","","","html-keyboard-response","163","345469","0.0-15.0-0.1-0.12","s7rv9njpr8","","s7rv9njpr8","""2024-11-13T03:22:18.954Z""","null","+","null","","","","","","",""
"","","","","","image-keyboard-response","164","346072","0.0-15.0-0.1-1.12","s7rv9njpr8","","s7rv9njpr8","""2024-11-13T03:22:18.954Z""","601","materials/imgs/D29.png","arrowleft","","[""materials/imgs/D53.png"",""materials/imgs/D47.png""]","false","random","","",""
"","","","","","html-keyboard-response","165","346573","0.0-15.0-0.1-0.13","s7rv9njpr8","","s7rv9njpr8","""2024-11-13T03:22:18.954Z""","null","+","null","","","","","","",""
"","","","","","image-keyboard-response","166","347608","0.0-15.0-0.1-1.13","s7rv9njpr8","","s7rv9njpr8","""2024-11-13T03:22:18.954Z""","1034","materials/imgs/D105.png","arrowleft","","[""materials/imgs/D49.png"",""materials/imgs/D87.png""]","false","random","","",""
"","","","","","html-keyboard-response","167","348110","0.0-15.0-1.1-0.1","s7rv9njpr8","","s7rv9njpr8","""2024-11-13T03:22:18.954Z""","null","+","null","","","","","","",""
"","","","","","image-keyboard-response","168","348658","0.0-15.0-1.1-1.1","s7rv9njpr8","","s7rv9njpr8","""2024-11-13T03:22:18.954Z""","546","materials/imgs/D53.png","arrowright","","[""materials/imgs/D64.png"",""materials/imgs/D53.png""]","","check","materials/imgs/D53.png","1","true"
"","","","","","html-keyboard-response","169","349159","0.0-15.0-2.1-0.2","s7rv9njpr8","","s7rv9njpr8","""2024-11-13T03:22:18.954Z""","null","+","null","","","","","","",""
"","","","","","image-keyboard-response","170","349769","0.0-15.0-2.1-1.2","s7rv9njpr8","","s7rv9njpr8","""2024-11-13T03:22:18.954Z""","609","materials/imgs/D106.png","arrowleft","","[""materials/imgs/D57.png"",""materials/imgs/D18.png""]","false","validation","","",""
"","","","","","html-keyboard-response","171","350271","0.0-15.0-2.1-0.3","s7rv9njpr8","","s7rv9njpr8","""2024-11-13T03:22:18.954Z""","null","+","null","","","","","","",""
"","","","","","image-keyboard-response","172","352911","0.0-15.0-2.1-1.3","s7rv9njpr8","","s7rv9njpr8","""2024-11-13T03:22:18.954Z""","2639","materials/imgs/D83.png","arrowright","","[""materials/imgs/D24.png"",""materials/imgs/D8.png""]","false","validation","","",""
"","","","","","html-keyboard-response","173","353412","0.0-15.0-0.2-0.14","s7rv9njpr8","","s7rv9njpr8","""2024-11-13T03:22:18.954Z""","null","+","null","","","","","","",""
"","","","","","image-keyboard-response","174","354070","0.0-15.0-0.2-1.14","s7rv9njpr8","","s7rv9njpr8","""2024-11-13T03:22:18.954Z""","656","materials/imgs/D29.png","arrowright","","[""materials/imgs/D51.png"",""materials/imgs/D1.png""]","false","random","","",""
"","","","","","html-keyboard-response","175","354571","0.0-15.0-0.2-0.15","s7rv9njpr8","","s7rv9njpr8","""2024-11-13T03:22:18.954Z""","null","+","null","","","","","","",""
"","","","","","image-keyboard-response","176","355179","0.0-15.0-0.2-1.15","s7rv9njpr8","","s7rv9njpr8","""2024-11-13T03:22:18.954Z""","606","materials/imgs/D26.png","arrowright","","[""materials/imgs/D17.png"",""materials/imgs/D25.png""]","false","random","","",""
"","","","","","html-keyboard-response","177","355680","0.0-15.0-0.2-0.16","s7rv9njpr8","","s7rv9njpr8","""2024-11-13T03:22:18.954Z""","null","+","null","","","","","","",""
"","","","","","image-keyboard-response","178","356228","0.0-15.0-0.2-1.16","s7rv9njpr8","","s7rv9njpr8","""2024-11-13T03:22:18.954Z""","546","materials/imgs/D95.png","arrowleft","","[""materials/imgs/D64.png"",""materials/imgs/D36.png""]","false","random","","",""
"","","","","","html-keyboard-response","179","356729","0.0-15.0-0.2-0.17","s7rv9njpr8","","s7rv9njpr8","""2024-11-13T03:22:18.954Z""","null","+","null","","","","","","",""
"","","","","","image-keyboard-response","180","358518","0.0-15.0-0.2-1.17","s7rv9njpr8","","s7rv9njpr8","""2024-11-13T03:22:18.954Z""","1787","materials/imgs/D14.png","arrowleft","","[""materials/imgs/D20.png"",""materials/imgs/D94.png""]","false","random","","",""
"","","","","","html-keyboard-response","181","359019","0.0-15.0-0.2-0.18","s7rv9njpr8","","s7rv9njpr8","""2024-11-13T03:22:18.954Z""","null","+","null","","","","","","",""
"","","","","","image-keyboard-response","182","360718","0.0-15.0-0.2-1.18","s7rv9njpr8","","s7rv9njpr8","""2024-11-13T03:22:18.954Z""","1697","materials/imgs/D66.png","arrowleft","","[""materials/imgs/D92.png"",""materials/imgs/D79.png""]","false","random","","",""
"","","","","","html-keyboard-response","183","361218","0.0-15.0-0.2-0.19","s7rv9njpr8","","s7rv9njpr8","""2024-11-13T03:22:18.954Z""","null","+","null","","","","","","",""
"","","","","","image-keyboard-response","184","362209","0.0-15.0-0.2-1.19","s7rv9njpr8","","s7rv9njpr8","""2024-11-13T03:22:18.954Z""","988","materials/imgs/D46.png","arrowleft","","[""materials/imgs/D95.png"",""materials/imgs/D6.png""]","false","random","","",""
"","","","","","html-keyboard-response","185","362709","0.0-15.0-0.2-0.20","s7rv9njpr8","","s7rv9njpr8","""2024-11-13T03:22:18.954Z""","null","+","null","","","","","","",""
"","","","","","image-keyboard-response","186","363335","0.0-15.0-0.2-1.20","s7rv9njpr8","","s7rv9njpr8","""2024-11-13T03:22:18.954Z""","624","materials/imgs/D78.png","arrowright","","[""materials/imgs/D35.png"",""materials/imgs/D55.png""]","false","random","","",""
"","","","","","html-keyboard-response","187","363837","0.0-15.0-1.2-0.2","s7rv9njpr8","","s7rv9njpr8","""2024-11-13T03:22:18.954Z""","null","+","null","","","","","","",""
"","","","","","image-keyboard-response","188","364622","0.0-15.0-1.2-1.2","s7rv9njpr8","","s7rv9njpr8","""2024-11-13T03:22:18.954Z""","784","materials/imgs/D106.png","arrowleft","","[""materials/imgs/D106.png"",""materials/imgs/D101.png""]","","check","materials/imgs/D106.png","0","true"
"","","","","","html-keyboard-response","189","365124","0.0-15.0-2.2-0.4","s7rv9njpr8","","s7rv9njpr8","""2024-11-13T03:22:18.954Z""","null","+","null","","","","","","",""
"","","","","","image-keyboard-response","190","366846","0.0-15.0-2.2-1.4","s7rv9njpr8","","s7rv9njpr8","""2024-11-13T03:22:18.954Z""","1720","materials/imgs/D26.png","arrowleft","","[""materials/imgs/D36.png"",""materials/imgs/D92.png""]","false","validation","","",""
"","","","","","html-keyboard-response","191","367346","0.0-15.0-2.2-0.5","s7rv9njpr8","","s7rv9njpr8","""2024-11-13T03:22:18.954Z""","null","+","null","","","","","","",""
"","","","","","image-keyboard-response","192","368578","0.0-15.0-2.2-1.5","s7rv9njpr8","","s7rv9njpr8","""2024-11-13T03:22:18.954Z""","1230","materials/imgs/D68.png","arrowleft","","[""materials/imgs/D96.png"",""materials/imgs/D48.png""]","false","validation","","",""
"","","","","","html-keyboard-response","193","369079","0.0-15.0-0.3-0.21","s7rv9njpr8","","s7rv9njpr8","""2024-11-13T03:22:18.954Z""","null","+","null","","","","","","",""
"","","","","","image-keyboard-response","194","370460","0.0-15.0-0.3-1.21","s7rv9njpr8","","s7rv9njpr8","""2024-11-13T03:22:18.954Z""","1379","materials/imgs/D34.png","arrowleft","","[""materials/imgs/D46.png"",""materials/imgs/D1.png""]","false","random","","",""
"","","","","","html-keyboard-response","195","370962","0.0-15.0-0.3-0.22","s7rv9njpr8","","s7rv9njpr8","""2024-11-13T03:22:18.954Z""","null","+","null","","","","","","",""
"","","","","","image-keyboard-response","196","372412","0.0-15.0-0.3-1.22","s7rv9njpr8","","s7rv9njpr8","""2024-11-13T03:22:18.954Z""","1449","materials/imgs/D94.png","arrowright","","[""materials/imgs/D57.png"",""materials/imgs/D11.png""]","false","random","","",""
"","","","","","html-keyboard-response","197","372914","0.0-15.0-0.3-0.23","s7rv9njpr8","","s7rv9njpr8","""2024-11-13T03:22:18.954Z""","null","+","null","","","","","","",""
"","","","","","image-keyboard-response","198","373604","0.0-15.0-0.3-1.23","s7rv9njpr8","","s7rv9njpr8","""2024-11-13T03:22:18.954Z""","689","materials/imgs/D9.png","arrowright","","[""materials/imgs/D104.png"",""materials/imgs/D80.png""]","false","random","","",""
"","","","","","html-keyboard-response","199","374105","0.0-15.0-0.3-0.24","s7rv9njpr8","","s7rv9njpr8","""2024-11-13T03:22:18.954Z""","null","+","null","","","","","","",""
"","","","","","image-keyboard-response","200","374730","0.0-15.0-0.3-1.24","s7rv9njpr8","","s7rv9njpr8","""2024-11-13T03:22:18.954Z""","623","materials/imgs/D56.png","arrowright","","[""materials/imgs/D53.png"",""materials/imgs/D101.png""]","false","random","","",""
"","","","","","html-keyboard-response","201","375231","0.0-15.0-0.3-0.25","s7rv9njpr8","","s7rv9njpr8","""2024-11-13T03:22:18.954Z""","null","+","null","","","","","","",""
"","","","","","image-keyboard-response","202","375876","0.0-15.0-0.3-1.25","s7rv9njpr8","","s7rv9njpr8","""2024-11-13T03:22:18.954Z""","643","materials/imgs/D80.png","arrowright","","[""materials/imgs/D53.png"",""materials/imgs/D3.png""]","false","random","","",""
"","","","","","html-keyboard-response","203","376377","0.0-15.0-0.3-0.26","s7rv9njpr8","","s7rv9njpr8","""2024-11-13T03:22:18.954Z""","null","+","null","","","","","","",""
"","","","","","image-keyboard-response","204","377731","0.0-15.0-0.3-1.26","s7rv9njpr8","","s7rv9njpr8","""2024-11-13T03:22:18.954Z""","1352","materials/imgs/D18.png","arrowright","","[""materials/imgs/D26.png"",""materials/imgs/D25.png""]","false","random","","",""
"","","","","","html-keyboard-response","205","378232","0.0-15.0-0.3-0.27","s7rv9njpr8","","s7rv9njpr8","""2024-11-13T03:22:18.954Z""","null","+","null","","","","","","",""
"","","","","","image-keyboard-response","206","378904","0.0-15.0-0.3-1.27","s7rv9njpr8","","s7rv9njpr8","""2024-11-13T03:22:18.954Z""","670","materials/imgs/D35.png","arrowright","","[""materials/imgs/D94.png"",""materials/imgs/D1.png""]","false","random","","",""
"","","","","","html-keyboard-response","207","379405","0.0-15.0-1.3-0.3","s7rv9njpr8","","s7rv9njpr8","""2024-11-13T03:22:18.954Z""","null","+","null","","","","","","",""
"","","","","","image-keyboard-response","208","379949","0.0-15.0-1.3-1.3","s7rv9njpr8","","s7rv9njpr8","""2024-11-13T03:22:18.954Z""","543","materials/imgs/D26.png","arrowleft","","[""materials/imgs/D26.png"",""materials/imgs/D46.png""]","","check","materials/imgs/D26.png","0","true"
"","","","","","html-keyboard-response","209","380450","0.0-15.0-2.3-0.6","s7rv9njpr8","","s7rv9njpr8","""2024-11-13T03:22:18.954Z""","null","+","null","","","","","","",""
"","","","","","image-keyboard-response","210","382046","0.0-15.0-2.3-1.6","s7rv9njpr8","","s7rv9njpr8","""2024-11-13T03:22:18.954Z""","1595","materials/imgs/D77.png","arrowright","","[""materials/imgs/D102.png"",""materials/imgs/D65.png""]","false","validation","","",""
"","","","","","html-keyboard-response","211","382547","0.0-15.0-2.3-0.7","s7rv9njpr8","","s7rv9njpr8","""2024-11-13T03:22:18.954Z""","null","+","null","","","","","","",""
"","","","","","image-keyboard-response","212","383898","0.0-15.0-2.3-1.7","s7rv9njpr8","","s7rv9njpr8","""2024-11-13T03:22:18.954Z""","1349","materials/imgs/D47.png","arrowleft","","[""materials/imgs/D1.png"",""materials/imgs/D52.png""]","false","validation","","",""
"","","","","","html-keyboard-response","213","384400","0.0-15.0-0.4-0.28","s7rv9njpr8","","s7rv9njpr8","""2024-11-13T03:22:18.954Z""","null","+","null","","","","","","",""
"","","","","","image-keyboard-response","214","386006","0.0-15.0-0.4-1.28","s7rv9njpr8","","s7rv9njpr8","""2024-11-13T03:22:18.954Z""","1605","materials/imgs/D24.png","arrowleft","","[""materials/imgs/D111.png"",""materials/imgs/D102.png""]","false","random","","",""
"","","","","","html-keyboard-response","215","386507","0.0-15.0-0.4-0.29","s7rv9njpr8","","s7rv9njpr8","""2024-11-13T03:22:18.954Z""","null","+","null","","","","","","",""
"","","","","","image-keyboard-response","216","387751","0.0-15.0-0.4-1.29","s7rv9njpr8","","s7rv9njpr8","""2024-11-13T03:22:18.954Z""","1243","materials/imgs/D57.png","arrowleft","","[""materials/imgs/D111.png"",""materials/imgs/D96.png""]","false","random","","",""
"","","","","","html-keyboard-response","217","388253","0.0-15.0-0.4-0.30","s7rv9njpr8","","s7rv9njpr8","""2024-11-13T03:22:18.954Z""","null","+","null","","","","","","",""
"","","","","","image-keyboard-response","218","388855","0.0-15.0-0.4-1.30","s7rv9njpr8","","s7rv9njpr8","""2024-11-13T03:22:18.954Z""","600","materials/imgs/D24.png","arrowright","","[""materials/imgs/D6.png"",""materials/imgs/D29.png""]","false","random","","",""
"","","","","","html-keyboard-response","219","389356","0.0-15.0-0.4-0.31","s7rv9njpr8","","s7rv9njpr8","""2024-11-13T03:22:18.954Z""","null","+","null","","","","","","",""
"","","","","","image-keyboard-response","220","390616","0.0-15.0-0.4-1.31","s7rv9njpr8","","s7rv9njpr8","""2024-11-13T03:22:18.954Z""","1258","materials/imgs/D1.png","arrowleft","","[""materials/imgs/D75.png"",""materials/imgs/D87.png""]","false","random","","",""
"","","","","","html-keyboard-response","221","391117","0.0-15.0-0.4-0.32","s7rv9njpr8","","s7rv9njpr8","""2024-11-13T03:22:18.954Z""","null","+","null","","","","","","",""
"","","","","","image-keyboard-response","222","392455","0.0-15.0-0.4-1.32","s7rv9njpr8","","s7rv9njpr8","""2024-11-13T03:22:18.954Z""","1336","materials/imgs/D8.png","arrowleft","","[""materials/imgs/D35.png"",""materials/imgs/D20.png""]","false","random","","",""
"","","","","","html-keyboard-response","223","392956","0.0-15.0-0.4-0.33","s7rv9njpr8","","s7rv9njpr8","""2024-11-13T03:22:18.954Z""","null","+","null","","","","","","",""
"","","","","","image-keyboard-response","224","393754","0.0-15.0-0.4-1.33","s7rv9njpr8","","s7rv9njpr8","""2024-11-13T03:22:18.954Z""","796","materials/imgs/D65.png","arrowright","","[""materials/imgs/D79.png"",""materials/imgs/D82.png""]","false","random","","",""
"","","","","","html-keyboard-response","225","394255","0.0-15.0-0.4-0.34","s7rv9njpr8","","s7rv9njpr8","""2024-11-13T03:22:18.954Z""","null","+","null","","","","","","",""
"","","","","","image-keyboard-response","226","395659","0.0-15.0-0.4-1.34","s7rv9njpr8","","s7rv9njpr8","""2024-11-13T03:22:18.954Z""","1402","materials/imgs/D37.png","arrowleft","","[""materials/imgs/D26.png"",""materials/imgs/D14.png""]","false","random","","",""
"","","","","","html-keyboard-response","227","396160","0.0-15.0-1.4-0.4","s7rv9njpr8","","s7rv9njpr8","""2024-11-13T03:22:18.954Z""","null","+","null","","","","","","",""
"","","","","","image-keyboard-response","228","396739","0.0-15.0-1.4-1.4","s7rv9njpr8","","s7rv9njpr8","""2024-11-13T03:22:18.954Z""","577","materials/imgs/D53.png","arrowright","","[""materials/imgs/D64.png"",""materials/imgs/D53.png""]","","check","materials/imgs/D53.png","1","true"
"","","","","","html-keyboard-response","229","397241","0.0-15.0-2.4-0.8","s7rv9njpr8","","s7rv9njpr8","""2024-11-13T03:22:18.954Z""","null","+","null","","","","","","",""
"","","","","","image-keyboard-response","230","398397","0.0-15.0-2.4-1.8","s7rv9njpr8","","s7rv9njpr8","""2024-11-13T03:22:18.954Z""","1155","materials/imgs/D66.png","arrowleft","","[""materials/imgs/D85.png"",""materials/imgs/D25.png""]","false","validation","","",""
"","","","","","html-keyboard-response","231","398898","0.0-15.0-2.4-0.9","s7rv9njpr8","","s7rv9njpr8","""2024-11-13T03:22:18.954Z""","null","+","null","","","","","","",""
"","","","","","image-keyboard-response","232","400055","0.0-15.0-2.4-1.9","s7rv9njpr8","","s7rv9njpr8","""2024-11-13T03:22:18.954Z""","1155","materials/imgs/D76.png","arrowleft","","[""materials/imgs/D83.png"",""materials/imgs/D6.png""]","false","validation","","",""
"","","","","","html-button-response","233","454165","0.0-16.0","s7rv9njpr8","","s7rv9njpr8","""2024-11-13T03:22:18.954Z""","54111","You have completed 50% of the trials. Please click 'Continue' when you are ready proceed.","0","","","","","","",""
"","","","","","html-keyboard-response","234","454666","0.0-17.0-0.0-0.0","s7rv9njpr8","","s7rv9njpr8","""2024-11-13T03:22:18.954Z""","null","+","null","","","","","","",""
"","","","","","image-keyboard-response","235","455839","0.0-17.0-0.0-1.0","s7rv9njpr8","","s7rv9njpr8","""2024-11-13T03:22:18.954Z""","1171","materials/imgs/D74.png","arrowright","","[""materials/imgs/D51.png"",""materials/imgs/D25.png""]","false","random","","",""
"","","","","","html-keyboard-response","236","456341","0.0-17.0-0.0-0.1","s7rv9njpr8","","s7rv9njpr8","""2024-11-13T03:22:18.954Z""","null","+","null","","","","","","",""
"","","","","","image-keyboard-response","237","457524","0.0-17.0-0.0-1.1","s7rv9njpr8","","s7rv9njpr8","""2024-11-13T03:22:18.954Z""","1182","materials/imgs/D94.png","arrowright","","[""materials/imgs/D78.png"",""materials/imgs/D14.png""]","false","random","","",""
"","","","","","html-keyboard-response","238","458026","0.0-17.0-0.0-0.2","s7rv9njpr8","","s7rv9njpr8","""2024-11-13T03:22:18.954Z""","null","+","null","","","","","","",""
"","","","","","image-keyboard-response","239","458767","0.0-17.0-0.0-1.2","s7rv9njpr8","","s7rv9njpr8","""2024-11-13T03:22:18.954Z""","739","materials/imgs/D29.png","arrowleft","","[""materials/imgs/D55.png"",""materials/imgs/D25.png""]","false","random","","",""
"","","","","","html-keyboard-response","240","459268","0.0-17.0-0.0-0.3","s7rv9njpr8","","s7rv9njpr8","""2024-11-13T03:22:18.954Z""","null","+","null","","","","","","",""
"","","","","","image-keyboard-response","241","460258","0.0-17.0-0.0-1.3","s7rv9njpr8","","s7rv9njpr8","""2024-11-13T03:22:18.954Z""","989","materials/imgs/D55.png","arrowleft","","[""materials/imgs/D29.png"",""materials/imgs/D37.png""]","false","random","","",""
"","","","","","html-keyboard-response","242","460760","0.0-17.0-0.0-0.4","s7rv9njpr8","","s7rv9njpr8","""2024-11-13T03:22:18.954Z""","null","+","null","","","","","","",""
"","","","","","image-keyboard-response","243","461499","0.0-17.0-0.0-1.4","s7rv9njpr8","","s7rv9njpr8","""2024-11-13T03:22:18.954Z""","738","materials/imgs/D4.png","arrowleft","","[""materials/imgs/D16.png"",""materials/imgs/D19.png""]","false","random","","",""
"","","","","","html-keyboard-response","244","462001","0.0-17.0-0.0-0.5","s7rv9njpr8","","s7rv9njpr8","""2024-11-13T03:22:18.954Z""","null","+","null","","","","","","",""
"","","","","","image-keyboard-response","245","462714","0.0-17.0-0.0-1.5","s7rv9njpr8","","s7rv9njpr8","""2024-11-13T03:22:18.954Z""","712","materials/imgs/D6.png","arrowright","","[""materials/imgs/D66.png"",""materials/imgs/D17.png""]","false","random","","",""
"","","","","","html-keyboard-response","246","463215","0.0-17.0-0.0-0.6","s7rv9njpr8","","s7rv9njpr8","""2024-11-13T03:22:18.954Z""","null","+","null","","","","","","",""
"","","","","","image-keyboard-response","247","464247","0.0-17.0-0.0-1.6","s7rv9njpr8","","s7rv9njpr8","""2024-11-13T03:22:18.954Z""","1030","materials/imgs/D78.png","arrowright","","[""materials/imgs/D29.png"",""materials/imgs/D1.png""]","false","random","","",""
"","","","","","html-keyboard-response","248","464749","0.0-17.0-1.0-0.0","s7rv9njpr8","","s7rv9njpr8","""2024-11-13T03:22:18.954Z""","null","+","null","","","","","","",""
"","","","","","image-keyboard-response","249","465243","0.0-17.0-1.0-1.0","s7rv9njpr8","","s7rv9njpr8","""2024-11-13T03:22:18.954Z""","492","materials/imgs/D64.png","arrowleft","","[""materials/imgs/D64.png"",""materials/imgs/D53.png""]","","check","materials/imgs/D64.png","0","true"
"","","","","","html-keyboard-response","250","465743","0.0-17.0-2.0-0.0","s7rv9njpr8","","s7rv9njpr8","""2024-11-13T03:22:18.954Z""","null","+","null","","","","","","",""
"","","","","","image-keyboard-response","251","466663","0.0-17.0-2.0-1.0","s7rv9njpr8","","s7rv9njpr8","""2024-11-13T03:22:18.954Z""","919","materials/imgs/D20.png","arrowleft","","[""materials/imgs/D84.png"",""materials/imgs/D85.png""]","false","validation","","",""
"","","","","","html-keyboard-response","252","467164","0.0-17.0-2.0-0.1","s7rv9njpr8","","s7rv9njpr8","""2024-11-13T03:22:18.954Z""","null","+","null","","","","","","",""
"","","","","","image-keyboard-response","253","468835","0.0-17.0-2.0-1.1","s7rv9njpr8","","s7rv9njpr8","""2024-11-13T03:22:18.954Z""","1670","materials/imgs/D4.png","arrowleft","","[""materials/imgs/D52.png"",""materials/imgs/D83.png""]","false","validation","","",""
"","","","","","html-keyboard-response","254","469336","0.0-17.0-0.1-0.7","s7rv9njpr8","","s7rv9njpr8","""2024-11-13T03:22:18.954Z""","null","+","null","","","","","","",""
"","","","","","image-keyboard-response","255","470403","0.0-17.0-0.1-1.7","s7rv9njpr8","","s7rv9njpr8","""2024-11-13T03:22:18.954Z""","1065","materials/imgs/D92.png","arrowright","","[""materials/imgs/D80.png"",""materials/imgs/D82.png""]","false","random","","",""
"","","","","","html-keyboard-response","256","470904","0.0-17.0-0.1-0.8","s7rv9njpr8","","s7rv9njpr8","""2024-11-13T03:22:18.954Z""","null","+","null","","","","","","",""
"","","","","","image-keyboard-response","257","473597","0.0-17.0-0.1-1.8","s7rv9njpr8","","s7rv9njpr8","""2024-11-13T03:22:18.954Z""","2692","materials/imgs/D101.png","arrowleft","","[""materials/imgs/D83.png"",""materials/imgs/D95.png""]","false","random","","",""
"","","","","","html-keyboard-response","258","474099","0.0-17.0-0.1-0.9","s7rv9njpr8","","s7rv9njpr8","""2024-11-13T03:22:18.954Z""","null","+","null","","","","","","",""
"","","","","","image-keyboard-response","259","475099","0.0-17.0-0.1-1.9","s7rv9njpr8","","s7rv9njpr8","""2024-11-13T03:22:18.954Z""","999","materials/imgs/D79.png","arrowleft","","[""materials/imgs/D6.png"",""materials/imgs/D36.png""]","false","random","","",""
"","","","","","html-keyboard-response","260","475601","0.0-17.0-0.1-0.10","s7rv9njpr8","","s7rv9njpr8","""2024-11-13T03:22:18.954Z""","null","+","null","","","","","","",""
"","","","","","image-keyboard-response","261","476249","0.0-17.0-0.1-1.10","s7rv9njpr8","","s7rv9njpr8","""2024-11-13T03:22:18.954Z""","647","materials/imgs/D32.png","arrowleft","","[""materials/imgs/D17.png"",""materials/imgs/D76.png""]","false","random","","",""
"","","","","","html-keyboard-response","262","476750","0.0-17.0-0.1-0.11","s7rv9njpr8","","s7rv9njpr8","""2024-11-13T03:22:18.954Z""","null","+","null","","","","","","",""
"","","","","","image-keyboard-response","263","477593","0.0-17.0-0.1-1.11","s7rv9njpr8","","s7rv9njpr8","""2024-11-13T03:22:18.954Z""","842","materials/imgs/D94.png","arrowright","","[""materials/imgs/D74.png"",""materials/imgs/D83.png""]","false","random","","",""
"","","","","","html-keyboard-response","264","478094","0.0-17.0-0.1-0.12","s7rv9njpr8","","s7rv9njpr8","""2024-11-13T03:22:18.954Z""","null","+","null","","","","","","",""
"","","","","","image-keyboard-response","265","478893","0.0-17.0-0.1-1.12","s7rv9njpr8","","s7rv9njpr8","""2024-11-13T03:22:18.954Z""","789","materials/imgs/D102.png","arrowleft","","[""materials/imgs/D94.png"",""materials/imgs/D26.png""]","false","random","","",""
"","","","","","html-keyboard-response","266","479394","0.0-17.0-0.1-0.13","s7rv9njpr8","","s7rv9njpr8","""2024-11-13T03:22:18.954Z""","null","+","null","","","","","","",""
"","","","","","image-keyboard-response","267","479977","0.0-17.0-0.1-1.13","s7rv9njpr8","","s7rv9njpr8","""2024-11-13T03:22:18.954Z""","581","materials/imgs/D16.png","arrowleft","","[""materials/imgs/D53.png"",""materials/imgs/D32.png""]","false","random","","",""
"","","","","","html-keyboard-response","268","480478","0.0-17.0-1.1-0.1","s7rv9njpr8","","s7rv9njpr8","""2024-11-13T03:22:18.954Z""","null","+","null","","","","","","",""
"","","","","","image-keyboard-response","269","481062","0.0-17.0-1.1-1.1","s7rv9njpr8","","s7rv9njpr8","""2024-11-13T03:22:18.954Z""","582","materials/imgs/D46.png","arrowleft","","[""materials/imgs/D46.png"",""materials/imgs/D26.png""]","","check","materials/imgs/D46.png","0","true"
"","","","","","html-keyboard-response","270","481563","0.0-17.0-2.1-0.2","s7rv9njpr8","","s7rv9njpr8","""2024-11-13T03:22:18.954Z""","null","+","null","","","","","","",""
"","","","","","image-keyboard-response","271","482207","0.0-17.0-2.1-1.2","s7rv9njpr8","","s7rv9njpr8","""2024-11-13T03:22:18.954Z""","643","materials/imgs/D22.png","arrowleft","","[""materials/imgs/D4.png"",""materials/imgs/D25.png""]","false","validation","","",""
"","","","","","html-keyboard-response","272","482708","0.0-17.0-2.1-0.3","s7rv9njpr8","","s7rv9njpr8","""2024-11-13T03:22:18.954Z""","null","+","null","","","","","","",""
"","","","","","image-keyboard-response","273","483433","0.0-17.0-2.1-1.3","s7rv9njpr8","","s7rv9njpr8","""2024-11-13T03:22:18.954Z""","724","materials/imgs/D81.png","arrowright","","[""materials/imgs/D105.png"",""materials/imgs/D24.png""]","false","validation","","",""
"","","","","","html-keyboard-response","274","483934","0.0-17.0-0.2-0.14","s7rv9njpr8","","s7rv9njpr8","""2024-11-13T03:22:18.954Z""","null","+","null","","","","","","",""
"","","","","","image-keyboard-response","275","484625","0.0-17.0-0.2-1.14","s7rv9njpr8","","s7rv9njpr8","""2024-11-13T03:22:18.954Z""","689","materials/imgs/D14.png","arrowright","","[""materials/imgs/D83.png"",""materials/imgs/D105.png""]","false","random","","",""
"","","","","","html-keyboard-response","276","485126","0.0-17.0-0.2-0.15","s7rv9njpr8","","s7rv9njpr8","""2024-11-13T03:22:18.954Z""","null","+","null","","","","","","",""
"","","","","","image-keyboard-response","277","485955","0.0-17.0-0.2-1.15","s7rv9njpr8","","s7rv9njpr8","""2024-11-13T03:22:18.954Z""","828","materials/imgs/D1.png","arrowleft","","[""materials/imgs/D26.png"",""materials/imgs/D77.png""]","false","random","","",""
"","","","","","html-keyboard-response","278","486457","0.0-17.0-0.2-0.16","s7rv9njpr8","","s7rv9njpr8","""2024-11-13T03:22:18.954Z""","null","+","null","","","","","","",""
"","","","","","image-keyboard-response","279","487495","0.0-17.0-0.2-1.16","s7rv9njpr8","","s7rv9njpr8","""2024-11-13T03:22:18.954Z""","1036","materials/imgs/D103.png","arrowleft","","[""materials/imgs/D96.png"",""materials/imgs/D37.png""]","false","random","","",""
"","","","","","html-keyboard-response","280","487996","0.0-17.0-0.2-0.17","s7rv9njpr8","","s7rv9njpr8","""2024-11-13T03:22:18.954Z""","null","+","null","","","","","","",""
"","","","","","image-keyboard-response","281","489256","0.0-17.0-0.2-1.17","s7rv9njpr8","","s7rv9njpr8","""2024-11-13T03:22:18.954Z""","1258","materials/imgs/D18.png","arrowleft","","[""materials/imgs/D65.png"",""materials/imgs/D6.png""]","false","random","","",""
"","","","","","html-keyboard-response","282","489758","0.0-17.0-0.2-0.18","s7rv9njpr8","","s7rv9njpr8","""2024-11-13T03:22:18.954Z""","null","+","null","","","","","","",""
"","","","","","image-keyboard-response","283","492161","0.0-17.0-0.2-1.18","s7rv9njpr8","","s7rv9njpr8","""2024-11-13T03:22:18.954Z""","2402","materials/imgs/D96.png","arrowleft","","[""materials/imgs/D104.png"",""materials/imgs/D8.png""]","false","random","","",""
"","","","","","html-keyboard-response","284","492663","0.0-17.0-0.2-0.19","s7rv9njpr8","","s7rv9njpr8","""2024-11-13T03:22:18.954Z""","null","+","null","","","","","","",""
"","","","","","image-keyboard-response","285","493475","0.0-17.0-0.2-1.19","s7rv9njpr8","","s7rv9njpr8","""2024-11-13T03:22:18.954Z""","811","materials/imgs/D104.png","arrowleft","","[""materials/imgs/D19.png"",""materials/imgs/D29.png""]","false","random","","",""
"","","","","","html-keyboard-response","286","493976","0.0-17.0-0.2-0.20","s7rv9njpr8","","s7rv9njpr8","""2024-11-13T03:22:18.954Z""","null","+","null","","","","","","",""
"","","","","","image-keyboard-response","287","494529","0.0-17.0-0.2-1.20","s7rv9njpr8","","s7rv9njpr8","""2024-11-13T03:22:18.954Z""","551","materials/imgs/D46.png","arrowleft","","[""materials/imgs/D51.png"",""materials/imgs/D18.png""]","false","random","","",""
"","","","","","html-keyboard-response","288","495031","0.0-17.0-1.2-0.2","s7rv9njpr8","","s7rv9njpr8","""2024-11-13T03:22:18.954Z""","null","+","null","","","","","","",""
"","","","","","image-keyboard-response","289","495565","0.0-17.0-1.2-1.2","s7rv9njpr8","","s7rv9njpr8","""2024-11-13T03:22:18.954Z""","533","materials/imgs/D76.png","arrowleft","","[""materials/imgs/D76.png"",""materials/imgs/D78.png""]","","check","materials/imgs/D76.png","0","true"
"","","","","","html-keyboard-response","290","496066","0.0-17.0-2.2-0.4","s7rv9njpr8","","s7rv9njpr8","""2024-11-13T03:22:18.954Z""","null","+","null","","","","","","",""
"","","","","","image-keyboard-response","291","497391","0.0-17.0-2.2-1.4","s7rv9njpr8","","s7rv9njpr8","""2024-11-13T03:22:18.954Z""","1324","materials/imgs/D52.png","arrowright","","[""materials/imgs/D9.png"",""materials/imgs/D19.png""]","false","validation","","",""
"","","","","","html-keyboard-response","292","497892","0.0-17.0-2.2-0.5","s7rv9njpr8","","s7rv9njpr8","""2024-11-13T03:22:18.954Z""","null","+","null","","","","","","",""
"","","","","","image-keyboard-response","293","499055","0.0-17.0-2.2-1.5","s7rv9njpr8","","s7rv9njpr8","""2024-11-13T03:22:18.954Z""","1161","materials/imgs/D25.png","arrowright","","[""materials/imgs/D103.png"",""materials/imgs/D64.png""]","false","validation","","",""
"","","","","","html-keyboard-response","294","499556","0.0-17.0-0.3-0.21","s7rv9njpr8","","s7rv9njpr8","""2024-11-13T03:22:18.954Z""","null","+","null","","","","","","",""
"","","","","","image-keyboard-response","295","500506","0.0-17.0-0.3-1.21","s7rv9njpr8","","s7rv9njpr8","""2024-11-13T03:22:18.954Z""","948","materials/imgs/D74.png","arrowright","","[""materials/imgs/D36.png"",""materials/imgs/D47.png""]","false","random","","",""
"","","","","","html-keyboard-response","296","501006","0.0-17.0-0.3-0.22","s7rv9njpr8","","s7rv9njpr8","""2024-11-13T03:22:18.954Z""","null","+","null","","","","","","",""
"","","","","","image-keyboard-response","297","502665","0.0-17.0-0.3-1.22","s7rv9njpr8","","s7rv9njpr8","""2024-11-13T03:22:18.954Z""","1657","materials/imgs/D57.png","arrowleft","","[""materials/imgs/D105.png"",""materials/imgs/D94.png""]","false","random","","",""
"","","","","","html-keyboard-response","298","503166","0.0-17.0-0.3-0.23","s7rv9njpr8","","s7rv9njpr8","""2024-11-13T03:22:18.954Z""","null","+","null","","","","","","",""
"","","","","","image-keyboard-response","299","505613","0.0-17.0-0.3-1.23","s7rv9njpr8","","s7rv9njpr8","""2024-11-13T03:22:18.954Z""","2446","materials/imgs/D37.png","arrowleft","","[""materials/imgs/D32.png"",""materials/imgs/D16.png""]","false","random","","",""
"","","","","","html-keyboard-response","300","506114","0.0-17.0-0.3-0.24","s7rv9njpr8","","s7rv9njpr8","""2024-11-13T03:22:18.954Z""","null","+","null","","","","","","",""
"","","","","","image-keyboard-response","301","506679","0.0-17.0-0.3-1.24","s7rv9njpr8","","s7rv9njpr8","""2024-11-13T03:22:18.954Z""","564","materials/imgs/D77.png","arrowleft","","[""materials/imgs/D49.png"",""materials/imgs/D29.png""]","false","random","","",""
"","","","","","html-keyboard-response","302","507180","0.0-17.0-0.3-0.25","s7rv9njpr8","","s7rv9njpr8","""2024-11-13T03:22:18.954Z""","null","+","null","","","","","","",""
"","","","","","image-keyboard-response","303","508152","0.0-17.0-0.3-1.25","s7rv9njpr8","","s7rv9njpr8","""2024-11-13T03:22:18.954Z""","970","materials/imgs/D47.png","arrowleft","","[""materials/imgs/D77.png"",""materials/imgs/D92.png""]","false","random","","",""
"","","","","","html-keyboard-response","304","508653","0.0-17.0-0.3-0.26","s7rv9njpr8","","s7rv9njpr8","""2024-11-13T03:22:18.954Z""","null","+","null","","","","","","",""
"","","","","","image-keyboard-response","305","510057","0.0-17.0-0.3-1.26","s7rv9njpr8","","s7rv9njpr8","""2024-11-13T03:22:18.954Z""","1403","materials/imgs/D36.png","arrowleft","","[""materials/imgs/D95.png"",""materials/imgs/D25.png""]","false","random","","",""
"","","","","","html-keyboard-response","306","510559","0.0-17.0-0.3-0.27","s7rv9njpr8","","s7rv9njpr8","""2024-11-13T03:22:18.954Z""","null","+","null","","","","","","",""
"","","","","","image-keyboard-response","307","511350","0.0-17.0-0.3-1.27","s7rv9njpr8","","s7rv9njpr8","""2024-11-13T03:22:18.954Z""","790","materials/imgs/D55.png","arrowleft","","[""materials/imgs/D34.png"",""materials/imgs/D51.png""]","false","random","","",""
"","","","","","html-keyboard-response","308","511852","0.0-17.0-1.3-0.3","s7rv9njpr8","","s7rv9njpr8","""2024-11-13T03:22:18.954Z""","null","+","null","","","","","","",""
"","","","","","image-keyboard-response","309","512585","0.0-17.0-1.3-1.3","s7rv9njpr8","","s7rv9njpr8","""2024-11-13T03:22:18.954Z""","732","materials/imgs/D18.png","arrowright","","[""materials/imgs/D8.png"",""materials/imgs/D18.png""]","","check","materials/imgs/D18.png","1","true"
"","","","","","html-keyboard-response","310","513087","0.0-17.0-2.3-0.6","s7rv9njpr8","","s7rv9njpr8","""2024-11-13T03:22:18.954Z""","null","+","null","","","","","","",""
"","","","","","image-keyboard-response","311","513679","0.0-17.0-2.3-1.6","s7rv9njpr8","","s7rv9njpr8","""2024-11-13T03:22:18.954Z""","590","materials/imgs/D53.png","arrowleft","","[""materials/imgs/D77.png"",""materials/imgs/D75.png""]","false","validation","","",""
"","","","","","html-keyboard-response","312","514180","0.0-17.0-2.3-0.7","s7rv9njpr8","","s7rv9njpr8","""2024-11-13T03:22:18.954Z""","null","+","null","","","","","","",""
"","","","","","image-keyboard-response","313","515798","0.0-17.0-2.3-1.7","s7rv9njpr8","","s7rv9njpr8","""2024-11-13T03:22:18.954Z""","1617","materials/imgs/D64.png","arrowleft","","[""materials/imgs/D6.png"",""materials/imgs/D81.png""]","false","validation","","",""
"","","","","","html-keyboard-response","314","516299","0.0-17.0-0.4-0.28","s7rv9njpr8","","s7rv9njpr8","""2024-11-13T03:22:18.954Z""","null","+","null","","","","","","",""
"","","","","","image-keyboard-response","315","517125","0.0-17.0-0.4-1.28","s7rv9njpr8","","s7rv9njpr8","""2024-11-13T03:22:18.954Z""","824","materials/imgs/D92.png","arrowright","","[""materials/imgs/D75.png"",""materials/imgs/D83.png""]","false","random","","",""
"","","","","","html-keyboard-response","316","517626","0.0-17.0-0.4-0.29","s7rv9njpr8","","s7rv9njpr8","""2024-11-13T03:22:18.954Z""","null","+","null","","","","","","",""
"","","","","","image-keyboard-response","317","518765","0.0-17.0-0.4-1.29","s7rv9njpr8","","s7rv9njpr8","""2024-11-13T03:22:18.954Z""","1137","materials/imgs/D25.png","arrowleft","","[""materials/imgs/D4.png"",""materials/imgs/D57.png""]","false","random","","",""
"","","","","","html-keyboard-response","318","519266","0.0-17.0-0.4-0.30","s7rv9njpr8","","s7rv9njpr8","""2024-11-13T03:22:18.954Z""","null","+","null","","","","","","",""
"","","","","","image-keyboard-response","319","520156","0.0-17.0-0.4-1.30","s7rv9njpr8","","s7rv9njpr8","""2024-11-13T03:22:18.954Z""","888","materials/imgs/D83.png","arrowleft","","[""materials/imgs/D111.png"",""materials/imgs/D6.png""]","false","random","","",""
"","","","","","html-keyboard-response","320","520657","0.0-17.0-0.4-0.31","s7rv9njpr8","","s7rv9njpr8","""2024-11-13T03:22:18.954Z""","null","+","null","","","","","","",""
"","","","","","image-keyboard-response","321","521797","0.0-17.0-0.4-1.31","s7rv9njpr8","","s7rv9njpr8","""2024-11-13T03:22:18.954Z""","1138","materials/imgs/D20.png","arrowleft","","[""materials/imgs/D17.png"",""materials/imgs/D19.png""]","false","random","","",""
"","","","","","html-keyboard-response","322","522297","0.0-17.0-0.4-0.32","s7rv9njpr8","","s7rv9njpr8","""2024-11-13T03:22:18.954Z""","null","+","null","","","","","","",""
"","","","","","image-keyboard-response","323","523431","0.0-17.0-0.4-1.32","s7rv9njpr8","","s7rv9njpr8","""2024-11-13T03:22:18.954Z""","1132","materials/imgs/D8.png","arrowleft","","[""materials/imgs/D53.png"",""materials/imgs/D52.png""]","false","random","","",""
"","","","","","html-keyboard-response","324","523932","0.0-17.0-0.4-0.33","s7rv9njpr8","","s7rv9njpr8","""2024-11-13T03:22:18.954Z""","null","+","null","","","","","","",""
"","","","","","image-keyboard-response","325","524557","0.0-17.0-0.4-1.33","s7rv9njpr8","","s7rv9njpr8","""2024-11-13T03:22:18.954Z""","623","materials/imgs/D19.png","arrowleft","","[""materials/imgs/D29.png"",""materials/imgs/D55.png""]","false","random","","",""
"","","","","","html-keyboard-response","326","525058","0.0-17.0-0.4-0.34","s7rv9njpr8","","s7rv9njpr8","""2024-11-13T03:22:18.954Z""","null","+","null","","","","","","",""
"","","","","","image-keyboard-response","327","525805","0.0-17.0-0.4-1.34","s7rv9njpr8","","s7rv9njpr8","""2024-11-13T03:22:18.954Z""","746","materials/imgs/D81.png","arrowright","","[""materials/imgs/D20.png"",""materials/imgs/D57.png""]","false","random","","",""
"","","","","","html-keyboard-response","328","526306","0.0-17.0-1.4-0.4","s7rv9njpr8","","s7rv9njpr8","""2024-11-13T03:22:18.954Z""","null","+","null","","","","","","",""
"","","","","","image-keyboard-response","329","526879","0.0-17.0-1.4-1.4","s7rv9njpr8","","s7rv9njpr8","""2024-11-13T03:22:18.954Z""","571","materials/imgs/D8.png","arrowright","","[""materials/imgs/D18.png"",""materials/imgs/D8.png""]","","check","materials/imgs/D8.png","1","true"
"","","","","","html-keyboard-response","330","527380","0.0-17.0-2.4-0.8","s7rv9njpr8","","s7rv9njpr8","""2024-11-13T03:22:18.954Z""","null","+","null","","","","","","",""
"","","","","","image-keyboard-response","331","528859","0.0-17.0-2.4-1.8","s7rv9njpr8","","s7rv9njpr8","""2024-11-13T03:22:18.954Z""","1478","materials/imgs/D3.png","arrowleft","","[""materials/imgs/D79.png"",""materials/imgs/D48.png""]","false","validation","","",""
"","","","","","html-keyboard-response","332","529361","0.0-17.0-2.4-0.9","s7rv9njpr8","","s7rv9njpr8","""2024-11-13T03:22:18.954Z""","null","+","null","","","","","","",""
"","","","","","image-keyboard-response","333","529973","0.0-17.0-2.4-1.9","s7rv9njpr8","","s7rv9njpr8","""2024-11-13T03:22:18.954Z""","611","materials/imgs/D9.png","arrowright","","[""materials/imgs/D103.png"",""materials/imgs/D4.png""]","false","validation","","",""
"","","","","","html-button-response","334","532129","0.0-18.0","s7rv9njpr8","","s7rv9njpr8","""2024-11-13T03:22:18.954Z""","2155","You have completed 75% of the trials. Please click 'Continue' when you are ready proceed.","0","","","","","","",""
"","","","","","html-keyboard-response","335","532630","0.0-19.0-0.0-0.0","s7rv9njpr8","","s7rv9njpr8","""2024-11-13T03:22:18.954Z""","null","+","null","","","","","","",""
"","","","","","image-keyboard-response","336","533296","0.0-19.0-0.0-1.0","s7rv9njpr8","","s7rv9njpr8","""2024-11-13T03:22:18.954Z""","665","materials/imgs/D106.png","arrowright","","[""materials/imgs/D96.png"",""materials/imgs/D104.png""]","false","random","","",""
"","","","","","html-keyboard-response","337","533798","0.0-19.0-0.0-0.1","s7rv9njpr8","","s7rv9njpr8","""2024-11-13T03:22:18.954Z""","null","+","null","","","","","","",""
"","","","","","image-keyboard-response","338","534665","0.0-19.0-0.0-1.1","s7rv9njpr8","","s7rv9njpr8","""2024-11-13T03:22:18.954Z""","866","materials/imgs/D87.png","arrowleft","","[""materials/imgs/D32.png"",""materials/imgs/D106.png""]","false","random","","",""
"","","","","","html-keyboard-response","339","535166","0.0-19.0-0.0-0.2","s7rv9njpr8","","s7rv9njpr8","""2024-11-13T03:22:18.954Z""","null","+","null","","","","","","",""
"","","","","","image-keyboard-response","340","536084","0.0-19.0-0.0-1.2","s7rv9njpr8","","s7rv9njpr8","""2024-11-13T03:22:18.954Z""","916","materials/imgs/D19.png","arrowright","","[""materials/imgs/D16.png"",""materials/imgs/D9.png""]","false","random","","",""
"","","","","","html-keyboard-response","341","536585","0.0-19.0-0.0-0.3","s7rv9njpr8","","s7rv9njpr8","""2024-11-13T03:22:18.954Z""","null","+","null","","","","","","",""
"","","","","","image-keyboard-response","342","537212","0.0-19.0-0.0-1.3","s7rv9njpr8","","s7rv9njpr8","""2024-11-13T03:22:18.954Z""","626","materials/imgs/D57.png","arrowleft","","[""materials/imgs/D37.png"",""materials/imgs/D25.png""]","false","random","","",""
"","","","","","html-keyboard-response","343","537714","0.0-19.0-0.0-0.4","s7rv9njpr8","","s7rv9njpr8","""2024-11-13T03:22:18.954Z""","null","+","null","","","","","","",""
"","","","","","image-keyboard-response","344","538462","0.0-19.0-0.0-1.4","s7rv9njpr8","","s7rv9njpr8","""2024-11-13T03:22:18.954Z""","746","materials/imgs/D14.png","arrowleft","","[""materials/imgs/D79.png"",""materials/imgs/D92.png""]","false","random","","",""
"","","","","","html-keyboard-response","345","538963","0.0-19.0-0.0-0.5","s7rv9njpr8","","s7rv9njpr8","""2024-11-13T03:22:18.954Z""","null","+","null","","","","","","",""
"","","","","","image-keyboard-response","346","539648","0.0-19.0-0.0-1.5","s7rv9njpr8","","s7rv9njpr8","""2024-11-13T03:22:18.954Z""","684","materials/imgs/D53.png","arrowright","","[""materials/imgs/D29.png"",""materials/imgs/D103.png""]","false","random","","",""
"","","","","","html-keyboard-response","347","540149","0.0-19.0-0.0-0.6","s7rv9njpr8","","s7rv9njpr8","""2024-11-13T03:22:18.954Z""","null","+","null","","","","","","",""
"","","","","","image-keyboard-response","348","541224","0.0-19.0-0.0-1.6","s7rv9njpr8","","s7rv9njpr8","""2024-11-13T03:22:18.954Z""","1073","materials/imgs/D106.png","arrowright","","[""materials/imgs/D74.png"",""materials/imgs/D56.png""]","false","random","","",""
"","","","","","html-keyboard-response","349","541726","0.0-19.0-1.0-0.0","s7rv9njpr8","","s7rv9njpr8","""2024-11-13T03:22:18.954Z""","null","+","null","","","","","","",""
"","","","","","image-keyboard-response","350","542274","0.0-19.0-1.0-1.0","s7rv9njpr8","","s7rv9njpr8","""2024-11-13T03:22:18.954Z""","547","materials/imgs/D101.png","arrowright","","[""materials/imgs/D106.png"",""materials/imgs/D101.png""]","","check","materials/imgs/D101.png","1","true"
"","","","","","html-keyboard-response","351","542776","0.0-19.0-2.0-0.0","s7rv9njpr8","","s7rv9njpr8","""2024-11-13T03:22:18.954Z""","null","+","null","","","","","","",""
"","","","","","image-keyboard-response","352","543685","0.0-19.0-2.0-1.0","s7rv9njpr8","","s7rv9njpr8","""2024-11-13T03:22:18.954Z""","908","materials/imgs/D84.png","arrowleft","","[""materials/imgs/D106.png"",""materials/imgs/D37.png""]","false","validation","","",""
"","","","","","html-keyboard-response","353","544186","0.0-19.0-2.0-0.1","s7rv9njpr8","","s7rv9njpr8","""2024-11-13T03:22:18.954Z""","null","+","null","","","","","","",""
"","","","","","image-keyboard-response","354","544996","0.0-19.0-2.0-1.1","s7rv9njpr8","","s7rv9njpr8","""2024-11-13T03:22:18.954Z""","808","materials/imgs/D6.png","arrowright","","[""materials/imgs/D26.png"",""materials/imgs/D76.png""]","false","validation","","",""
"","","","","","html-keyboard-response","355","545498","0.0-19.0-0.1-0.7","s7rv9njpr8","","s7rv9njpr8","""2024-11-13T03:22:18.954Z""","null","+","null","","","","","","",""
"","","","","","image-keyboard-response","356","546230","0.0-19.0-0.1-1.7","s7rv9njpr8","","s7rv9njpr8","""2024-11-13T03:22:18.954Z""","731","materials/imgs/D32.png","arrowleft","","[""materials/imgs/D68.png"",""materials/imgs/D101.png""]","false","random","","",""
"","","","","","html-keyboard-response","357","546731","0.0-19.0-0.1-0.8","s7rv9njpr8","","s7rv9njpr8","""2024-11-13T03:22:18.954Z""","null","+","null","","","","","","",""
"","","","","","image-keyboard-response","358","547424","0.0-19.0-0.1-1.8","s7rv9njpr8","","s7rv9njpr8","""2024-11-13T03:22:18.954Z""","691","materials/imgs/D95.png","arrowleft","","[""materials/imgs/D14.png"",""materials/imgs/D48.png""]","false","random","","",""
"","","","","","html-keyboard-response","359","547925","0.0-19.0-0.1-0.9","s7rv9njpr8","","s7rv9njpr8","""2024-11-13T03:22:18.954Z""","null","+","null","","","","","","",""
"","","","","","image-keyboard-response","360","550700","0.0-19.0-0.1-1.9","s7rv9njpr8","","s7rv9njpr8","""2024-11-13T03:22:18.954Z""","2774","materials/imgs/D25.png","arrowright","","[""materials/imgs/D106.png"",""materials/imgs/D37.png""]","false","random","","",""
"","","","","","html-keyboard-response","361","551202","0.0-19.0-0.1-0.10","s7rv9njpr8","","s7rv9njpr8","""2024-11-13T03:22:18.954Z""","null","+","null","","","","","","",""
"","","","","","image-keyboard-response","362","552691","0.0-19.0-0.1-1.10","s7rv9njpr8","","s7rv9njpr8","""2024-11-13T03:22:18.954Z""","1488","materials/imgs/D21.png","arrowleft","","[""materials/imgs/D75.png"",""materials/imgs/D48.png""]","false","random","","",""
"","","","","","html-keyboard-response","363","553192","0.0-19.0-0.1-0.11","s7rv9njpr8","","s7rv9njpr8","""2024-11-13T03:22:18.954Z""","null","+","null","","","","","","",""
"","","","","","image-keyboard-response","364","555558","0.0-19.0-0.1-1.11","s7rv9njpr8","","s7rv9njpr8","""2024-11-13T03:22:18.954Z""","2364","materials/imgs/D65.png","arrowleft","","[""materials/imgs/D6.png"",""materials/imgs/D17.png""]","false","random","","",""
"","","","","","html-keyboard-response","365","556058","0.0-19.0-0.1-0.12","s7rv9njpr8","","s7rv9njpr8","""2024-11-13T03:22:18.954Z""","null","+","null","","","","","","",""
"","","","","","image-keyboard-response","366","557495","0.0-19.0-0.1-1.12","s7rv9njpr8","","s7rv9njpr8","""2024-11-13T03:22:18.954Z""","1436","materials/imgs/D48.png","arrowright","","[""materials/imgs/D29.png"",""materials/imgs/D3.png""]","false","random","","",""
"","","","","","html-keyboard-response","367","557997","0.0-19.0-0.1-0.13","s7rv9njpr8","","s7rv9njpr8","""2024-11-13T03:22:18.954Z""","null","+","null","","","","","","",""
"","","","","","image-keyboard-response","368","562828","0.0-19.0-0.1-1.13","s7rv9njpr8","","s7rv9njpr8","""2024-11-13T03:22:18.954Z""","4830","materials/imgs/D75.png","arrowleft","","[""materials/imgs/D68.png"",""materials/imgs/D82.png""]","false","random","","",""
"","","","","","html-keyboard-response","369","563329","0.0-19.0-1.1-0.1","s7rv9njpr8","","s7rv9njpr8","""2024-11-13T03:22:18.954Z""","null","+","null","","","","","","",""
"","","","","","image-keyboard-response","370","563911","0.0-19.0-1.1-1.1","s7rv9njpr8","","s7rv9njpr8","""2024-11-13T03:22:18.954Z""","580","materials/imgs/D64.png","arrowleft","","[""materials/imgs/D64.png"",""materials/imgs/D53.png""]","","check","materials/imgs/D64.png","0","true"
"","","","","","html-keyboard-response","371","564412","0.0-19.0-2.1-0.2","s7rv9njpr8","","s7rv9njpr8","""2024-11-13T03:22:18.954Z""","null","+","null","","","","","","",""
"","","","","","image-keyboard-response","372","565633","0.0-19.0-2.1-1.2","s7rv9njpr8","","s7rv9njpr8","""2024-11-13T03:22:18.954Z""","1220","materials/imgs/D79.png","arrowright","","[""materials/imgs/D51.png"",""materials/imgs/D64.png""]","false","validation","","",""
"","","","","","html-keyboard-response","373","566135","0.0-19.0-2.1-0.3","s7rv9njpr8","","s7rv9njpr8","""2024-11-13T03:22:18.954Z""","null","+","null","","","","","","",""
"","","","","","image-keyboard-response","374","570967","0.0-19.0-2.1-1.3","s7rv9njpr8","","s7rv9njpr8","""2024-11-13T03:22:18.954Z""","4831","materials/imgs/D66.png","arrowleft","","[""materials/imgs/D85.png"",""materials/imgs/D25.png""]","false","validation","","",""
"","","","","","html-keyboard-response","375","571468","0.0-19.0-0.2-0.14","s7rv9njpr8","","s7rv9njpr8","""2024-11-13T03:22:18.954Z""","null","+","null","","","","","","",""
"","","","","","image-keyboard-response","376","572428","0.0-19.0-0.2-1.14","s7rv9njpr8","","s7rv9njpr8","""2024-11-13T03:22:18.954Z""","959","materials/imgs/D83.png","arrowleft","","[""materials/imgs/D94.png"",""materials/imgs/D111.png""]","false","random","","",""
"","","","","","html-keyboard-response","377","572929","0.0-19.0-0.2-0.15","s7rv9njpr8","","s7rv9njpr8","""2024-11-13T03:22:18.954Z""","null","+","null","","","","","","",""
"","","","","","image-keyboard-response","378","573819","0.0-19.0-0.2-1.15","s7rv9njpr8","","s7rv9njpr8","""2024-11-13T03:22:18.954Z""","889","materials/imgs/D9.png","arrowleft","","[""materials/imgs/D77.png"",""materials/imgs/D65.png""]","false","random","","",""
"","","","","","html-keyboard-response","379","574321","0.0-19.0-0.2-0.16","s7rv9njpr8","","s7rv9njpr8","""2024-11-13T03:22:18.954Z""","null","+","null","","","","","","",""
"","","","","","image-keyboard-response","380","574968","0.0-19.0-0.2-1.16","s7rv9njpr8","","s7rv9njpr8","""2024-11-13T03:22:18.954Z""","645","materials/imgs/D84.png","arrowleft","","[""materials/imgs/D104.png"",""materials/imgs/D78.png""]","false","random","","",""
"","","","","","html-keyboard-response","381","575469","0.0-19.0-0.2-0.17","s7rv9njpr8","","s7rv9njpr8","""2024-11-13T03:22:18.954Z""","null","+","null","","","","","","",""
"","","","","","image-keyboard-response","382","576316","0.0-19.0-0.2-1.17","s7rv9njpr8","","s7rv9njpr8","""2024-11-13T03:22:18.954Z""","845","materials/imgs/D20.png","arrowleft","","[""materials/imgs/D22.png"",""materials/imgs/D80.png""]","false","random","","",""
"","","","","","html-keyboard-response","383","576817","0.0-19.0-0.2-0.18","s7rv9njpr8","","s7rv9njpr8","""2024-11-13T03:22:18.954Z""","null","+","null","","","","","","",""
"","","","","","image-keyboard-response","384","577800","0.0-19.0-0.2-1.18","s7rv9njpr8","","s7rv9njpr8","""2024-11-13T03:22:18.954Z""","981","materials/imgs/D79.png","arrowright","","[""materials/imgs/D19.png"",""materials/imgs/D46.png""]","false","random","","",""
"","","","","","html-keyboard-response","385","578301","0.0-19.0-0.2-0.19","s7rv9njpr8","","s7rv9njpr8","""2024-11-13T03:22:18.954Z""","null","+","null","","","","","","",""
"","","","","","image-keyboard-response","386","578992","0.0-19.0-0.2-1.19","s7rv9njpr8","","s7rv9njpr8","""2024-11-13T03:22:18.954Z""","690","materials/imgs/D76.png","arrowleft","","[""materials/imgs/D18.png"",""materials/imgs/D56.png""]","false","random","","",""
"","","","","","html-keyboard-response","387","579493","0.0-19.0-0.2-0.20","s7rv9njpr8","","s7rv9njpr8","""2024-11-13T03:22:18.954Z""","null","+","null","","","","","","",""
"","","","","","image-keyboard-response","388","580358","0.0-19.0-0.2-1.20","s7rv9njpr8","","s7rv9njpr8","""2024-11-13T03:22:18.954Z""","863","materials/imgs/D18.png","arrowleft","","[""materials/imgs/D84.png"",""materials/imgs/D4.png""]","false","random","","",""
"","","","","","html-keyboard-response","389","580858","0.0-19.0-1.2-0.2","s7rv9njpr8","","s7rv9njpr8","""2024-11-13T03:22:18.954Z""","null","+","null","","","","","","",""
"","","","","","image-keyboard-response","390","581395","0.0-19.0-1.2-1.2","s7rv9njpr8","","s7rv9njpr8","""2024-11-13T03:22:18.954Z""","535","materials/imgs/D106.png","arrowleft","","[""materials/imgs/D106.png"",""materials/imgs/D101.png""]","","check","materials/imgs/D106.png","0","true"
"","","","","","html-keyboard-response","391","581897","0.0-19.0-2.2-0.4","s7rv9njpr8","","s7rv9njpr8","""2024-11-13T03:22:18.954Z""","null","+","null","","","","","","",""
"","","","","","image-keyboard-response","392","582966","0.0-19.0-2.2-1.4","s7rv9njpr8","","s7rv9njpr8","""2024-11-13T03:22:18.954Z""","1057","materials/imgs/D47.png","arrowleft","","[""materials/imgs/D1.png"",""materials/imgs/D52.png""]","false","validation","","",""
"","","","","","html-keyboard-response","393","583466","0.0-19.0-2.2-0.5","s7rv9njpr8","","s7rv9njpr8","""2024-11-13T03:22:18.954Z""","null","+","null","","","","","","",""
"","","","","","image-keyboard-response","394","584081","0.0-19.0-2.2-1.5","s7rv9njpr8","","s7rv9njpr8","""2024-11-13T03:22:18.954Z""","614","materials/imgs/D24.png","arrowleft","","[""materials/imgs/D36.png"",""materials/imgs/D8.png""]","false","validation","","",""
"","","","","","html-keyboard-response","395","584583","0.0-19.0-0.3-0.21","s7rv9njpr8","","s7rv9njpr8","""2024-11-13T03:22:18.954Z""","null","+","null","","","","","","",""
"","","","","","image-keyboard-response","396","585542","0.0-19.0-0.3-1.21","s7rv9njpr8","","s7rv9njpr8","""2024-11-13T03:22:18.954Z""","957","materials/imgs/D35.png","arrowleft","","[""materials/imgs/D87.png"",""materials/imgs/D76.png""]","false","random","","",""
"","","","","","html-keyboard-response","397","586044","0.0-19.0-0.3-0.22","s7rv9njpr8","","s7rv9njpr8","""2024-11-13T03:22:18.954Z""","null","+","null","","","","","","",""
"","","","","","image-keyboard-response","398","588275","0.0-19.0-0.3-1.22","s7rv9njpr8","","s7rv9njpr8","""2024-11-13T03:22:18.954Z""","2230","materials/imgs/D82.png","arrowright","","[""materials/imgs/D101.png"",""materials/imgs/D83.png""]","false","random","","",""
"","","","","","html-keyboard-response","399","588777","0.0-19.0-0.3-0.23","s7rv9njpr8","","s7rv9njpr8","""2024-11-13T03:22:18.954Z""","null","+","null","","","","","","",""
"","","","","","image-keyboard-response","400","589848","0.0-19.0-0.3-1.23","s7rv9njpr8","","s7rv9njpr8","""2024-11-13T03:22:18.954Z""","1070","materials/imgs/D64.png","arrowright","","[""materials/imgs/D92.png"",""materials/imgs/D55.png""]","false","random","","",""
"","","","","","html-keyboard-response","401","590350","0.0-19.0-0.3-0.24","s7rv9njpr8","","s7rv9njpr8","""2024-11-13T03:22:18.954Z""","null","+","null","","","","","","",""
"","","","","","image-keyboard-response","402","591081","0.0-19.0-0.3-1.24","s7rv9njpr8","","s7rv9njpr8","""2024-11-13T03:22:18.954Z""","729","materials/imgs/D79.png","arrowright","","[""materials/imgs/D80.png"",""materials/imgs/D68.png""]","false","random","","",""
"","","","","","html-keyboard-response","403","591583","0.0-19.0-0.3-0.25","s7rv9njpr8","","s7rv9njpr8","""2024-11-13T03:22:18.954Z""","null","+","null","","","","","","",""
"","","","","","image-keyboard-response","404","592355","0.0-19.0-0.3-1.25","s7rv9njpr8","","s7rv9njpr8","""2024-11-13T03:22:18.954Z""","771","materials/imgs/D105.png","arrowleft","","[""materials/imgs/D94.png"",""materials/imgs/D65.png""]","false","random","","",""
"","","","","","html-keyboard-response","405","592856","0.0-19.0-0.3-0.26","s7rv9njpr8","","s7rv9njpr8","""2024-11-13T03:22:18.954Z""","null","+","null","","","","","","",""
"","","","","","image-keyboard-response","406","593690","0.0-19.0-0.3-1.26","s7rv9njpr8","","s7rv9njpr8","""2024-11-13T03:22:18.954Z""","832","materials/imgs/D34.png","arrowright","","[""materials/imgs/D76.png"",""materials/imgs/D53.png""]","false","random","","",""
"","","","","","html-keyboard-response","407","594190","0.0-19.0-0.3-0.27","s7rv9njpr8","","s7rv9njpr8","""2024-11-13T03:22:18.954Z""","null","+","null","","","","","","",""
"","","","","","image-keyboard-response","408","595973","0.0-19.0-0.3-1.27","s7rv9njpr8","","s7rv9njpr8","""2024-11-13T03:22:18.954Z""","1782","materials/imgs/D51.png","arrowright","","[""materials/imgs/D52.png"",""materials/imgs/D77.png""]","false","random","","",""
"","","","","","html-keyboard-response","409","596475","0.0-19.0-1.3-0.3","s7rv9njpr8","","s7rv9njpr8","""2024-11-13T03:22:18.954Z""","null","+","null","","","","","","",""
"","","","","","image-keyboard-response","410","597026","0.0-19.0-1.3-1.3","s7rv9njpr8","","s7rv9njpr8","""2024-11-13T03:22:18.954Z""","549","materials/imgs/D18.png","arrowright","","[""materials/imgs/D8.png"",""materials/imgs/D18.png""]","","check","materials/imgs/D18.png","1","true"
"","","","","","html-keyboard-response","411","597527","0.0-19.0-2.3-0.6","s7rv9njpr8","","s7rv9njpr8","""2024-11-13T03:22:18.954Z""","null","+","null","","","","","","",""
"","","","","","image-keyboard-response","412","598348","0.0-19.0-2.3-1.6","s7rv9njpr8","","s7rv9njpr8","""2024-11-13T03:22:18.954Z""","819","materials/imgs/D101.png","arrowleft","","[""materials/imgs/D76.png"",""materials/imgs/D47.png""]","false","validation","","",""
"","","","","","html-keyboard-response","413","598849","0.0-19.0-2.3-0.7","s7rv9njpr8","","s7rv9njpr8","""2024-11-13T03:22:18.954Z""","null","+","null","","","","","","",""
"","","","","","image-keyboard-response","414","599937","0.0-19.0-2.3-1.7","s7rv9njpr8","","s7rv9njpr8","""2024-11-13T03:22:18.954Z""","1086","materials/imgs/D103.png","arrowleft","","[""materials/imgs/D76.png"",""materials/imgs/D106.png""]","false","validation","","",""
"","","","","","html-keyboard-response","415","600438","0.0-19.0-0.4-0.28","s7rv9njpr8","","s7rv9njpr8","""2024-11-13T03:22:18.954Z""","null","+","null","","","","","","",""
"","","","","","image-keyboard-response","416","601703","0.0-19.0-0.4-1.28","s7rv9njpr8","","s7rv9njpr8","""2024-11-13T03:22:18.954Z""","1264","materials/imgs/D92.png","arrowleft","","[""materials/imgs/D36.png"",""materials/imgs/D25.png""]","false","random","","",""
"","","","","","html-keyboard-response","417","602205","0.0-19.0-0.4-0.29","s7rv9njpr8","","s7rv9njpr8","""2024-11-13T03:22:18.954Z""","null","+","null","","","","","","",""
"","","","","","image-keyboard-response","418","605989","0.0-19.0-0.4-1.29","s7rv9njpr8","","s7rv9njpr8","""2024-11-13T03:22:18.954Z""","3782","materials/imgs/D25.png","arrowleft","","[""materials/imgs/D92.png"",""materials/imgs/D32.png""]","false","random","","",""
"","","","","","html-keyboard-response","419","606490","0.0-19.0-0.4-0.30","s7rv9njpr8","","s7rv9njpr8","""2024-11-13T03:22:18.954Z""","null","+","null","","","","","","",""
"","","","","","image-keyboard-response","420","607148","0.0-19.0-0.4-1.30","s7rv9njpr8","","s7rv9njpr8","""2024-11-13T03:22:18.954Z""","656","materials/imgs/D78.png","arrowright","","[""materials/imgs/D52.png"",""materials/imgs/D14.png""]","false","random","","",""
"","","","","","html-keyboard-response","421","607650","0.0-19.0-0.4-0.31","s7rv9njpr8","","s7rv9njpr8","""2024-11-13T03:22:18.954Z""","null","+","null","","","","","","",""
"","","","","","image-keyboard-response","422","608484","0.0-19.0-0.4-1.31","s7rv9njpr8","","s7rv9njpr8","""2024-11-13T03:22:18.954Z""","832","materials/imgs/D6.png","arrowleft","","[""materials/imgs/D75.png"",""materials/imgs/D56.png""]","false","random","","",""
"","","","","","html-keyboard-response","423","608985","0.0-19.0-0.4-0.32","s7rv9njpr8","","s7rv9njpr8","""2024-11-13T03:22:18.954Z""","null","+","null","","","","","","",""
"","","","","","image-keyboard-response","424","610061","0.0-19.0-0.4-1.32","s7rv9njpr8","","s7rv9njpr8","""2024-11-13T03:22:18.954Z""","1074","materials/imgs/D56.png","arrowleft","","[""materials/imgs/D57.png"",""materials/imgs/D81.png""]","false","random","","",""
"","","","","","html-keyboard-response","425","610562","0.0-19.0-0.4-0.33","s7rv9njpr8","","s7rv9njpr8","""2024-11-13T03:22:18.954Z""","null","+","null","","","","","","",""
"","","","","","image-keyboard-response","426","611362","0.0-19.0-0.4-1.33","s7rv9njpr8","","s7rv9njpr8","""2024-11-13T03:22:18.954Z""","798","materials/imgs/D52.png","arrowleft","","[""materials/imgs/D104.png"",""materials/imgs/D51.png""]","false","random","","",""
"","","","","","html-keyboard-response","427","611863","0.0-19.0-0.4-0.34","s7rv9njpr8","","s7rv9njpr8","""2024-11-13T03:22:18.954Z""","null","+","null","","","","","","",""
"","","","","","image-keyboard-response","428","612544","0.0-19.0-0.4-1.34","s7rv9njpr8","","s7rv9njpr8","""2024-11-13T03:22:18.954Z""","679","materials/imgs/D65.png","arrowleft","","[""materials/imgs/D1.png"",""materials/imgs/D94.png""]","false","random","","",""
"","","","","","html-keyboard-response","429","613045","0.0-19.0-1.4-0.4","s7rv9njpr8","","s7rv9njpr8","""2024-11-13T03:22:18.954Z""","null","+","null","","","","","","",""
"","","","","","image-keyboard-response","430","613597","0.0-19.0-1.4-1.4","s7rv9njpr8","","s7rv9njpr8","""2024-11-13T03:22:18.954Z""","551","materials/imgs/D78.png","arrowright","","[""materials/imgs/D76.png"",""materials/imgs/D78.png""]","","check","materials/imgs/D78.png","1","true"
"","","","","","html-keyboard-response","431","614098","0.0-19.0-2.4-0.8","s7rv9njpr8","","s7rv9njpr8","""2024-11-13T03:22:18.954Z""","null","+","null","","","","","","",""
"","","","","","image-keyboard-response","432","615958","0.0-19.0-2.4-1.8","s7rv9njpr8","","s7rv9njpr8","""2024-11-13T03:22:18.954Z""","1859","materials/imgs/D36.png","arrowright","","[""materials/imgs/D47.png"",""materials/imgs/D49.png""]","false","validation","","",""
"","","","","","html-keyboard-response","433","616459","0.0-19.0-2.4-0.9","s7rv9njpr8","","s7rv9njpr8","""2024-11-13T03:22:18.954Z""","null","+","null","","","","","","",""
"","","","","","image-keyboard-response","434","617995","0.0-19.0-2.4-1.9","s7rv9njpr8","","s7rv9njpr8","""2024-11-13T03:22:18.954Z""","1535","materials/imgs/D48.png","arrowright","","[""materials/imgs/D4.png"",""materials/imgs/D37.png""]","false","validation","","",""
