"success","timeout","failed_images","failed_audio","failed_video","trial_type","trial_index","time_elapsed","internal_node_id","subject_id","sona_id","subjectID","dateInfo","rt","stimulus","response","question_order","choices","speedy","sampleAlg","selected_image","selected_index","correct"
"true","false","[]","[]","[]","preload","0","246","0.0-0.0","scnrs4pn5c","","scnrs4pn5c","""2024-11-12T18:42:18.471Z""","","","","","","","","","",""
"true","","","","","fullscreen","1","3587","0.0-1.0","scnrs4pn5c","","scnrs4pn5c","""2024-11-12T18:42:18.471Z""","","","","","","","","","",""
"","","","","","html-keyboard-response","2","3600","0.0-2.0","scnrs4pn5c","","scnrs4pn5c","""2024-11-12T18:42:18.471Z""","null","","null","","","","","","",""
"","","","","","html-button-response","3","4801","0.0-3.0","scnrs4pn5c","","scnrs4pn5c","""2024-11-12T18:42:18.471Z""","1200","<div style='text-align:center; font-size:20px; line-height:25px; width: 1200px;'>
                Welcome to our experiment! <br>
                <br>At the bottom of this screen, you will see a button that says 'Begin Experiment.
                <br>Please only click that button when you are ready to complete the 25 minute experiment in one sitting. <br>
                <br> Once you click that button, it will not be possible to restart the experiment. <br><br>","0","","","","","","",""
"true","","","","","fullscreen","4","8698","0.0-4.0","scnrs4pn5c","","scnrs4pn5c","""2024-11-12T18:42:18.471Z""","","","","","","","","","",""
"","","","","","survey-multi-select","5","11973","0.0-5.0","scnrs4pn5c","","scnrs4pn5c","""2024-11-12T18:42:18.471Z""","3269","","{""Consent"":[""<strong>I consent</strong>""]}","[0]","","","","","",""
"","","","","","html-button-response","6","13784","0.0-6.0","scnrs4pn5c","","scnrs4pn5c","""2024-11-12T18:42:18.471Z""","1808","Welcome! <p> This experiment involves two parts: demographic information, followed by the experimental task.<p> It will take about 25 minutes to complete both parts.","0","","","","","","",""
"","","","","","survey-text","7","26532","0.0-7.0","scnrs4pn5c","","scnrs4pn5c","""2024-11-12T18:42:18.471Z""","12745","","{""Age"":""19"",""Gender"":""female"",""Race/ethnicity"":""asian""}","","","","","","",""
"","","","","","html-button-response","8","51311","0.0-8.0","scnrs4pn5c","","scnrs4pn5c","""2024-11-12T18:42:18.471Z""","24776","<div style='text-align: center;'>
      <p>In each trial of this task, you will see three texture images: one target item on top, and two choices beneath the target item.</p>
      <p><strong>Please select the item that is most like the target item.</strong></p>
      <p>To select the option on the <strong>LEFT</strong>, press the <strong>LEFT ARROW</strong> key. 
      To select the option on the <strong>RIGHT</strong>, press the <strong>RIGHT ARROW</strong> key.</p>
                  <!-- Target Image at the Top -->
      <div style='margin: 20px;'>
        <img src='materials/imgs/instruction_images/InstructionImg1D78.png' alt='Target Image' style='width:200px; height:auto;' />
        <p><em>Target Image</em></p>
      </div>

      <!-- Two Choice Images Below -->
      <div style='display: flex; justify-content: center;'>
        <div style='margin-right: 50px;'>
          <img src='materials/imgs/instruction_images/InstructionImg2D34.png' alt='Choice Image 1' style='width:150px; height:auto;' />
          <p><em><strong>LEFT ARROW</strong></em></p>
        </div>
        <div style='margin-left: 50px;'>
          <img src='materials/imgs/instruction_images/InstructionImg3D80.png' alt='Choice Image 2' style='width:150px; height:auto;' />
          <p><em><strong>RIGHT ARROW</strong></em></p>
        </div>
      </div>
    </div>

      <p>When you are ready to proceed, please click 'Continue' to begin practice.</p>","0","","","","","","",""
"","","","","","html-keyboard-response","9","53814","0.0-9.0","scnrs4pn5c","","scnrs4pn5c","""2024-11-12T18:42:18.471Z""","null","+","null","","","","","","",""
"","","","","","html-keyboard-response","10","54316","0.0-10.0-0.0-0.0","scnrs4pn5c","","scnrs4pn5c","""2024-11-12T18:42:18.471Z""","null","+","null","","","","","","",""
"","","","","","image-keyboard-response","11","56486","0.0-10.0-0.0-1.0","scnrs4pn5c","","scnrs4pn5c","""2024-11-12T18:42:18.471Z""","2164","materials/imgs/D111.png","arrowright","","[""materials/imgs/D20.png"",""materials/imgs/D66.png""]","false","random","","",""
"","","","","","html-keyboard-response","12","56988","0.0-10.0-0.0-0.1","scnrs4pn5c","","scnrs4pn5c","""2024-11-12T18:42:18.471Z""","null","+","null","","","","","","",""
"","","","","","image-keyboard-response","13","58299","0.0-10.0-0.0-1.1","scnrs4pn5c","","scnrs4pn5c","""2024-11-12T18:42:18.471Z""","1308","materials/imgs/D76.png","arrowleft","","[""materials/imgs/D68.png"",""materials/imgs/D92.png""]","false","random","","",""
"","","","","","html-keyboard-response","14","58801","0.0-10.0-0.0-0.2","scnrs4pn5c","","scnrs4pn5c","""2024-11-12T18:42:18.471Z""","null","+","null","","","","","","",""
"","","","","","image-keyboard-response","15","60116","0.0-10.0-0.0-1.2","scnrs4pn5c","","scnrs4pn5c","""2024-11-12T18:42:18.471Z""","1312","materials/imgs/D34.png","arrowright","","[""materials/imgs/D65.png"",""materials/imgs/D78.png""]","false","random","","",""
"","","","","","html-keyboard-response","16","60617","0.0-10.0-0.0-0.3","scnrs4pn5c","","scnrs4pn5c","""2024-11-12T18:42:18.471Z""","null","+","null","","","","","","",""
"","","","","","image-keyboard-response","17","61296","0.0-10.0-0.0-1.3","scnrs4pn5c","","scnrs4pn5c","""2024-11-12T18:42:18.471Z""","676","materials/imgs/D64.png","arrowright","","[""materials/imgs/D57.png"",""materials/imgs/D56.png""]","false","random","","",""
"","","","","","html-keyboard-response","18","61798","0.0-10.0-0.0-0.4","scnrs4pn5c","","scnrs4pn5c","""2024-11-12T18:42:18.471Z""","null","+","null","","","","","","",""
"","","","","","image-keyboard-response","19","66168","0.0-10.0-0.0-1.4","scnrs4pn5c","","scnrs4pn5c","""2024-11-12T18:42:18.471Z""","4367","materials/imgs/D37.png","arrowright","","[""materials/imgs/D32.png"",""materials/imgs/D25.png""]","false","random","","",""
"","","","","","html-keyboard-response","20","66669","0.0-10.0-0.0-0.5","scnrs4pn5c","","scnrs4pn5c","""2024-11-12T18:42:18.471Z""","null","+","null","","","","","","",""
"","","","","","image-keyboard-response","21","67995","0.0-10.0-0.0-1.5","scnrs4pn5c","","scnrs4pn5c","""2024-11-12T18:42:18.471Z""","1323","materials/imgs/D32.png","arrowright","","[""materials/imgs/D95.png"",""materials/imgs/D3.png""]","false","random","","",""
"","","","","","html-keyboard-response","22","68497","0.0-10.0-0.0-0.6","scnrs4pn5c","","scnrs4pn5c","""2024-11-12T18:42:18.471Z""","null","+","null","","","","","","",""
"","","","","","image-keyboard-response","23","70390","0.0-10.0-0.0-1.6","scnrs4pn5c","","scnrs4pn5c","""2024-11-12T18:42:18.471Z""","1890","materials/imgs/D19.png","arrowleft","","[""materials/imgs/D56.png"",""materials/imgs/D53.png""]","false","random","","",""
"","","","","","html-keyboard-response","24","70891","0.0-10.0-0.0-0.7","scnrs4pn5c","","scnrs4pn5c","""2024-11-12T18:42:18.471Z""","null","+","null","","","","","","",""
"","","","","","image-keyboard-response","25","71888","0.0-10.0-0.0-1.7","scnrs4pn5c","","scnrs4pn5c","""2024-11-12T18:42:18.471Z""","993","materials/imgs/D21.png","arrowright","","[""materials/imgs/D11.png"",""materials/imgs/D104.png""]","false","random","","",""
"","","","","","html-keyboard-response","26","72389","0.0-10.0-0.0-0.8","scnrs4pn5c","","scnrs4pn5c","""2024-11-12T18:42:18.471Z""","null","+","null","","","","","","",""
"","","","","","image-keyboard-response","27","72981","0.0-10.0-0.0-1.8","scnrs4pn5c","","scnrs4pn5c","""2024-11-12T18:42:18.471Z""","590","materials/imgs/D79.png","arrowleft","","[""materials/imgs/D16.png"",""materials/imgs/D75.png""]","false","random","","",""
"","","","","","html-keyboard-response","28","73483","0.0-10.0-0.0-0.9","scnrs4pn5c","","scnrs4pn5c","""2024-11-12T18:42:18.471Z""","null","+","null","","","","","","",""
"","","","","","image-keyboard-response","29","74460","0.0-10.0-0.0-1.9","scnrs4pn5c","","scnrs4pn5c","""2024-11-12T18:42:18.471Z""","975","materials/imgs/D104.png","arrowleft","","[""materials/imgs/D6.png"",""materials/imgs/D96.png""]","false","random","","",""
"","","","","","html-button-response","30","79569","0.0-11.0","scnrs4pn5c","","scnrs4pn5c","""2024-11-12T18:42:18.471Z""","5107","<p>Great job!</p>
      <p>You are now ready to begin the experiment.</p>
      <p>There will be around 200 trials. You will have opportunities to take breaks at three stages of the trials.</p>
      <p>When you are ready to begin please click 'Continue'.</p>","0","","","","","","",""
"","","","","","html-keyboard-response","31","82073","0.0-12.0","scnrs4pn5c","","scnrs4pn5c","""2024-11-12T18:42:18.471Z""","null","+","null","","","","","","",""
"","","","","","html-keyboard-response","32","82575","0.0-13.0-0.0-0.0","scnrs4pn5c","","scnrs4pn5c","""2024-11-12T18:42:18.471Z""","null","+","null","","","","","","",""
"","","","","","image-keyboard-response","33","85379","0.0-13.0-0.0-1.0","scnrs4pn5c","","scnrs4pn5c","""2024-11-12T18:42:18.471Z""","2801","materials/imgs/D19.png","arrowright","","[""materials/imgs/D16.png"",""materials/imgs/D77.png""]","false","random","","",""
"","","","","","html-keyboard-response","34","85883","0.0-13.0-0.0-0.1","scnrs4pn5c","","scnrs4pn5c","""2024-11-12T18:42:18.471Z""","null","+","null","","","","","","",""
"","","","","","image-keyboard-response","35","86741","0.0-13.0-0.0-1.1","scnrs4pn5c","","scnrs4pn5c","""2024-11-12T18:42:18.471Z""","855","materials/imgs/D80.png","arrowleft","","[""materials/imgs/D4.png"",""materials/imgs/D16.png""]","false","random","","",""
"","","","","","html-keyboard-response","36","87241","0.0-13.0-0.0-0.2","scnrs4pn5c","","scnrs4pn5c","""2024-11-12T18:42:18.471Z""","null","+","null","","","","","","",""
"","","","","","image-keyboard-response","37","91157","0.0-13.0-0.0-1.2","scnrs4pn5c","","scnrs4pn5c","""2024-11-12T18:42:18.471Z""","3913","materials/imgs/D92.png","arrowleft","","[""materials/imgs/D105.png"",""materials/imgs/D14.png""]","false","random","","",""
"","","","","","html-keyboard-response","38","91659","0.0-13.0-0.0-0.3","scnrs4pn5c","","scnrs4pn5c","""2024-11-12T18:42:18.471Z""","null","+","null","","","","","","",""
"","","","","","image-keyboard-response","39","92578","0.0-13.0-0.0-1.3","scnrs4pn5c","","scnrs4pn5c","""2024-11-12T18:42:18.471Z""","916","materials/imgs/D103.png","arrowleft","","[""materials/imgs/D84.png"",""materials/imgs/D68.png""]","false","random","","",""
"","","","","","html-keyboard-response","40","93079","0.0-13.0-0.0-0.4","scnrs4pn5c","","scnrs4pn5c","""2024-11-12T18:42:18.471Z""","null","+","null","","","","","","",""
"","","","","","image-keyboard-response","41","93832","0.0-13.0-0.0-1.4","scnrs4pn5c","","scnrs4pn5c","""2024-11-12T18:42:18.471Z""","750","materials/imgs/D94.png","arrowleft","","[""materials/imgs/D111.png"",""materials/imgs/D49.png""]","false","random","","",""
"","","","","","html-keyboard-response","42","94333","0.0-13.0-0.0-0.5","scnrs4pn5c","","scnrs4pn5c","""2024-11-12T18:42:18.471Z""","null","+","null","","","","","","",""
"","","","","","image-keyboard-response","43","94903","0.0-13.0-0.0-1.5","scnrs4pn5c","","scnrs4pn5c","""2024-11-12T18:42:18.471Z""","568","materials/imgs/D25.png","arrowright","","[""materials/imgs/D105.png"",""materials/imgs/D8.png""]","false","random","","",""
"","","","","","html-keyboard-response","44","95405","0.0-13.0-0.0-0.6","scnrs4pn5c","","scnrs4pn5c","""2024-11-12T18:42:18.471Z""","null","+","null","","","","","","",""
"","","","","","image-keyboard-response","45","96188","0.0-13.0-0.0-1.6","scnrs4pn5c","","scnrs4pn5c","""2024-11-12T18:42:18.471Z""","781","materials/imgs/D78.png","arrowright","","[""materials/imgs/D18.png"",""materials/imgs/D3.png""]","false","random","","",""
"","","","","","html-keyboard-response","46","96689","0.0-13.0-1.0-0.0","scnrs4pn5c","","scnrs4pn5c","""2024-11-12T18:42:18.471Z""","null","+","null","","","","","","",""
"","","","","","image-keyboard-response","47","97250","0.0-13.0-1.0-1.0","scnrs4pn5c","","scnrs4pn5c","""2024-11-12T18:42:18.471Z""","559","materials/imgs/D46.png","arrowleft","","[""materials/imgs/D46.png"",""materials/imgs/D26.png""]","","check","materials/imgs/D46.png","0","true"
"","","","","","html-keyboard-response","48","97752","0.0-13.0-2.0-0.0","scnrs4pn5c","","scnrs4pn5c","""2024-11-12T18:42:18.471Z""","null","+","null","","","","","","",""
"","","","","","image-keyboard-response","49","99226","0.0-13.0-2.0-1.0","scnrs4pn5c","","scnrs4pn5c","""2024-11-12T18:42:18.471Z""","1472","materials/imgs/D77.png","arrowleft","","[""materials/imgs/D102.png"",""materials/imgs/D65.png""]","false","validation","","",""
"","","","","","html-keyboard-response","50","99727","0.0-13.0-2.0-0.1","scnrs4pn5c","","scnrs4pn5c","""2024-11-12T18:42:18.471Z""","null","+","null","","","","","","",""
"","","","","","image-keyboard-response","51","100605","0.0-13.0-2.0-1.1","scnrs4pn5c","","scnrs4pn5c","""2024-11-12T18:42:18.471Z""","876","materials/imgs/D20.png","arrowleft","","[""materials/imgs/D84.png"",""materials/imgs/D85.png""]","false","validation","","",""
"","","","","","html-keyboard-response","52","101107","0.0-13.0-0.1-0.7","scnrs4pn5c","","scnrs4pn5c","""2024-11-12T18:42:18.471Z""","null","+","null","","","","","","",""
"","","","","","image-keyboard-response","53","102544","0.0-13.0-0.1-1.7","scnrs4pn5c","","scnrs4pn5c","""2024-11-12T18:42:18.471Z""","1435","materials/imgs/D56.png","arrowleft","","[""materials/imgs/D11.png"",""materials/imgs/D55.png""]","false","random","","",""
"","","","","","html-keyboard-response","54","103045","0.0-13.0-0.1-0.8","scnrs4pn5c","","scnrs4pn5c","""2024-11-12T18:42:18.471Z""","null","+","null","","","","","","",""
"","","","","","image-keyboard-response","55","103697","0.0-13.0-0.1-1.8","scnrs4pn5c","","scnrs4pn5c","""2024-11-12T18:42:18.471Z""","650","materials/imgs/D3.png","arrowright","","[""materials/imgs/D95.png"",""materials/imgs/D80.png""]","false","random","","",""
"","","","","","html-keyboard-response","56","104198","0.0-13.0-0.1-0.9","scnrs4pn5c","","scnrs4pn5c","""2024-11-12T18:42:18.471Z""","null","+","null","","","","","","",""
"","","","","","image-keyboard-response","57","104813","0.0-13.0-0.1-1.9","scnrs4pn5c","","scnrs4pn5c","""2024-11-12T18:42:18.471Z""","612","materials/imgs/D82.png","arrowleft","","[""materials/imgs/D84.png"",""materials/imgs/D105.png""]","false","random","","",""
"","","","","","html-keyboard-response","58","105315","0.0-13.0-0.1-0.10","scnrs4pn5c","","scnrs4pn5c","""2024-11-12T18:42:18.471Z""","null","+","null","","","","","","",""
"","","","","","image-keyboard-response","59","106806","0.0-13.0-0.1-1.10","scnrs4pn5c","","scnrs4pn5c","""2024-11-12T18:42:18.471Z""","1489","materials/imgs/D80.png","arrowright","","[""materials/imgs/D85.png"",""materials/imgs/D76.png""]","false","random","","",""
"","","","","","html-keyboard-response","60","107307","0.0-13.0-0.1-0.11","scnrs4pn5c","","scnrs4pn5c","""2024-11-12T18:42:18.471Z""","null","+","null","","","","","","",""
"","","","","","image-keyboard-response","61","107984","0.0-13.0-0.1-1.11","scnrs4pn5c","","scnrs4pn5c","""2024-11-12T18:42:18.471Z""","675","materials/imgs/D22.png","arrowleft","","[""materials/imgs/D104.png"",""materials/imgs/D79.png""]","false","random","","",""
"","","","","","html-keyboard-response","62","108486","0.0-13.0-0.1-0.12","scnrs4pn5c","","scnrs4pn5c","""2024-11-12T18:42:18.471Z""","null","+","null","","","","","","",""
"","","","","","image-keyboard-response","63","109395","0.0-13.0-0.1-1.12","scnrs4pn5c","","scnrs4pn5c","""2024-11-12T18:42:18.471Z""","907","materials/imgs/D34.png","arrowright","","[""materials/imgs/D37.png"",""materials/imgs/D9.png""]","false","random","","",""
"","","","","","html-keyboard-response","64","109896","0.0-13.0-0.1-0.13","scnrs4pn5c","","scnrs4pn5c","""2024-11-12T18:42:18.471Z""","null","+","null","","","","","","",""
"","","","","","image-keyboard-response","65","110787","0.0-13.0-0.1-1.13","scnrs4pn5c","","scnrs4pn5c","""2024-11-12T18:42:18.471Z""","889","materials/imgs/D92.png","arrowright","","[""materials/imgs/D6.png"",""materials/imgs/D18.png""]","false","random","","",""
"","","","","","html-keyboard-response","66","111288","0.0-13.0-1.1-0.1","scnrs4pn5c","","scnrs4pn5c","""2024-11-12T18:42:18.471Z""","null","+","null","","","","","","",""
"","","","","","image-keyboard-response","67","111909","0.0-13.0-1.1-1.1","scnrs4pn5c","","scnrs4pn5c","""2024-11-12T18:42:18.471Z""","619","materials/imgs/D101.png","arrowright","","[""materials/imgs/D106.png"",""materials/imgs/D101.png""]","","check","materials/imgs/D101.png","1","true"
"","","","","","html-keyboard-response","68","112411","0.0-13.0-2.1-0.2","scnrs4pn5c","","scnrs4pn5c","""2024-11-12T18:42:18.471Z""","null","+","null","","","","","","",""
"","","","","","image-keyboard-response","69","113815","0.0-13.0-2.1-1.2","scnrs4pn5c","","scnrs4pn5c","""2024-11-12T18:42:18.471Z""","1402","materials/imgs/D75.png","arrowright","","[""materials/imgs/D96.png"",""materials/imgs/D4.png""]","false","validation","","",""
"","","","","","html-keyboard-response","70","114316","0.0-13.0-2.1-0.3","scnrs4pn5c","","scnrs4pn5c","""2024-11-12T18:42:18.471Z""","null","+","null","","","","","","",""
"","","","","","image-keyboard-response","71","115468","0.0-13.0-2.1-1.3","scnrs4pn5c","","scnrs4pn5c","""2024-11-12T18:42:18.471Z""","1150","materials/imgs/D106.png","arrowright","","[""materials/imgs/D57.png"",""materials/imgs/D18.png""]","false","validation","","",""
"","","","","","html-keyboard-response","72","115970","0.0-13.0-0.2-0.14","scnrs4pn5c","","scnrs4pn5c","""2024-11-12T18:42:18.471Z""","null","+","null","","","","","","",""
"","","","","","image-keyboard-response","73","117144","0.0-13.0-0.2-1.14","scnrs4pn5c","","scnrs4pn5c","""2024-11-12T18:42:18.471Z""","1172","materials/imgs/D101.png","arrowright","","[""materials/imgs/D32.png"",""materials/imgs/D20.png""]","false","random","","",""
"","","","","","html-keyboard-response","74","117645","0.0-13.0-0.2-0.15","scnrs4pn5c","","scnrs4pn5c","""2024-11-12T18:42:18.471Z""","null","+","null","","","","","","",""
"","","","","","image-keyboard-response","75","118125","0.0-13.0-0.2-1.15","scnrs4pn5c","","scnrs4pn5c","""2024-11-12T18:42:18.471Z""","477","materials/imgs/D55.png","arrowright","","[""materials/imgs/D35.png"",""materials/imgs/D79.png""]","true","random","","",""
"","","","","","html-keyboard-response","76","123483","0.0-13.0-0.2-2.15-0.15","scnrs4pn5c","","scnrs4pn5c","""2024-11-12T18:42:18.471Z""","5357","<p><strong>You're going too fast.</strong><p>Please slow down and assess each triplet.<p>Press 'y' to continue.</p></p>","y","","","","","","",""
"","","","","","html-keyboard-response","77","123983","0.0-13.0-0.2-0.16","scnrs4pn5c","","scnrs4pn5c","""2024-11-12T18:42:18.471Z""","null","+","null","","","","","","",""
"","","","","","image-keyboard-response","78","125492","0.0-13.0-0.2-1.16","scnrs4pn5c","","scnrs4pn5c","""2024-11-12T18:42:18.471Z""","1506","materials/imgs/D104.png","arrowright","","[""materials/imgs/D20.png"",""materials/imgs/D105.png""]","false","random","","",""
"","","","","","html-keyboard-response","79","125993","0.0-13.0-0.2-0.17","scnrs4pn5c","","scnrs4pn5c","""2024-11-12T18:42:18.471Z""","null","+","null","","","","","","",""
"","","","","","image-keyboard-response","80","127233","0.0-13.0-0.2-1.17","scnrs4pn5c","","scnrs4pn5c","""2024-11-12T18:42:18.471Z""","1237","materials/imgs/D75.png","arrowleft","","[""materials/imgs/D18.png"",""materials/imgs/D36.png""]","false","random","","",""
"","","","","","html-keyboard-response","81","127734","0.0-13.0-0.2-0.18","scnrs4pn5c","","scnrs4pn5c","""2024-11-12T18:42:18.471Z""","null","+","null","","","","","","",""
"","","","","","image-keyboard-response","82","129659","0.0-13.0-0.2-1.18","scnrs4pn5c","","scnrs4pn5c","""2024-11-12T18:42:18.471Z""","1923","materials/imgs/D37.png","arrowright","","[""materials/imgs/D20.png"",""materials/imgs/D8.png""]","false","random","","",""
"","","","","","html-keyboard-response","83","130160","0.0-13.0-0.2-0.19","scnrs4pn5c","","scnrs4pn5c","""2024-11-12T18:42:18.471Z""","null","+","null","","","","","","",""
"","","","","","image-keyboard-response","84","131021","0.0-13.0-0.2-1.19","scnrs4pn5c","","scnrs4pn5c","""2024-11-12T18:42:18.471Z""","859","materials/imgs/D49.png","arrowright","","[""materials/imgs/D19.png"",""materials/imgs/D84.png""]","false","random","","",""
"","","","","","html-keyboard-response","85","131523","0.0-13.0-0.2-0.20","scnrs4pn5c","","scnrs4pn5c","""2024-11-12T18:42:18.471Z""","null","+","null","","","","","","",""
"","","","","","image-keyboard-response","86","132127","0.0-13.0-0.2-1.20","scnrs4pn5c","","scnrs4pn5c","""2024-11-12T18:42:18.471Z""","602","materials/imgs/D16.png","arrowright","","[""materials/imgs/D96.png"",""materials/imgs/D6.png""]","false","random","","",""
"","","","","","html-keyboard-response","87","132629","0.0-13.0-1.2-0.2","scnrs4pn5c","","scnrs4pn5c","""2024-11-12T18:42:18.471Z""","null","+","null","","","","","","",""
"","","","","","image-keyboard-response","88","133198","0.0-13.0-1.2-1.2","scnrs4pn5c","","scnrs4pn5c","""2024-11-12T18:42:18.471Z""","567","materials/imgs/D26.png","arrowleft","","[""materials/imgs/D26.png"",""materials/imgs/D46.png""]","","check","materials/imgs/D26.png","0","true"
"","","","","","html-keyboard-response","89","133700","0.0-13.0-2.2-0.4","scnrs4pn5c","","scnrs4pn5c","""2024-11-12T18:42:18.471Z""","null","+","null","","","","","","",""
"","","","","","image-keyboard-response","90","134688","0.0-13.0-2.2-1.4","scnrs4pn5c","","scnrs4pn5c","""2024-11-12T18:42:18.471Z""","987","materials/imgs/D92.png","arrowright","","[""materials/imgs/D56.png"",""materials/imgs/D77.png""]","false","validation","","",""
"","","","","","html-keyboard-response","91","135190","0.0-13.0-2.2-0.5","scnrs4pn5c","","scnrs4pn5c","""2024-11-12T18:42:18.471Z""","null","+","null","","","","","","",""
"","","","","","image-keyboard-response","92","135973","0.0-13.0-2.2-1.5","scnrs4pn5c","","scnrs4pn5c","""2024-11-12T18:42:18.471Z""","781","materials/imgs/D4.png","arrowleft","","[""materials/imgs/D52.png"",""materials/imgs/D83.png""]","false","validation","","",""
"","","","","","html-keyboard-response","93","136474","0.0-13.0-0.3-0.21","scnrs4pn5c","","scnrs4pn5c","""2024-11-12T18:42:18.471Z""","null","+","null","","","","","","",""
"","","","","","image-keyboard-response","94","137064","0.0-13.0-0.3-1.21","scnrs4pn5c","","scnrs4pn5c","""2024-11-12T18:42:18.471Z""","587","materials/imgs/D6.png","arrowright","","[""materials/imgs/D8.png"",""materials/imgs/D49.png""]","false","random","","",""
"","","","","","html-keyboard-response","95","137565","0.0-13.0-0.3-0.22","scnrs4pn5c","","scnrs4pn5c","""2024-11-12T18:42:18.471Z""","null","+","null","","","","","","",""
"","","","","","image-keyboard-response","96","138701","0.0-13.0-0.3-1.22","scnrs4pn5c","","scnrs4pn5c","""2024-11-12T18:42:18.471Z""","1133","materials/imgs/D8.png","arrowright","","[""materials/imgs/D21.png"",""materials/imgs/D14.png""]","false","random","","",""
"","","","","","html-keyboard-response","97","139202","0.0-13.0-0.3-0.23","scnrs4pn5c","","scnrs4pn5c","""2024-11-12T18:42:18.471Z""","null","+","null","","","","","","",""
"","","","","","image-keyboard-response","98","140841","0.0-13.0-0.3-1.23","scnrs4pn5c","","scnrs4pn5c","""2024-11-12T18:42:18.471Z""","1637","materials/imgs/D78.png","arrowleft","","[""materials/imgs/D82.png"",""materials/imgs/D83.png""]","false","random","","",""
"","","","","","html-keyboard-response","99","141342","0.0-13.0-0.3-0.24","scnrs4pn5c","","scnrs4pn5c","""2024-11-12T18:42:18.471Z""","null","+","null","","","","","","",""
"","","","","","image-keyboard-response","100","143190","0.0-13.0-0.3-1.24","scnrs4pn5c","","scnrs4pn5c","""2024-11-12T18:42:18.471Z""","1845","materials/imgs/D105.png","arrowright","","[""materials/imgs/D25.png"",""materials/imgs/D47.png""]","false","random","","",""
"","","","","","html-keyboard-response","101","143691","0.0-13.0-0.3-0.25","scnrs4pn5c","","scnrs4pn5c","""2024-11-12T18:42:18.471Z""","null","+","null","","","","","","",""
"","","","","","image-keyboard-response","102","144824","0.0-13.0-0.3-1.25","scnrs4pn5c","","scnrs4pn5c","""2024-11-12T18:42:18.471Z""","1131","materials/imgs/D29.png","arrowleft","","[""materials/imgs/D65.png"",""materials/imgs/D34.png""]","false","random","","",""
"","","","","","html-keyboard-response","103","145325","0.0-13.0-0.3-0.26","scnrs4pn5c","","scnrs4pn5c","""2024-11-12T18:42:18.471Z""","null","+","null","","","","","","",""
"","","","","","image-keyboard-response","104","147330","0.0-13.0-0.3-1.26","scnrs4pn5c","","scnrs4pn5c","""2024-11-12T18:42:18.471Z""","2002","materials/imgs/D92.png","arrowleft","","[""materials/imgs/D66.png"",""materials/imgs/D21.png""]","false","random","","",""
"","","","","","html-keyboard-response","105","147831","0.0-13.0-0.3-0.27","scnrs4pn5c","","scnrs4pn5c","""2024-11-12T18:42:18.471Z""","null","+","null","","","","","","",""
"","","","","","image-keyboard-response","106","149293","0.0-13.0-0.3-1.27","scnrs4pn5c","","scnrs4pn5c","""2024-11-12T18:42:18.471Z""","1460","materials/imgs/D49.png","arrowright","","[""materials/imgs/D111.png"",""materials/imgs/D94.png""]","false","random","","",""
"","","","","","html-keyboard-response","107","149794","0.0-13.0-1.3-0.3","scnrs4pn5c","","scnrs4pn5c","""2024-11-12T18:42:18.471Z""","null","+","null","","","","","","",""
"","","","","","image-keyboard-response","108","150383","0.0-13.0-1.3-1.3","scnrs4pn5c","","scnrs4pn5c","""2024-11-12T18:42:18.471Z""","586","materials/imgs/D64.png","arrowleft","","[""materials/imgs/D64.png"",""materials/imgs/D53.png""]","","check","materials/imgs/D64.png","0","true"
"","","","","","html-keyboard-response","109","150885","0.0-13.0-2.3-0.6","scnrs4pn5c","","scnrs4pn5c","""2024-11-12T18:42:18.471Z""","null","+","null","","","","","","",""
"","","","","","image-keyboard-response","110","155343","0.0-13.0-2.3-1.6","scnrs4pn5c","","scnrs4pn5c","""2024-11-12T18:42:18.471Z""","4456","materials/imgs/D51.png","arrowright","","[""materials/imgs/D92.png"",""materials/imgs/D20.png""]","false","validation","","",""
"","","","","","html-keyboard-response","111","155845","0.0-13.0-2.3-0.7","scnrs4pn5c","","scnrs4pn5c","""2024-11-12T18:42:18.471Z""","null","+","null","","","","","","",""
"","","","","","image-keyboard-response","112","158909","0.0-13.0-2.3-1.7","scnrs4pn5c","","scnrs4pn5c","""2024-11-12T18:42:18.471Z""","3062","materials/imgs/D103.png","arrowleft","","[""materials/imgs/D76.png"",""materials/imgs/D106.png""]","false","validation","","",""
"","","","","","html-keyboard-response","113","159410","0.0-13.0-0.4-0.28","scnrs4pn5c","","scnrs4pn5c","""2024-11-12T18:42:18.471Z""","null","+","null","","","","","","",""
"","","","","","image-keyboard-response","114","160726","0.0-13.0-0.4-1.28","scnrs4pn5c","","scnrs4pn5c","""2024-11-12T18:42:18.471Z""","1313","materials/imgs/D14.png","arrowleft","","[""materials/imgs/D4.png"",""materials/imgs/D81.png""]","false","random","","",""
"","","","","","html-keyboard-response","115","161227","0.0-13.0-0.4-0.29","scnrs4pn5c","","scnrs4pn5c","""2024-11-12T18:42:18.471Z""","null","+","null","","","","","","",""
"","","","","","image-keyboard-response","116","161954","0.0-13.0-0.4-1.29","scnrs4pn5c","","scnrs4pn5c","""2024-11-12T18:42:18.471Z""","725","materials/imgs/D4.png","arrowright","","[""materials/imgs/D9.png"",""materials/imgs/D24.png""]","false","random","","",""
"","","","","","html-keyboard-response","117","162456","0.0-13.0-0.4-0.30","scnrs4pn5c","","scnrs4pn5c","""2024-11-12T18:42:18.471Z""","null","+","null","","","","","","",""
"","","","","","image-keyboard-response","118","163231","0.0-13.0-0.4-1.30","scnrs4pn5c","","scnrs4pn5c","""2024-11-12T18:42:18.471Z""","772","materials/imgs/D80.png","arrowright","","[""materials/imgs/D25.png"",""materials/imgs/D92.png""]","false","random","","",""
"","","","","","html-keyboard-response","119","163733","0.0-13.0-0.4-0.31","scnrs4pn5c","","scnrs4pn5c","""2024-11-12T18:42:18.471Z""","null","+","null","","","","","","",""
"","","","","","image-keyboard-response","120","164747","0.0-13.0-0.4-1.31","scnrs4pn5c","","scnrs4pn5c","""2024-11-12T18:42:18.471Z""","1012","materials/imgs/D36.png","arrowleft","","[""materials/imgs/D16.png"",""materials/imgs/D76.png""]","false","random","","",""
"","","","","","html-keyboard-response","121","165248","0.0-13.0-0.4-0.32","scnrs4pn5c","","scnrs4pn5c","""2024-11-12T18:42:18.471Z""","null","+","null","","","","","","",""
"","","","","","image-keyboard-response","122","166333","0.0-13.0-0.4-1.32","scnrs4pn5c","","scnrs4pn5c","""2024-11-12T18:42:18.471Z""","1082","materials/imgs/D84.png","arrowright","","[""materials/imgs/D26.png"",""materials/imgs/D35.png""]","false","random","","",""
"","","","","","html-keyboard-response","123","166834","0.0-13.0-0.4-0.33","scnrs4pn5c","","scnrs4pn5c","""2024-11-12T18:42:18.471Z""","null","+","null","","","","","","",""
"","","","","","image-keyboard-response","124","170108","0.0-13.0-0.4-1.33","scnrs4pn5c","","scnrs4pn5c","""2024-11-12T18:42:18.471Z""","3271","materials/imgs/D111.png","arrowleft","","[""materials/imgs/D19.png"",""materials/imgs/D9.png""]","false","random","","",""
"","","","","","html-keyboard-response","125","170610","0.0-13.0-0.4-0.34","scnrs4pn5c","","scnrs4pn5c","""2024-11-12T18:42:18.471Z""","null","+","null","","","","","","",""
"","","","","","image-keyboard-response","126","172295","0.0-13.0-0.4-1.34","scnrs4pn5c","","scnrs4pn5c","""2024-11-12T18:42:18.471Z""","1683","materials/imgs/D76.png","arrowright","","[""materials/imgs/D36.png"",""materials/imgs/D35.png""]","false","random","","",""
"","","","","","html-keyboard-response","127","172796","0.0-13.0-1.4-0.4","scnrs4pn5c","","scnrs4pn5c","""2024-11-12T18:42:18.471Z""","null","+","null","","","","","","",""
"","","","","","image-keyboard-response","128","173381","0.0-13.0-1.4-1.4","scnrs4pn5c","","scnrs4pn5c","""2024-11-12T18:42:18.471Z""","583","materials/imgs/D106.png","arrowleft","","[""materials/imgs/D106.png"",""materials/imgs/D101.png""]","","check","materials/imgs/D106.png","0","true"
"","","","","","html-keyboard-response","129","173883","0.0-13.0-2.4-0.8","scnrs4pn5c","","scnrs4pn5c","""2024-11-12T18:42:18.471Z""","null","+","null","","","","","","",""
"","","","","","image-keyboard-response","130","175705","0.0-13.0-2.4-1.8","scnrs4pn5c","","scnrs4pn5c","""2024-11-12T18:42:18.471Z""","1820","materials/imgs/D19.png","arrowleft","","[""materials/imgs/D111.png"",""materials/imgs/D56.png""]","false","validation","","",""
"","","","","","html-keyboard-response","131","176206","0.0-13.0-2.4-0.9","scnrs4pn5c","","scnrs4pn5c","""2024-11-12T18:42:18.471Z""","null","+","null","","","","","","",""
"","","","","","image-keyboard-response","132","177564","0.0-13.0-2.4-1.9","scnrs4pn5c","","scnrs4pn5c","""2024-11-12T18:42:18.471Z""","1356","materials/imgs/D49.png","arrowright","","[""materials/imgs/D8.png"",""materials/imgs/D101.png""]","false","validation","","",""
"","","","","","html-button-response","133","181593","0.0-14.0","scnrs4pn5c","","scnrs4pn5c","""2024-11-12T18:42:18.471Z""","4027","You have completed 25% of the trials. Please click 'Continue' when you are ready proceed.","0","","","","","","",""
"","","","","","html-keyboard-response","134","182095","0.0-15.0-0.0-0.0","scnrs4pn5c","","scnrs4pn5c","""2024-11-12T18:42:18.471Z""","null","+","null","","","","","","",""
"","","","","","image-keyboard-response","135","184465","0.0-15.0-0.0-1.0","scnrs4pn5c","","scnrs4pn5c","""2024-11-12T18:42:18.471Z""","2368","materials/imgs/D81.png","arrowright","","[""materials/imgs/D74.png"",""materials/imgs/D6.png""]","false","random","","",""
"","","","","","html-keyboard-response","136","184966","0.0-15.0-0.0-0.1","scnrs4pn5c","","scnrs4pn5c","""2024-11-12T18:42:18.471Z""","null","+","null","","","","","","",""
"","","","","","image-keyboard-response","137","187228","0.0-15.0-0.0-1.1","scnrs4pn5c","","scnrs4pn5c","""2024-11-12T18:42:18.471Z""","2260","materials/imgs/D34.png","arrowleft","","[""materials/imgs/D57.png"",""materials/imgs/D83.png""]","false","random","","",""
"","","","","","html-keyboard-response","138","187736","0.0-15.0-0.0-0.2","scnrs4pn5c","","scnrs4pn5c","""2024-11-12T18:42:18.471Z""","null","+","null","","","","","","",""
"","","","","","image-keyboard-response","139","191235","0.0-15.0-0.0-1.2","scnrs4pn5c","","scnrs4pn5c","""2024-11-12T18:42:18.471Z""","3496","materials/imgs/D79.png","arrowleft","","[""materials/imgs/D76.png"",""materials/imgs/D49.png""]","false","random","","",""
"","","","","","html-keyboard-response","140","191736","0.0-15.0-0.0-0.3","scnrs4pn5c","","scnrs4pn5c","""2024-11-12T18:42:18.471Z""","null","+","null","","","","","","",""
"","","","","","image-keyboard-response","141","192747","0.0-15.0-0.0-1.3","scnrs4pn5c","","scnrs4pn5c","""2024-11-12T18:42:18.471Z""","1009","materials/imgs/D105.png","arrowleft","","[""materials/imgs/D51.png"",""materials/imgs/D37.png""]","false","random","","",""
"","","","","","html-keyboard-response","142","193248","0.0-15.0-0.0-0.4","scnrs4pn5c","","scnrs4pn5c","""2024-11-12T18:42:18.471Z""","null","+","null","","","","","","",""
"","","","","","image-keyboard-response","143","195021","0.0-15.0-0.0-1.4","scnrs4pn5c","","scnrs4pn5c","""2024-11-12T18:42:18.471Z""","1770","materials/imgs/D75.png","arrowright","","[""materials/imgs/D52.png"",""materials/imgs/D96.png""]","false","random","","",""
"","","","","","html-keyboard-response","144","195523","0.0-15.0-0.0-0.5","scnrs4pn5c","","scnrs4pn5c","""2024-11-12T18:42:18.471Z""","null","+","null","","","","","","",""
"","","","","","image-keyboard-response","145","197087","0.0-15.0-0.0-1.5","scnrs4pn5c","","scnrs4pn5c","""2024-11-12T18:42:18.471Z""","1562","materials/imgs/D77.png","arrowright","","[""materials/imgs/D25.png"",""materials/imgs/D3.png""]","false","random","","",""
"","","","","","html-keyboard-response","146","197589","0.0-15.0-0.0-0.6","scnrs4pn5c","","scnrs4pn5c","""2024-11-12T18:42:18.471Z""","null","+","null","","","","","","",""
"","","","","","image-keyboard-response","147","199847","0.0-15.0-0.0-1.6","scnrs4pn5c","","scnrs4pn5c","""2024-11-12T18:42:18.471Z""","2256","materials/imgs/D8.png","arrowleft","","[""materials/imgs/D103.png"",""materials/imgs/D96.png""]","false","random","","",""
"","","","","","html-keyboard-response","148","200349","0.0-15.0-1.0-0.0","scnrs4pn5c","","scnrs4pn5c","""2024-11-12T18:42:18.471Z""","null","+","null","","","","","","",""
"","","","","","image-keyboard-response","149","201014","0.0-15.0-1.0-1.0","scnrs4pn5c","","scnrs4pn5c","""2024-11-12T18:42:18.471Z""","663","materials/imgs/D18.png","arrowright","","[""materials/imgs/D8.png"",""materials/imgs/D18.png""]","","check","materials/imgs/D18.png","1","true"
"","","","","","html-keyboard-response","150","201516","0.0-15.0-2.0-0.0","scnrs4pn5c","","scnrs4pn5c","""2024-11-12T18:42:18.471Z""","null","+","null","","","","","","",""
"","","","","","image-keyboard-response","151","202102","0.0-15.0-2.0-1.0","scnrs4pn5c","","scnrs4pn5c","""2024-11-12T18:42:18.471Z""","584","materials/imgs/D22.png","arrowleft","","[""materials/imgs/D4.png"",""materials/imgs/D25.png""]","false","validation","","",""
"","","","","","html-keyboard-response","152","202604","0.0-15.0-2.0-0.1","scnrs4pn5c","","scnrs4pn5c","""2024-11-12T18:42:18.471Z""","null","+","null","","","","","","",""
"","","","","","image-keyboard-response","153","203437","0.0-15.0-2.0-1.1","scnrs4pn5c","","scnrs4pn5c","""2024-11-12T18:42:18.471Z""","831","materials/imgs/D37.png","arrowleft","","[""materials/imgs/D84.png"",""materials/imgs/D111.png""]","false","validation","","",""
"","","","","","html-keyboard-response","154","203939","0.0-15.0-0.1-0.7","scnrs4pn5c","","scnrs4pn5c","""2024-11-12T18:42:18.471Z""","null","+","null","","","","","","",""
"","","","","","image-keyboard-response","155","204702","0.0-15.0-0.1-1.7","scnrs4pn5c","","scnrs4pn5c","""2024-11-12T18:42:18.471Z""","761","materials/imgs/D111.png","arrowright","","[""materials/imgs/D77.png"",""materials/imgs/D20.png""]","false","random","","",""
"","","","","","html-keyboard-response","156","205203","0.0-15.0-0.1-0.8","scnrs4pn5c","","scnrs4pn5c","""2024-11-12T18:42:18.471Z""","null","+","null","","","","","","",""
"","","","","","image-keyboard-response","157","206076","0.0-15.0-0.1-1.8","scnrs4pn5c","","scnrs4pn5c","""2024-11-12T18:42:18.471Z""","870","materials/imgs/D47.png","arrowright","","[""materials/imgs/D75.png"",""materials/imgs/D87.png""]","false","random","","",""
"","","","","","html-keyboard-response","158","206577","0.0-15.0-0.1-0.9","scnrs4pn5c","","scnrs4pn5c","""2024-11-12T18:42:18.471Z""","null","+","null","","","","","","",""
"","","","","","image-keyboard-response","159","207458","0.0-15.0-0.1-1.9","scnrs4pn5c","","scnrs4pn5c","""2024-11-12T18:42:18.471Z""","878","materials/imgs/D92.png","arrowright","","[""materials/imgs/D94.png"",""materials/imgs/D14.png""]","false","random","","",""
"","","","","","html-keyboard-response","160","207960","0.0-15.0-0.1-0.10","scnrs4pn5c","","scnrs4pn5c","""2024-11-12T18:42:18.471Z""","null","+","null","","","","","","",""
"","","","","","image-keyboard-response","161","208414","0.0-15.0-0.1-1.10","scnrs4pn5c","","scnrs4pn5c","""2024-11-12T18:42:18.471Z""","452","materials/imgs/D57.png","arrowright","","[""materials/imgs/D75.png"",""materials/imgs/D4.png""]","true","random","","",""
"","","","","","html-keyboard-response","162","210548","0.0-15.0-0.1-2.10-0.10","scnrs4pn5c","","scnrs4pn5c","""2024-11-12T18:42:18.471Z""","2133","<p><strong>You're going too fast.</strong><p>Please slow down and assess each triplet.<p>Press 'y' to continue.</p></p>","y","","","","","","",""
"","","","","","html-keyboard-response","163","211049","0.0-15.0-0.1-0.11","scnrs4pn5c","","scnrs4pn5c","""2024-11-12T18:42:18.471Z""","null","+","null","","","","","","",""
"","","","","","image-keyboard-response","164","211708","0.0-15.0-0.1-1.11","scnrs4pn5c","","scnrs4pn5c","""2024-11-12T18:42:18.471Z""","656","materials/imgs/D80.png","arrowleft","","[""materials/imgs/D81.png"",""materials/imgs/D1.png""]","false","random","","",""
"","","","","","html-keyboard-response","165","212210","0.0-15.0-0.1-0.12","scnrs4pn5c","","scnrs4pn5c","""2024-11-12T18:42:18.471Z""","null","+","null","","","","","","",""
"","","","","","image-keyboard-response","166","214371","0.0-15.0-0.1-1.12","scnrs4pn5c","","scnrs4pn5c","""2024-11-12T18:42:18.471Z""","2158","materials/imgs/D111.png","arrowleft","","[""materials/imgs/D77.png"",""materials/imgs/D106.png""]","false","random","","",""
"","","","","","html-keyboard-response","167","214872","0.0-15.0-0.1-0.13","scnrs4pn5c","","scnrs4pn5c","""2024-11-12T18:42:18.471Z""","null","+","null","","","","","","",""
"","","","","","image-keyboard-response","168","216450","0.0-15.0-0.1-1.13","scnrs4pn5c","","scnrs4pn5c","""2024-11-12T18:42:18.471Z""","1576","materials/imgs/D47.png","arrowright","","[""materials/imgs/D94.png"",""materials/imgs/D17.png""]","false","random","","",""
"","","","","","html-keyboard-response","169","216952","0.0-15.0-1.1-0.1","scnrs4pn5c","","scnrs4pn5c","""2024-11-12T18:42:18.471Z""","null","+","null","","","","","","",""
"","","","","","image-keyboard-response","170","217506","0.0-15.0-1.1-1.1","scnrs4pn5c","","scnrs4pn5c","""2024-11-12T18:42:18.471Z""","552","materials/imgs/D106.png","arrowleft","","[""materials/imgs/D106.png"",""materials/imgs/D101.png""]","","check","materials/imgs/D106.png","0","true"
"","","","","","html-keyboard-response","171","218007","0.0-15.0-2.1-0.2","scnrs4pn5c","","scnrs4pn5c","""2024-11-12T18:42:18.471Z""","null","+","null","","","","","","",""
"","","","","","image-keyboard-response","172","218513","0.0-15.0-2.1-1.2","scnrs4pn5c","","scnrs4pn5c","""2024-11-12T18:42:18.471Z""","504","materials/imgs/D57.png","arrowright","","[""materials/imgs/D111.png"",""materials/imgs/D4.png""]","false","validation","","",""
"","","","","","html-keyboard-response","173","219014","0.0-15.0-2.1-0.3","scnrs4pn5c","","scnrs4pn5c","""2024-11-12T18:42:18.471Z""","null","+","null","","","","","","",""
"","","","","","image-keyboard-response","174","220203","0.0-15.0-2.1-1.3","scnrs4pn5c","","scnrs4pn5c","""2024-11-12T18:42:18.471Z""","1187","materials/imgs/D20.png","arrowright","","[""materials/imgs/D84.png"",""materials/imgs/D85.png""]","false","validation","","",""
"","","","","","html-keyboard-response","175","220704","0.0-15.0-0.2-0.14","scnrs4pn5c","","scnrs4pn5c","""2024-11-12T18:42:18.471Z""","null","+","null","","","","","","",""
"","","","","","image-keyboard-response","176","221565","0.0-15.0-0.2-1.14","scnrs4pn5c","","scnrs4pn5c","""2024-11-12T18:42:18.471Z""","859","materials/imgs/D66.png","arrowright","","[""materials/imgs/D82.png"",""materials/imgs/D95.png""]","false","random","","",""
"","","","","","html-keyboard-response","177","222066","0.0-15.0-0.2-0.15","scnrs4pn5c","","scnrs4pn5c","""2024-11-12T18:42:18.471Z""","null","+","null","","","","","","",""
"","","","","","image-keyboard-response","178","222850","0.0-15.0-0.2-1.15","scnrs4pn5c","","scnrs4pn5c","""2024-11-12T18:42:18.471Z""","781","materials/imgs/D17.png","arrowleft","","[""materials/imgs/D103.png"",""materials/imgs/D76.png""]","false","random","","",""
"","","","","","html-keyboard-response","179","223352","0.0-15.0-0.2-0.16","scnrs4pn5c","","scnrs4pn5c","""2024-11-12T18:42:18.471Z""","null","+","null","","","","","","",""
"","","","","","image-keyboard-response","180","225694","0.0-15.0-0.2-1.16","scnrs4pn5c","","scnrs4pn5c","""2024-11-12T18:42:18.471Z""","2340","materials/imgs/D84.png","arrowleft","","[""materials/imgs/D16.png"",""materials/imgs/D56.png""]","false","random","","",""
"","","","","","html-keyboard-response","181","226196","0.0-15.0-0.2-0.17","scnrs4pn5c","","scnrs4pn5c","""2024-11-12T18:42:18.471Z""","null","+","null","","","","","","",""
"","","","","","image-keyboard-response","182","228458","0.0-15.0-0.2-1.17","scnrs4pn5c","","scnrs4pn5c","""2024-11-12T18:42:18.471Z""","2260","materials/imgs/D8.png","arrowleft","","[""materials/imgs/D34.png"",""materials/imgs/D4.png""]","false","random","","",""
"","","","","","html-keyboard-response","183","228959","0.0-15.0-0.2-0.18","scnrs4pn5c","","scnrs4pn5c","""2024-11-12T18:42:18.471Z""","null","+","null","","","","","","",""
"","","","","","image-keyboard-response","184","230263","0.0-15.0-0.2-1.18","scnrs4pn5c","","scnrs4pn5c","""2024-11-12T18:42:18.471Z""","1302","materials/imgs/D68.png","arrowright","","[""materials/imgs/D1.png"",""materials/imgs/D80.png""]","false","random","","",""
"","","","","","html-keyboard-response","185","230765","0.0-15.0-0.2-0.19","scnrs4pn5c","","scnrs4pn5c","""2024-11-12T18:42:18.471Z""","null","+","null","","","","","","",""
"","","","","","image-keyboard-response","186","231466","0.0-15.0-0.2-1.19","scnrs4pn5c","","scnrs4pn5c","""2024-11-12T18:42:18.471Z""","699","materials/imgs/D85.png","arrowright","","[""materials/imgs/D51.png"",""materials/imgs/D83.png""]","false","random","","",""
"","","","","","html-keyboard-response","187","231967","0.0-15.0-0.2-0.20","scnrs4pn5c","","scnrs4pn5c","""2024-11-12T18:42:18.471Z""","null","+","null","","","","","","",""
"","","","","","image-keyboard-response","188","232555","0.0-15.0-0.2-1.20","scnrs4pn5c","","scnrs4pn5c","""2024-11-12T18:42:18.471Z""","585","materials/imgs/D29.png","arrowleft","","[""materials/imgs/D92.png"",""materials/imgs/D75.png""]","false","random","","",""
"","","","","","html-keyboard-response","189","233057","0.0-15.0-1.2-0.2","scnrs4pn5c","","scnrs4pn5c","""2024-11-12T18:42:18.471Z""","null","+","null","","","","","","",""
"","","","","","image-keyboard-response","190","233598","0.0-15.0-1.2-1.2","scnrs4pn5c","","scnrs4pn5c","""2024-11-12T18:42:18.471Z""","539","materials/imgs/D8.png","arrowright","","[""materials/imgs/D18.png"",""materials/imgs/D8.png""]","","check","materials/imgs/D8.png","1","true"
"","","","","","html-keyboard-response","191","234100","0.0-15.0-2.2-0.4","scnrs4pn5c","","scnrs4pn5c","""2024-11-12T18:42:18.471Z""","null","+","null","","","","","","",""
"","","","","","image-keyboard-response","192","234588","0.0-15.0-2.2-1.4","scnrs4pn5c","","scnrs4pn5c","""2024-11-12T18:42:18.471Z""","487","materials/imgs/D57.png","arrowright","","[""materials/imgs/D111.png"",""materials/imgs/D4.png""]","true","validation","","",""
"","","","","","html-keyboard-response","193","236238","0.0-15.0-2.2-2.4-0.4","scnrs4pn5c","","scnrs4pn5c","""2024-11-12T18:42:18.471Z""","1649","<p><strong>You're going too fast.</strong><p>Please slow down and assess each triplet.<p>Press 'y' to continue.</p></p>","y","","","","","","",""
"","","","","","html-keyboard-response","194","236740","0.0-15.0-2.2-0.5","scnrs4pn5c","","scnrs4pn5c","""2024-11-12T18:42:18.471Z""","null","+","null","","","","","","",""
"","","","","","image-keyboard-response","195","238703","0.0-15.0-2.2-1.5","scnrs4pn5c","","scnrs4pn5c","""2024-11-12T18:42:18.471Z""","1961","materials/imgs/D35.png","arrowright","","[""materials/imgs/D83.png"",""materials/imgs/D24.png""]","false","validation","","",""
"","","","","","html-keyboard-response","196","239204","0.0-15.0-0.3-0.21","scnrs4pn5c","","scnrs4pn5c","""2024-11-12T18:42:18.471Z""","null","+","null","","","","","","",""
"","","","","","image-keyboard-response","197","240498","0.0-15.0-0.3-1.21","scnrs4pn5c","","scnrs4pn5c","""2024-11-12T18:42:18.471Z""","1291","materials/imgs/D52.png","arrowright","","[""materials/imgs/D105.png"",""materials/imgs/D18.png""]","false","random","","",""
"","","","","","html-keyboard-response","198","240999","0.0-15.0-0.3-0.22","scnrs4pn5c","","scnrs4pn5c","""2024-11-12T18:42:18.471Z""","null","+","null","","","","","","",""
"","","","","","image-keyboard-response","199","243694","0.0-15.0-0.3-1.22","scnrs4pn5c","","scnrs4pn5c","""2024-11-12T18:42:18.471Z""","2692","materials/imgs/D4.png","arrowright","","[""materials/imgs/D36.png"",""materials/imgs/D65.png""]","false","random","","",""
"","","","","","html-keyboard-response","200","244195","0.0-15.0-0.3-0.23","scnrs4pn5c","","scnrs4pn5c","""2024-11-12T18:42:18.471Z""","null","+","null","","","","","","",""
"","","","","","image-keyboard-response","201","246610","0.0-15.0-0.3-1.23","scnrs4pn5c","","scnrs4pn5c","""2024-11-12T18:42:18.471Z""","2413","materials/imgs/D95.png","arrowright","","[""materials/imgs/D22.png"",""materials/imgs/D4.png""]","false","random","","",""
"","","","","","html-keyboard-response","202","247111","0.0-15.0-0.3-0.24","scnrs4pn5c","","scnrs4pn5c","""2024-11-12T18:42:18.471Z""","null","+","null","","","","","","",""
"","","","","","image-keyboard-response","203","248202","0.0-15.0-0.3-1.24","scnrs4pn5c","","scnrs4pn5c","""2024-11-12T18:42:18.471Z""","1088","materials/imgs/D49.png","arrowright","","[""materials/imgs/D105.png"",""materials/imgs/D22.png""]","false","random","","",""
"","","","","","html-keyboard-response","204","248703","0.0-15.0-0.3-0.25","scnrs4pn5c","","scnrs4pn5c","""2024-11-12T18:42:18.471Z""","null","+","null","","","","","","",""
"","","","","","image-keyboard-response","205","250035","0.0-15.0-0.3-1.25","scnrs4pn5c","","scnrs4pn5c","""2024-11-12T18:42:18.471Z""","1329","materials/imgs/D65.png","arrowleft","","[""materials/imgs/D92.png"",""materials/imgs/D46.png""]","false","random","","",""
"","","","","","html-keyboard-response","206","250536","0.0-15.0-0.3-0.26","scnrs4pn5c","","scnrs4pn5c","""2024-11-12T18:42:18.471Z""","null","+","null","","","","","","",""
"","","","","","image-keyboard-response","207","252593","0.0-15.0-0.3-1.26","scnrs4pn5c","","scnrs4pn5c","""2024-11-12T18:42:18.471Z""","2055","materials/imgs/D32.png","arrowleft","","[""materials/imgs/D83.png"",""materials/imgs/D1.png""]","false","random","","",""
"","","","","","html-keyboard-response","208","253095","0.0-15.0-0.3-0.27","scnrs4pn5c","","scnrs4pn5c","""2024-11-12T18:42:18.471Z""","null","+","null","","","","","","",""
"","","","","","image-keyboard-response","209","255748","0.0-15.0-0.3-1.27","scnrs4pn5c","","scnrs4pn5c","""2024-11-12T18:42:18.471Z""","2651","materials/imgs/D11.png","arrowleft","","[""materials/imgs/D83.png"",""materials/imgs/D65.png""]","false","random","","",""
"","","","","","html-keyboard-response","210","256249","0.0-15.0-1.3-0.3","scnrs4pn5c","","scnrs4pn5c","""2024-11-12T18:42:18.471Z""","null","+","null","","","","","","",""
"","","","","","image-keyboard-response","211","256831","0.0-15.0-1.3-1.3","scnrs4pn5c","","scnrs4pn5c","""2024-11-12T18:42:18.471Z""","580","materials/imgs/D53.png","arrowright","","[""materials/imgs/D64.png"",""materials/imgs/D53.png""]","","check","materials/imgs/D53.png","1","true"
"","","","","","html-keyboard-response","212","257333","0.0-15.0-2.3-0.6","scnrs4pn5c","","scnrs4pn5c","""2024-11-12T18:42:18.471Z""","null","+","null","","","","","","",""
"","","","","","image-keyboard-response","213","257960","0.0-15.0-2.3-1.6","scnrs4pn5c","","scnrs4pn5c","""2024-11-12T18:42:18.471Z""","625","materials/imgs/D105.png","arrowleft","","[""materials/imgs/D106.png"",""materials/imgs/D52.png""]","false","validation","","",""
"","","","","","html-keyboard-response","214","258461","0.0-15.0-2.3-0.7","scnrs4pn5c","","scnrs4pn5c","""2024-11-12T18:42:18.471Z""","null","+","null","","","","","","",""
"","","","","","image-keyboard-response","215","261103","0.0-15.0-2.3-1.7","scnrs4pn5c","","scnrs4pn5c","""2024-11-12T18:42:18.471Z""","2640","materials/imgs/D4.png","arrowright","","[""materials/imgs/D52.png"",""materials/imgs/D83.png""]","false","validation","","",""
"","","","","","html-keyboard-response","216","261604","0.0-15.0-0.4-0.28","scnrs4pn5c","","scnrs4pn5c","""2024-11-12T18:42:18.471Z""","null","+","null","","","","","","",""
"","","","","","image-keyboard-response","217","265801","0.0-15.0-0.4-1.28","scnrs4pn5c","","scnrs4pn5c","""2024-11-12T18:42:18.471Z""","4195","materials/imgs/D9.png","arrowleft","","[""materials/imgs/D85.png"",""materials/imgs/D52.png""]","false","random","","",""
"","","","","","html-keyboard-response","218","266302","0.0-15.0-0.4-0.29","scnrs4pn5c","","scnrs4pn5c","""2024-11-12T18:42:18.471Z""","null","+","null","","","","","","",""
"","","","","","image-keyboard-response","219","267157","0.0-15.0-0.4-1.29","scnrs4pn5c","","scnrs4pn5c","""2024-11-12T18:42:18.471Z""","852","materials/imgs/D16.png","arrowleft","","[""materials/imgs/D21.png"",""materials/imgs/D85.png""]","false","random","","",""
"","","","","","html-keyboard-response","220","267659","0.0-15.0-0.4-0.30","scnrs4pn5c","","scnrs4pn5c","""2024-11-12T18:42:18.471Z""","null","+","null","","","","","","",""
"","","","","","image-keyboard-response","221","270421","0.0-15.0-0.4-1.30","scnrs4pn5c","","scnrs4pn5c","""2024-11-12T18:42:18.471Z""","2759","materials/imgs/D64.png","arrowright","","[""materials/imgs/D76.png"",""materials/imgs/D35.png""]","false","random","","",""
"","","","","","html-keyboard-response","222","270922","0.0-15.0-0.4-0.31","scnrs4pn5c","","scnrs4pn5c","""2024-11-12T18:42:18.471Z""","null","+","null","","","","","","",""
"","","","","","image-keyboard-response","223","273280","0.0-15.0-0.4-1.31","scnrs4pn5c","","scnrs4pn5c","""2024-11-12T18:42:18.471Z""","2355","materials/imgs/D32.png","arrowright","","[""materials/imgs/D51.png"",""materials/imgs/D37.png""]","false","random","","",""
"","","","","","html-keyboard-response","224","273781","0.0-15.0-0.4-0.32","scnrs4pn5c","","scnrs4pn5c","""2024-11-12T18:42:18.471Z""","null","+","null","","","","","","",""
"","","","","","image-keyboard-response","225","276045","0.0-15.0-0.4-1.32","scnrs4pn5c","","scnrs4pn5c","""2024-11-12T18:42:18.471Z""","2261","materials/imgs/D4.png","arrowleft","","[""materials/imgs/D56.png"",""materials/imgs/D75.png""]","false","random","","",""
"","","","","","html-keyboard-response","226","276546","0.0-15.0-0.4-0.33","scnrs4pn5c","","scnrs4pn5c","""2024-11-12T18:42:18.471Z""","null","+","null","","","","","","",""
"","","","","","image-keyboard-response","227","278397","0.0-15.0-0.4-1.33","scnrs4pn5c","","scnrs4pn5c","""2024-11-12T18:42:18.471Z""","1849","materials/imgs/D49.png","arrowright","","[""materials/imgs/D77.png"",""materials/imgs/D104.png""]","false","random","","",""
"","","","","","html-keyboard-response","228","278899","0.0-15.0-0.4-0.34","scnrs4pn5c","","scnrs4pn5c","""2024-11-12T18:42:18.471Z""","null","+","null","","","","","","",""
"","","","","","image-keyboard-response","229","281873","0.0-15.0-0.4-1.34","scnrs4pn5c","","scnrs4pn5c","""2024-11-12T18:42:18.471Z""","2971","materials/imgs/D96.png","arrowright","","[""materials/imgs/D53.png"",""materials/imgs/D82.png""]","false","random","","",""
"","","","","","html-keyboard-response","230","282374","0.0-15.0-1.4-0.4","scnrs4pn5c","","scnrs4pn5c","""2024-11-12T18:42:18.471Z""","null","+","null","","","","","","",""
"","","","","","image-keyboard-response","231","283145","0.0-15.0-1.4-1.4","scnrs4pn5c","","scnrs4pn5c","""2024-11-12T18:42:18.471Z""","769","materials/imgs/D18.png","arrowright","","[""materials/imgs/D8.png"",""materials/imgs/D18.png""]","","check","materials/imgs/D18.png","1","true"
"","","","","","html-keyboard-response","232","283646","0.0-15.0-2.4-0.8","scnrs4pn5c","","scnrs4pn5c","""2024-11-12T18:42:18.471Z""","null","+","null","","","","","","",""
"","","","","","image-keyboard-response","233","287168","0.0-15.0-2.4-1.8","scnrs4pn5c","","scnrs4pn5c","""2024-11-12T18:42:18.471Z""","3520","materials/imgs/D68.png","arrowleft","","[""materials/imgs/D96.png"",""materials/imgs/D48.png""]","false","validation","","",""
"","","","","","html-keyboard-response","234","287669","0.0-15.0-2.4-0.9","scnrs4pn5c","","scnrs4pn5c","""2024-11-12T18:42:18.471Z""","null","+","null","","","","","","",""
"","","","","","image-keyboard-response","235","289004","0.0-15.0-2.4-1.9","scnrs4pn5c","","scnrs4pn5c","""2024-11-12T18:42:18.471Z""","1333","materials/imgs/D76.png","arrowleft","","[""materials/imgs/D83.png"",""materials/imgs/D6.png""]","false","validation","","",""
"","","","","","html-button-response","236","290104","0.0-16.0","scnrs4pn5c","","scnrs4pn5c","""2024-11-12T18:42:18.471Z""","1099","You have completed 50% of the trials. Please click 'Continue' when you are ready proceed.","0","","","","","","",""
"","","","","","html-keyboard-response","237","290605","0.0-17.0-0.0-0.0","scnrs4pn5c","","scnrs4pn5c","""2024-11-12T18:42:18.471Z""","null","+","null","","","","","","",""
"","","","","","image-keyboard-response","238","296163","0.0-17.0-0.0-1.0","scnrs4pn5c","","scnrs4pn5c","""2024-11-12T18:42:18.471Z""","5555","materials/imgs/D53.png","arrowright","","[""materials/imgs/D83.png"",""materials/imgs/D105.png""]","false","random","","",""
"","","","","","html-keyboard-response","239","296665","0.0-17.0-0.0-0.1","scnrs4pn5c","","scnrs4pn5c","""2024-11-12T18:42:18.471Z""","null","+","null","","","","","","",""
"","","","","","image-keyboard-response","240","298501","0.0-17.0-0.0-1.1","scnrs4pn5c","","scnrs4pn5c","""2024-11-12T18:42:18.471Z""","1834","materials/imgs/D34.png","arrowleft","","[""materials/imgs/D9.png"",""materials/imgs/D18.png""]","false","random","","",""
"","","","","","html-keyboard-response","241","299002","0.0-17.0-0.0-0.2","scnrs4pn5c","","scnrs4pn5c","""2024-11-12T18:42:18.471Z""","null","+","null","","","","","","",""
"","","","","","image-keyboard-response","242","314102","0.0-17.0-0.0-1.2","scnrs4pn5c","","scnrs4pn5c","""2024-11-12T18:42:18.471Z""","15098","materials/imgs/D9.png","arrowright","","[""materials/imgs/D101.png"",""materials/imgs/D57.png""]","false","random","","",""
"","","","","","html-keyboard-response","243","314603","0.0-17.0-0.0-0.3","scnrs4pn5c","","scnrs4pn5c","""2024-11-12T18:42:18.471Z""","null","+","null","","","","","","",""
"","","","","","image-keyboard-response","244","315863","0.0-17.0-0.0-1.3","scnrs4pn5c","","scnrs4pn5c","""2024-11-12T18:42:18.471Z""","1257","materials/imgs/D32.png","arrowright","","[""materials/imgs/D105.png"",""materials/imgs/D92.png""]","false","random","","",""
"","","","","","html-keyboard-response","245","316365","0.0-17.0-0.0-0.4","scnrs4pn5c","","scnrs4pn5c","""2024-11-12T18:42:18.471Z""","null","+","null","","","","","","",""
"","","","","","image-keyboard-response","246","317163","0.0-17.0-0.0-1.4","scnrs4pn5c","","scnrs4pn5c","""2024-11-12T18:42:18.471Z""","796","materials/imgs/D56.png","arrowright","","[""materials/imgs/D20.png"",""materials/imgs/D26.png""]","false","random","","",""
"","","","","","html-keyboard-response","247","317664","0.0-17.0-0.0-0.5","scnrs4pn5c","","scnrs4pn5c","""2024-11-12T18:42:18.471Z""","null","+","null","","","","","","",""
"","","","","","image-keyboard-response","248","318685","0.0-17.0-0.0-1.5","scnrs4pn5c","","scnrs4pn5c","""2024-11-12T18:42:18.471Z""","1019","materials/imgs/D11.png","arrowleft","","[""materials/imgs/D19.png"",""materials/imgs/D4.png""]","false","random","","",""
"","","","","","html-keyboard-response","249","319187","0.0-17.0-0.0-0.6","scnrs4pn5c","","scnrs4pn5c","""2024-11-12T18:42:18.471Z""","null","+","null","","","","","","",""
"","","","","","image-keyboard-response","250","320259","0.0-17.0-0.0-1.6","scnrs4pn5c","","scnrs4pn5c","""2024-11-12T18:42:18.471Z""","1069","materials/imgs/D82.png","arrowleft","","[""materials/imgs/D79.png"",""materials/imgs/D25.png""]","false","random","","",""
"","","","","","html-keyboard-response","251","320761","0.0-17.0-1.0-0.0","scnrs4pn5c","","scnrs4pn5c","""2024-11-12T18:42:18.471Z""","null","+","null","","","","","","",""
"","","","","","image-keyboard-response","252","321315","0.0-17.0-1.0-1.0","scnrs4pn5c","","scnrs4pn5c","""2024-11-12T18:42:18.471Z""","552","materials/imgs/D46.png","arrowleft","","[""materials/imgs/D46.png"",""materials/imgs/D26.png""]","","check","materials/imgs/D46.png","0","true"
"","","","","","html-keyboard-response","253","321816","0.0-17.0-2.0-0.0","scnrs4pn5c","","scnrs4pn5c","""2024-11-12T18:42:18.471Z""","null","+","null","","","","","","",""
"","","","","","image-keyboard-response","254","323854","0.0-17.0-2.0-1.0","scnrs4pn5c","","scnrs4pn5c","""2024-11-12T18:42:18.471Z""","2036","materials/imgs/D96.png","arrowright","","[""materials/imgs/D46.png"",""materials/imgs/D18.png""]","false","validation","","",""
"","","","","","html-keyboard-response","255","324355","0.0-17.0-2.0-0.1","scnrs4pn5c","","scnrs4pn5c","""2024-11-12T18:42:18.471Z""","null","+","null","","","","","","",""
"","","","","","image-keyboard-response","256","325121","0.0-17.0-2.0-1.1","scnrs4pn5c","","scnrs4pn5c","""2024-11-12T18:42:18.471Z""","764","materials/imgs/D3.png","arrowleft","","[""materials/imgs/D79.png"",""materials/imgs/D48.png""]","false","validation","","",""
"","","","","","html-keyboard-response","257","325622","0.0-17.0-0.1-0.7","scnrs4pn5c","","scnrs4pn5c","""2024-11-12T18:42:18.471Z""","null","+","null","","","","","","",""
"","","","","","image-keyboard-response","258","326815","0.0-17.0-0.1-1.7","scnrs4pn5c","","scnrs4pn5c","""2024-11-12T18:42:18.471Z""","1190","materials/imgs/D111.png","arrowright","","[""materials/imgs/D24.png"",""materials/imgs/D68.png""]","false","random","","",""
"","","","","","html-keyboard-response","259","327316","0.0-17.0-0.1-0.8","scnrs4pn5c","","scnrs4pn5c","""2024-11-12T18:42:18.471Z""","null","+","null","","","","","","",""
"","","","","","image-keyboard-response","260","328474","0.0-17.0-0.1-1.8","scnrs4pn5c","","scnrs4pn5c","""2024-11-12T18:42:18.471Z""","1156","materials/imgs/D29.png","arrowright","","[""materials/imgs/D57.png"",""materials/imgs/D81.png""]","false","random","","",""
"","","","","","html-keyboard-response","261","328975","0.0-17.0-0.1-0.9","scnrs4pn5c","","scnrs4pn5c","""2024-11-12T18:42:18.471Z""","null","+","null","","","","","","",""
"","","","","","image-keyboard-response","262","329647","0.0-17.0-0.1-1.9","scnrs4pn5c","","scnrs4pn5c","""2024-11-12T18:42:18.471Z""","670","materials/imgs/D77.png","arrowright","","[""materials/imgs/D37.png"",""materials/imgs/D49.png""]","false","random","","",""
"","","","","","html-keyboard-response","263","330148","0.0-17.0-0.1-0.10","scnrs4pn5c","","scnrs4pn5c","""2024-11-12T18:42:18.471Z""","null","+","null","","","","","","",""
"","","","","","image-keyboard-response","264","331654","0.0-17.0-0.1-1.10","scnrs4pn5c","","scnrs4pn5c","""2024-11-12T18:42:18.471Z""","1503","materials/imgs/D84.png","arrowright","","[""materials/imgs/D8.png"",""materials/imgs/D74.png""]","false","random","","",""
"","","","","","html-keyboard-response","265","332155","0.0-17.0-0.1-0.11","scnrs4pn5c","","scnrs4pn5c","""2024-11-12T18:42:18.471Z""","null","+","null","","","","","","",""
"","","","","","image-keyboard-response","266","333413","0.0-17.0-0.1-1.11","scnrs4pn5c","","scnrs4pn5c","""2024-11-12T18:42:18.471Z""","1255","materials/imgs/D46.png","arrowright","","[""materials/imgs/D3.png"",""materials/imgs/D52.png""]","false","random","","",""
"","","","","","html-keyboard-response","267","333915","0.0-17.0-0.1-0.12","scnrs4pn5c","","scnrs4pn5c","""2024-11-12T18:42:18.471Z""","null","+","null","","","","","","",""
"","","","","","image-keyboard-response","268","335294","0.0-17.0-0.1-1.12","scnrs4pn5c","","scnrs4pn5c","""2024-11-12T18:42:18.471Z""","1377","materials/imgs/D103.png","arrowright","","[""materials/imgs/D37.png"",""materials/imgs/D18.png""]","false","random","","",""
"","","","","","html-keyboard-response","269","335795","0.0-17.0-0.1-0.13","scnrs4pn5c","","scnrs4pn5c","""2024-11-12T18:42:18.471Z""","null","+","null","","","","","","",""
"","","","","","image-keyboard-response","270","336961","0.0-17.0-0.1-1.13","scnrs4pn5c","","scnrs4pn5c","""2024-11-12T18:42:18.471Z""","1163","materials/imgs/D65.png","arrowright","","[""materials/imgs/D18.png"",""materials/imgs/D55.png""]","false","random","","",""
"","","","","","html-keyboard-response","271","337462","0.0-17.0-1.1-0.1","scnrs4pn5c","","scnrs4pn5c","""2024-11-12T18:42:18.471Z""","null","+","null","","","","","","",""
"","","","","","image-keyboard-response","272","339051","0.0-17.0-1.1-1.1","scnrs4pn5c","","scnrs4pn5c","""2024-11-12T18:42:18.471Z""","1587","materials/imgs/D76.png","arrowleft","","[""materials/imgs/D76.png"",""materials/imgs/D78.png""]","","check","materials/imgs/D76.png","0","true"
"","","","","","html-keyboard-response","273","339552","0.0-17.0-2.1-0.2","scnrs4pn5c","","scnrs4pn5c","""2024-11-12T18:42:18.471Z""","null","+","null","","","","","","",""
"","","","","","image-keyboard-response","274","341168","0.0-17.0-2.1-1.2","scnrs4pn5c","","scnrs4pn5c","""2024-11-12T18:42:18.471Z""","1614","materials/imgs/D82.png","arrowleft","","[""materials/imgs/D83.png"",""materials/imgs/D22.png""]","false","validation","","",""
"","","","","","html-keyboard-response","275","341669","0.0-17.0-2.1-0.3","scnrs4pn5c","","scnrs4pn5c","""2024-11-12T18:42:18.471Z""","null","+","null","","","","","","",""
"","","","","","image-keyboard-response","276","343701","0.0-17.0-2.1-1.3","scnrs4pn5c","","scnrs4pn5c","""2024-11-12T18:42:18.471Z""","2030","materials/imgs/D56.png","arrowright","","[""materials/imgs/D25.png"",""materials/imgs/D105.png""]","false","validation","","",""
"","","","","","html-keyboard-response","277","344202","0.0-17.0-0.2-0.14","scnrs4pn5c","","scnrs4pn5c","""2024-11-12T18:42:18.471Z""","null","+","null","","","","","","",""
"","","","","","image-keyboard-response","278","346821","0.0-17.0-0.2-1.14","scnrs4pn5c","","scnrs4pn5c","""2024-11-12T18:42:18.471Z""","2617","materials/imgs/D95.png","arrowleft","","[""materials/imgs/D24.png"",""materials/imgs/D6.png""]","false","random","","",""
"","","","","","html-keyboard-response","279","347323","0.0-17.0-0.2-0.15","scnrs4pn5c","","scnrs4pn5c","""2024-11-12T18:42:18.471Z""","null","+","null","","","","","","",""
"","","","","","image-keyboard-response","280","348581","0.0-17.0-0.2-1.15","scnrs4pn5c","","scnrs4pn5c","""2024-11-12T18:42:18.471Z""","1255","materials/imgs/D17.png","arrowleft","","[""materials/imgs/D55.png"",""materials/imgs/D75.png""]","false","random","","",""
"","","","","","html-keyboard-response","281","349083","0.0-17.0-0.2-0.16","scnrs4pn5c","","scnrs4pn5c","""2024-11-12T18:42:18.471Z""","null","+","null","","","","","","",""
"","","","","","image-keyboard-response","282","351309","0.0-17.0-0.2-1.16","scnrs4pn5c","","scnrs4pn5c","""2024-11-12T18:42:18.471Z""","2224","materials/imgs/D101.png","arrowleft","","[""materials/imgs/D37.png"",""materials/imgs/D11.png""]","false","random","","",""
"","","","","","html-keyboard-response","283","351811","0.0-17.0-0.2-0.17","scnrs4pn5c","","scnrs4pn5c","""2024-11-12T18:42:18.471Z""","null","+","null","","","","","","",""
"","","","","","image-keyboard-response","284","353283","0.0-17.0-0.2-1.17","scnrs4pn5c","","scnrs4pn5c","""2024-11-12T18:42:18.471Z""","1470","materials/imgs/D84.png","arrowright","","[""materials/imgs/D78.png"",""materials/imgs/D103.png""]","false","random","","",""
"","","","","","html-keyboard-response","285","353784","0.0-17.0-0.2-0.18","scnrs4pn5c","","scnrs4pn5c","""2024-11-12T18:42:18.471Z""","null","+","null","","","","","","",""
"","","","","","image-keyboard-response","286","355573","0.0-17.0-0.2-1.18","scnrs4pn5c","","scnrs4pn5c","""2024-11-12T18:42:18.471Z""","1787","materials/imgs/D68.png","arrowleft","","[""materials/imgs/D80.png"",""materials/imgs/D53.png""]","false","random","","",""
"","","","","","html-keyboard-response","287","356075","0.0-17.0-0.2-0.19","scnrs4pn5c","","scnrs4pn5c","""2024-11-12T18:42:18.471Z""","null","+","null","","","","","","",""
"","","","","","image-keyboard-response","288","357003","0.0-17.0-0.2-1.19","scnrs4pn5c","","scnrs4pn5c","""2024-11-12T18:42:18.471Z""","926","materials/imgs/D6.png","arrowleft","","[""materials/imgs/D21.png"",""materials/imgs/D66.png""]","false","random","","",""
"","","","","","html-keyboard-response","289","357504","0.0-17.0-0.2-0.20","scnrs4pn5c","","scnrs4pn5c","""2024-11-12T18:42:18.471Z""","null","+","null","","","","","","",""
"","","","","","image-keyboard-response","290","358806","0.0-17.0-0.2-1.20","scnrs4pn5c","","scnrs4pn5c","""2024-11-12T18:42:18.471Z""","1300","materials/imgs/D111.png","arrowleft","","[""materials/imgs/D32.png"",""materials/imgs/D34.png""]","false","random","","",""
"","","","","","html-keyboard-response","291","359307","0.0-17.0-1.2-0.2","scnrs4pn5c","","scnrs4pn5c","""2024-11-12T18:42:18.471Z""","null","+","null","","","","","","",""
"","","","","","image-keyboard-response","292","359972","0.0-17.0-1.2-1.2","scnrs4pn5c","","scnrs4pn5c","""2024-11-12T18:42:18.471Z""","662","materials/imgs/D64.png","arrowleft","","[""materials/imgs/D64.png"",""materials/imgs/D53.png""]","","check","materials/imgs/D64.png","0","true"
"","","","","","html-keyboard-response","293","360473","0.0-17.0-2.2-0.4","scnrs4pn5c","","scnrs4pn5c","""2024-11-12T18:42:18.471Z""","null","+","null","","","","","","",""
"","","","","","image-keyboard-response","294","361647","0.0-17.0-2.2-1.4","scnrs4pn5c","","scnrs4pn5c","""2024-11-12T18:42:18.471Z""","1171","materials/imgs/D111.png","arrowright","","[""materials/imgs/D82.png"",""materials/imgs/D95.png""]","false","validation","","",""
"","","","","","html-keyboard-response","295","362148","0.0-17.0-2.2-0.5","scnrs4pn5c","","scnrs4pn5c","""2024-11-12T18:42:18.471Z""","null","+","null","","","","","","",""
"","","","","","image-keyboard-response","296","364159","0.0-17.0-2.2-1.5","scnrs4pn5c","","scnrs4pn5c","""2024-11-12T18:42:18.471Z""","2009","materials/imgs/D16.png","arrowleft","","[""materials/imgs/D52.png"",""materials/imgs/D25.png""]","false","validation","","",""
"","","","","","html-keyboard-response","297","364660","0.0-17.0-0.3-0.21","scnrs4pn5c","","scnrs4pn5c","""2024-11-12T18:42:18.471Z""","null","+","null","","","","","","",""
"","","","","","image-keyboard-response","298","366124","0.0-17.0-0.3-1.21","scnrs4pn5c","","scnrs4pn5c","""2024-11-12T18:42:18.471Z""","1461","materials/imgs/D24.png","arrowright","","[""materials/imgs/D102.png"",""materials/imgs/D65.png""]","false","random","","",""
"","","","","","html-keyboard-response","299","366625","0.0-17.0-0.3-0.22","scnrs4pn5c","","scnrs4pn5c","""2024-11-12T18:42:18.471Z""","null","+","null","","","","","","",""
"","","","","","image-keyboard-response","300","369056","0.0-17.0-0.3-1.22","scnrs4pn5c","","scnrs4pn5c","""2024-11-12T18:42:18.471Z""","2429","materials/imgs/D104.png","arrowright","","[""materials/imgs/D16.png"",""materials/imgs/D96.png""]","false","random","","",""
"","","","","","html-keyboard-response","301","369557","0.0-17.0-0.3-0.23","scnrs4pn5c","","scnrs4pn5c","""2024-11-12T18:42:18.471Z""","null","+","null","","","","","","",""
"","","","","","image-keyboard-response","302","371242","0.0-17.0-0.3-1.23","scnrs4pn5c","","scnrs4pn5c","""2024-11-12T18:42:18.471Z""","1682","materials/imgs/D76.png","arrowleft","","[""materials/imgs/D51.png"",""materials/imgs/D53.png""]","false","random","","",""
"","","","","","html-keyboard-response","303","371743","0.0-17.0-0.3-0.24","scnrs4pn5c","","scnrs4pn5c","""2024-11-12T18:42:18.471Z""","null","+","null","","","","","","",""
"","","","","","image-keyboard-response","304","374452","0.0-17.0-0.3-1.24","scnrs4pn5c","","scnrs4pn5c","""2024-11-12T18:42:18.471Z""","2707","materials/imgs/D101.png","arrowleft","","[""materials/imgs/D103.png"",""materials/imgs/D104.png""]","false","random","","",""
"","","","","","html-keyboard-response","305","374954","0.0-17.0-0.3-0.25","scnrs4pn5c","","scnrs4pn5c","""2024-11-12T18:42:18.471Z""","null","+","null","","","","","","",""
"","","","","","image-keyboard-response","306","376649","0.0-17.0-0.3-1.25","scnrs4pn5c","","scnrs4pn5c","""2024-11-12T18:42:18.471Z""","1693","materials/imgs/D37.png","arrowleft","","[""materials/imgs/D66.png"",""materials/imgs/D6.png""]","false","random","","",""
"","","","","","html-keyboard-response","307","377151","0.0-17.0-0.3-0.26","scnrs4pn5c","","scnrs4pn5c","""2024-11-12T18:42:18.471Z""","null","+","null","","","","","","",""
"","","","","","image-keyboard-response","308","377870","0.0-17.0-0.3-1.26","scnrs4pn5c","","scnrs4pn5c","""2024-11-12T18:42:18.471Z""","717","materials/imgs/D11.png","arrowright","","[""materials/imgs/D77.png"",""materials/imgs/D78.png""]","false","random","","",""
"","","","","","html-keyboard-response","309","378372","0.0-17.0-0.3-0.27","scnrs4pn5c","","scnrs4pn5c","""2024-11-12T18:42:18.471Z""","null","+","null","","","","","","",""
"","","","","","image-keyboard-response","310","379359","0.0-17.0-0.3-1.27","scnrs4pn5c","","scnrs4pn5c","""2024-11-12T18:42:18.471Z""","985","materials/imgs/D65.png","arrowleft","","[""materials/imgs/D82.png"",""materials/imgs/D81.png""]","false","random","","",""
"","","","","","html-keyboard-response","311","379861","0.0-17.0-1.3-0.3","scnrs4pn5c","","scnrs4pn5c","""2024-11-12T18:42:18.471Z""","null","+","null","","","","","","",""
"","","","","","image-keyboard-response","312","380526","0.0-17.0-1.3-1.3","scnrs4pn5c","","scnrs4pn5c","""2024-11-12T18:42:18.471Z""","663","materials/imgs/D26.png","arrowleft","","[""materials/imgs/D26.png"",""materials/imgs/D46.png""]","","check","materials/imgs/D26.png","0","true"
"","","","","","html-keyboard-response","313","381028","0.0-17.0-2.3-0.6","scnrs4pn5c","","scnrs4pn5c","""2024-11-12T18:42:18.471Z""","null","+","null","","","","","","",""
"","","","","","image-keyboard-response","314","386145","0.0-17.0-2.3-1.6","scnrs4pn5c","","scnrs4pn5c","""2024-11-12T18:42:18.471Z""","5115","materials/imgs/D95.png","arrowright","","[""materials/imgs/D36.png"",""materials/imgs/D4.png""]","false","validation","","",""
"","","","","","html-keyboard-response","315","386646","0.0-17.0-2.3-0.7","scnrs4pn5c","","scnrs4pn5c","""2024-11-12T18:42:18.471Z""","null","+","null","","","","","","",""
"","","","","","image-keyboard-response","316","387886","0.0-17.0-2.3-1.7","scnrs4pn5c","","scnrs4pn5c","""2024-11-12T18:42:18.471Z""","1238","materials/imgs/D9.png","arrowleft","","[""materials/imgs/D103.png"",""materials/imgs/D4.png""]","false","validation","","",""
"","","","","","html-keyboard-response","317","388387","0.0-17.0-0.4-0.28","scnrs4pn5c","","scnrs4pn5c","""2024-11-12T18:42:18.471Z""","null","+","null","","","","","","",""
"","","","","","image-keyboard-response","318","389526","0.0-17.0-0.4-1.28","scnrs4pn5c","","scnrs4pn5c","""2024-11-12T18:42:18.471Z""","1137","materials/imgs/D84.png","arrowleft","","[""materials/imgs/D80.png"",""materials/imgs/D48.png""]","false","random","","",""
"","","","","","html-keyboard-response","319","390027","0.0-17.0-0.4-0.29","scnrs4pn5c","","scnrs4pn5c","""2024-11-12T18:42:18.471Z""","null","+","null","","","","","","",""
"","","","","","image-keyboard-response","320","390870","0.0-17.0-0.4-1.29","scnrs4pn5c","","scnrs4pn5c","""2024-11-12T18:42:18.471Z""","841","materials/imgs/D65.png","arrowleft","","[""materials/imgs/D56.png"",""materials/imgs/D80.png""]","false","random","","",""
"","","","","","html-keyboard-response","321","391372","0.0-17.0-0.4-0.30","scnrs4pn5c","","scnrs4pn5c","""2024-11-12T18:42:18.471Z""","null","+","null","","","","","","",""
"","","","","","image-keyboard-response","322","392477","0.0-17.0-0.4-1.30","scnrs4pn5c","","scnrs4pn5c","""2024-11-12T18:42:18.471Z""","1103","materials/imgs/D87.png","arrowright","","[""materials/imgs/D19.png"",""materials/imgs/D65.png""]","false","random","","",""
"","","","","","html-keyboard-response","323","392978","0.0-17.0-0.4-0.31","scnrs4pn5c","","scnrs4pn5c","""2024-11-12T18:42:18.471Z""","null","+","null","","","","","","",""
"","","","","","image-keyboard-response","324","393969","0.0-17.0-0.4-1.31","scnrs4pn5c","","scnrs4pn5c","""2024-11-12T18:42:18.471Z""","989","materials/imgs/D47.png","arrowright","","[""materials/imgs/D32.png"",""materials/imgs/D34.png""]","false","random","","",""
"","","","","","html-keyboard-response","325","394470","0.0-17.0-0.4-0.32","scnrs4pn5c","","scnrs4pn5c","""2024-11-12T18:42:18.471Z""","null","+","null","","","","","","",""
"","","","","","image-keyboard-response","326","395194","0.0-17.0-0.4-1.32","scnrs4pn5c","","scnrs4pn5c","""2024-11-12T18:42:18.471Z""","722","materials/imgs/D16.png","arrowleft","","[""materials/imgs/D14.png"",""materials/imgs/D94.png""]","false","random","","",""
"","","","","","html-keyboard-response","327","395695","0.0-17.0-0.4-0.33","scnrs4pn5c","","scnrs4pn5c","""2024-11-12T18:42:18.471Z""","null","+","null","","","","","","",""
"","","","","","image-keyboard-response","328","397102","0.0-17.0-0.4-1.33","scnrs4pn5c","","scnrs4pn5c","""2024-11-12T18:42:18.471Z""","1404","materials/imgs/D24.png","arrowright","","[""materials/imgs/D65.png"",""materials/imgs/D34.png""]","false","random","","",""
"","","","","","html-keyboard-response","329","397604","0.0-17.0-0.4-0.34","scnrs4pn5c","","scnrs4pn5c","""2024-11-12T18:42:18.471Z""","null","+","null","","","","","","",""
"","","","","","image-keyboard-response","330","398921","0.0-17.0-0.4-1.34","scnrs4pn5c","","scnrs4pn5c","""2024-11-12T18:42:18.471Z""","1315","materials/imgs/D85.png","arrowleft","","[""materials/imgs/D83.png"",""materials/imgs/D35.png""]","false","random","","",""
"","","","","","html-keyboard-response","331","399423","0.0-17.0-1.4-0.4","scnrs4pn5c","","scnrs4pn5c","""2024-11-12T18:42:18.471Z""","null","+","null","","","","","","",""
"","","","","","image-keyboard-response","332","400021","0.0-17.0-1.4-1.4","scnrs4pn5c","","scnrs4pn5c","""2024-11-12T18:42:18.471Z""","596","materials/imgs/D106.png","arrowleft","","[""materials/imgs/D106.png"",""materials/imgs/D101.png""]","","check","materials/imgs/D106.png","0","true"
"","","","","","html-keyboard-response","333","400522","0.0-17.0-2.4-0.8","scnrs4pn5c","","scnrs4pn5c","""2024-11-12T18:42:18.471Z""","null","+","null","","","","","","",""
"","","","","","image-keyboard-response","334","401442","0.0-17.0-2.4-1.8","scnrs4pn5c","","scnrs4pn5c","""2024-11-12T18:42:18.471Z""","918","materials/imgs/D25.png","arrowright","","[""materials/imgs/D103.png"",""materials/imgs/D64.png""]","false","validation","","",""
"","","","","","html-keyboard-response","335","401943","0.0-17.0-2.4-0.9","scnrs4pn5c","","scnrs4pn5c","""2024-11-12T18:42:18.471Z""","null","+","null","","","","","","",""
"","","","","","image-keyboard-response","336","404026","0.0-17.0-2.4-1.9","scnrs4pn5c","","scnrs4pn5c","""2024-11-12T18:42:18.471Z""","2080","materials/imgs/D66.png","arrowleft","","[""materials/imgs/D85.png"",""materials/imgs/D25.png""]","false","validation","","",""
"","","","","","html-button-response","337","406320","0.0-18.0","scnrs4pn5c","","scnrs4pn5c","""2024-11-12T18:42:18.471Z""","2293","You have completed 75% of the trials. Please click 'Continue' when you are ready proceed.","0","","","","","","",""
"","","","","","html-keyboard-response","338","406821","0.0-19.0-0.0-0.0","scnrs4pn5c","","scnrs4pn5c","""2024-11-12T18:42:18.471Z""","null","+","null","","","","","","",""
"","","","","","image-keyboard-response","339","408088","0.0-19.0-0.0-1.0","scnrs4pn5c","","scnrs4pn5c","""2024-11-12T18:42:18.471Z""","1265","materials/imgs/D53.png","arrowright","","[""materials/imgs/D96.png"",""materials/imgs/D106.png""]","false","random","","",""
"","","","","","html-keyboard-response","340","408589","0.0-19.0-0.0-0.1","scnrs4pn5c","","scnrs4pn5c","""2024-11-12T18:42:18.471Z""","null","+","null","","","","","","",""
"","","","","","image-keyboard-response","341","411478","0.0-19.0-0.0-1.1","scnrs4pn5c","","scnrs4pn5c","""2024-11-12T18:42:18.471Z""","2887","materials/imgs/D96.png","arrowright","","[""materials/imgs/D105.png"",""materials/imgs/D84.png""]","false","random","","",""
"","","","","","html-keyboard-response","342","411979","0.0-19.0-0.0-0.2","scnrs4pn5c","","scnrs4pn5c","""2024-11-12T18:42:18.471Z""","null","+","null","","","","","","",""
"","","","","","image-keyboard-response","343","412613","0.0-19.0-0.0-1.2","scnrs4pn5c","","scnrs4pn5c","""2024-11-12T18:42:18.471Z""","631","materials/imgs/D9.png","arrowright","","[""materials/imgs/D20.png"",""materials/imgs/D57.png""]","false","random","","",""
"","","","","","html-keyboard-response","344","413114","0.0-19.0-0.0-0.3","scnrs4pn5c","","scnrs4pn5c","""2024-11-12T18:42:18.471Z""","null","+","null","","","","","","",""
"","","","","","image-keyboard-response","345","414525","0.0-19.0-0.0-1.3","scnrs4pn5c","","scnrs4pn5c","""2024-11-12T18:42:18.471Z""","1409","materials/imgs/D83.png","arrowright","","[""materials/imgs/D55.png"",""materials/imgs/D103.png""]","false","random","","",""
"","","","","","html-keyboard-response","346","415026","0.0-19.0-0.0-0.4","scnrs4pn5c","","scnrs4pn5c","""2024-11-12T18:42:18.471Z""","null","+","null","","","","","","",""
"","","","","","image-keyboard-response","347","416480","0.0-19.0-0.0-1.4","scnrs4pn5c","","scnrs4pn5c","""2024-11-12T18:42:18.471Z""","1451","materials/imgs/D74.png","arrowright","","[""materials/imgs/D1.png"",""materials/imgs/D80.png""]","false","random","","",""
"","","","","","html-keyboard-response","348","416981","0.0-19.0-0.0-0.5","scnrs4pn5c","","scnrs4pn5c","""2024-11-12T18:42:18.471Z""","null","+","null","","","","","","",""
"","","","","","image-keyboard-response","349","418545","0.0-19.0-0.0-1.5","scnrs4pn5c","","scnrs4pn5c","""2024-11-12T18:42:18.471Z""","1562","materials/imgs/D56.png","arrowleft","","[""materials/imgs/D85.png"",""materials/imgs/D26.png""]","false","random","","",""
"","","","","","html-keyboard-response","350","419046","0.0-19.0-0.0-0.6","scnrs4pn5c","","scnrs4pn5c","""2024-11-12T18:42:18.471Z""","null","+","null","","","","","","",""
"","","","","","image-keyboard-response","351","420138","0.0-19.0-0.0-1.6","scnrs4pn5c","","scnrs4pn5c","""2024-11-12T18:42:18.471Z""","1090","materials/imgs/D95.png","arrowright","","[""materials/imgs/D53.png"",""materials/imgs/D47.png""]","false","random","","",""
"","","","","","html-keyboard-response","352","420640","0.0-19.0-1.0-0.0","scnrs4pn5c","","scnrs4pn5c","""2024-11-12T18:42:18.471Z""","null","+","null","","","","","","",""
"","","","","","image-keyboard-response","353","421345","0.0-19.0-1.0-1.0","scnrs4pn5c","","scnrs4pn5c","""2024-11-12T18:42:18.471Z""","704","materials/imgs/D26.png","arrowleft","","[""materials/imgs/D26.png"",""materials/imgs/D46.png""]","","check","materials/imgs/D26.png","0","true"
"","","","","","html-keyboard-response","354","421847","0.0-19.0-2.0-0.0","scnrs4pn5c","","scnrs4pn5c","""2024-11-12T18:42:18.471Z""","null","+","null","","","","","","",""
"","","","","","image-keyboard-response","355","423427","0.0-19.0-2.0-1.0","scnrs4pn5c","","scnrs4pn5c","""2024-11-12T18:42:18.471Z""","1579","materials/imgs/D26.png","arrowright","","[""materials/imgs/D36.png"",""materials/imgs/D92.png""]","false","validation","","",""
"","","","","","html-keyboard-response","356","423929","0.0-19.0-2.0-0.1","scnrs4pn5c","","scnrs4pn5c","""2024-11-12T18:42:18.471Z""","null","+","null","","","","","","",""
"","","","","","image-keyboard-response","357","425346","0.0-19.0-2.0-1.1","scnrs4pn5c","","scnrs4pn5c","""2024-11-12T18:42:18.471Z""","1416","materials/imgs/D66.png","arrowleft","","[""materials/imgs/D85.png"",""materials/imgs/D25.png""]","false","validation","","",""
"","","","","","html-keyboard-response","358","425848","0.0-19.0-0.1-0.7","scnrs4pn5c","","scnrs4pn5c","""2024-11-12T18:42:18.471Z""","null","+","null","","","","","","",""
"","","","","","image-keyboard-response","359","426680","0.0-19.0-0.1-1.7","scnrs4pn5c","","scnrs4pn5c","""2024-11-12T18:42:18.471Z""","830","materials/imgs/D52.png","arrowright","","[""materials/imgs/D64.png"",""materials/imgs/D106.png""]","false","random","","",""
"","","","","","html-keyboard-response","360","427182","0.0-19.0-0.1-0.8","scnrs4pn5c","","scnrs4pn5c","""2024-11-12T18:42:18.471Z""","null","+","null","","","","","","",""
"","","","","","image-keyboard-response","361","428599","0.0-19.0-0.1-1.8","scnrs4pn5c","","scnrs4pn5c","""2024-11-12T18:42:18.471Z""","1415","materials/imgs/D104.png","arrowleft","","[""materials/imgs/D18.png"",""materials/imgs/D25.png""]","false","random","","",""
"","","","","","html-keyboard-response","362","429100","0.0-19.0-0.1-0.9","scnrs4pn5c","","scnrs4pn5c","""2024-11-12T18:42:18.471Z""","null","+","null","","","","","","",""
"","","","","","image-keyboard-response","363","429752","0.0-19.0-0.1-1.9","scnrs4pn5c","","scnrs4pn5c","""2024-11-12T18:42:18.471Z""","648","materials/imgs/D80.png","arrowright","","[""materials/imgs/D18.png"",""materials/imgs/D53.png""]","false","random","","",""
"","","","","","html-keyboard-response","364","430253","0.0-19.0-0.1-0.10","scnrs4pn5c","","scnrs4pn5c","""2024-11-12T18:42:18.471Z""","null","+","null","","","","","","",""
"","","","","","image-keyboard-response","365","431822","0.0-19.0-0.1-1.10","scnrs4pn5c","","scnrs4pn5c","""2024-11-12T18:42:18.471Z""","1566","materials/imgs/D48.png","arrowleft","","[""materials/imgs/D87.png"",""materials/imgs/D77.png""]","false","random","","",""
"","","","","","html-keyboard-response","366","432323","0.0-19.0-0.1-0.11","scnrs4pn5c","","scnrs4pn5c","""2024-11-12T18:42:18.471Z""","null","+","null","","","","","","",""
"","","","","","image-keyboard-response","367","433646","0.0-19.0-0.1-1.11","scnrs4pn5c","","scnrs4pn5c","""2024-11-12T18:42:18.471Z""","1320","materials/imgs/D101.png","arrowright","","[""materials/imgs/D3.png"",""materials/imgs/D17.png""]","false","random","","",""
"","","","","","html-keyboard-response","368","434148","0.0-19.0-0.1-0.12","scnrs4pn5c","","scnrs4pn5c","""2024-11-12T18:42:18.471Z""","null","+","null","","","","","","",""
"","","","","","image-keyboard-response","369","435560","0.0-19.0-0.1-1.12","scnrs4pn5c","","scnrs4pn5c","""2024-11-12T18:42:18.471Z""","1410","materials/imgs/D25.png","arrowleft","","[""materials/imgs/D68.png"",""materials/imgs/D20.png""]","false","random","","",""
"","","","","","html-keyboard-response","370","436061","0.0-19.0-0.1-0.13","scnrs4pn5c","","scnrs4pn5c","""2024-11-12T18:42:18.471Z""","null","+","null","","","","","","",""
"","","","","","image-keyboard-response","371","436691","0.0-19.0-0.1-1.13","scnrs4pn5c","","scnrs4pn5c","""2024-11-12T18:42:18.471Z""","627","materials/imgs/D24.png","arrowright","","[""materials/imgs/D101.png"",""materials/imgs/D84.png""]","false","random","","",""
"","","","","","html-keyboard-response","372","437192","0.0-19.0-1.1-0.1","scnrs4pn5c","","scnrs4pn5c","""2024-11-12T18:42:18.471Z""","null","+","null","","","","","","",""
"","","","","","image-keyboard-response","373","437780","0.0-19.0-1.1-1.1","scnrs4pn5c","","scnrs4pn5c","""2024-11-12T18:42:18.471Z""","586","materials/imgs/D8.png","arrowright","","[""materials/imgs/D18.png"",""materials/imgs/D8.png""]","","check","materials/imgs/D8.png","1","true"
"","","","","","html-keyboard-response","374","438281","0.0-19.0-2.1-0.2","scnrs4pn5c","","scnrs4pn5c","""2024-11-12T18:42:18.471Z""","null","+","null","","","","","","",""
"","","","","","image-keyboard-response","375","439206","0.0-19.0-2.1-1.2","scnrs4pn5c","","scnrs4pn5c","""2024-11-12T18:42:18.471Z""","923","materials/imgs/D11.png","arrowleft","","[""materials/imgs/D83.png"",""materials/imgs/D48.png""]","false","validation","","",""
"","","","","","html-keyboard-response","376","439708","0.0-19.0-2.1-0.3","scnrs4pn5c","","scnrs4pn5c","""2024-11-12T18:42:18.471Z""","null","+","null","","","","","","",""
"","","","","","image-keyboard-response","377","441614","0.0-19.0-2.1-1.3","scnrs4pn5c","","scnrs4pn5c","""2024-11-12T18:42:18.471Z""","1904","materials/imgs/D8.png","arrowleft","","[""materials/imgs/D101.png"",""materials/imgs/D52.png""]","false","validation","","",""
"","","","","","html-keyboard-response","378","442116","0.0-19.0-0.2-0.14","scnrs4pn5c","","scnrs4pn5c","""2024-11-12T18:42:18.471Z""","null","+","null","","","","","","",""
"","","","","","image-keyboard-response","379","442800","0.0-19.0-0.2-1.14","scnrs4pn5c","","scnrs4pn5c","""2024-11-12T18:42:18.471Z""","681","materials/imgs/D29.png","arrowleft","","[""materials/imgs/D84.png"",""materials/imgs/D81.png""]","false","random","","",""
"","","","","","html-keyboard-response","380","443301","0.0-19.0-0.2-0.15","scnrs4pn5c","","scnrs4pn5c","""2024-11-12T18:42:18.471Z""","null","+","null","","","","","","",""
"","","","","","image-keyboard-response","381","444017","0.0-19.0-0.2-1.15","scnrs4pn5c","","scnrs4pn5c","""2024-11-12T18:42:18.471Z""","714","materials/imgs/D21.png","arrowright","","[""materials/imgs/D66.png"",""materials/imgs/D36.png""]","false","random","","",""
"","","","","","html-keyboard-response","382","444518","0.0-19.0-0.2-0.16","scnrs4pn5c","","scnrs4pn5c","""2024-11-12T18:42:18.471Z""","null","+","null","","","","","","",""
"","","","","","image-keyboard-response","383","445322","0.0-19.0-0.2-1.16","scnrs4pn5c","","scnrs4pn5c","""2024-11-12T18:42:18.471Z""","801","materials/imgs/D56.png","arrowright","","[""materials/imgs/D103.png"",""materials/imgs/D76.png""]","false","random","","",""
"","","","","","html-keyboard-response","384","445823","0.0-19.0-0.2-0.17","scnrs4pn5c","","scnrs4pn5c","""2024-11-12T18:42:18.471Z""","null","+","null","","","","","","",""
"","","","","","image-keyboard-response","385","446525","0.0-19.0-0.2-1.17","scnrs4pn5c","","scnrs4pn5c","""2024-11-12T18:42:18.471Z""","700","materials/imgs/D104.png","arrowleft","","[""materials/imgs/D35.png"",""materials/imgs/D68.png""]","false","random","","",""
"","","","","","html-keyboard-response","386","447026","0.0-19.0-0.2-0.18","scnrs4pn5c","","scnrs4pn5c","""2024-11-12T18:42:18.471Z""","null","+","null","","","","","","",""
"","","","","","image-keyboard-response","387","448896","0.0-19.0-0.2-1.18","scnrs4pn5c","","scnrs4pn5c","""2024-11-12T18:42:18.471Z""","1868","materials/imgs/D48.png","arrowleft","","[""materials/imgs/D3.png"",""materials/imgs/D85.png""]","false","random","","",""
"","","","","","html-keyboard-response","388","449398","0.0-19.0-0.2-0.19","scnrs4pn5c","","scnrs4pn5c","""2024-11-12T18:42:18.471Z""","null","+","null","","","","","","",""
"","","","","","image-keyboard-response","389","450358","0.0-19.0-0.2-1.19","scnrs4pn5c","","scnrs4pn5c","""2024-11-12T18:42:18.471Z""","958","materials/imgs/D83.png","arrowleft","","[""materials/imgs/D105.png"",""materials/imgs/D36.png""]","false","random","","",""
"","","","","","html-keyboard-response","390","450860","0.0-19.0-0.2-0.20","scnrs4pn5c","","scnrs4pn5c","""2024-11-12T18:42:18.471Z""","null","+","null","","","","","","",""
"","","","","","image-keyboard-response","391","451445","0.0-19.0-0.2-1.20","scnrs4pn5c","","scnrs4pn5c","""2024-11-12T18:42:18.471Z""","583","materials/imgs/D78.png","arrowleft","","[""materials/imgs/D105.png"",""materials/imgs/D26.png""]","false","random","","",""
"","","","","","html-keyboard-response","392","451947","0.0-19.0-1.2-0.2","scnrs4pn5c","","scnrs4pn5c","""2024-11-12T18:42:18.471Z""","null","+","null","","","","","","",""
"","","","","","image-keyboard-response","393","452618","0.0-19.0-1.2-1.2","scnrs4pn5c","","scnrs4pn5c","""2024-11-12T18:42:18.471Z""","669","materials/imgs/D78.png","arrowright","","[""materials/imgs/D76.png"",""materials/imgs/D78.png""]","","check","materials/imgs/D78.png","1","true"
"","","","","","html-keyboard-response","394","453119","0.0-19.0-2.2-0.4","scnrs4pn5c","","scnrs4pn5c","""2024-11-12T18:42:18.471Z""","null","+","null","","","","","","",""
"","","","","","image-keyboard-response","395","453703","0.0-19.0-2.2-1.4","scnrs4pn5c","","scnrs4pn5c","""2024-11-12T18:42:18.471Z""","583","materials/imgs/D105.png","arrowleft","","[""materials/imgs/D106.png"",""materials/imgs/D52.png""]","false","validation","","",""
"","","","","","html-keyboard-response","396","454205","0.0-19.0-2.2-0.5","scnrs4pn5c","","scnrs4pn5c","""2024-11-12T18:42:18.471Z""","null","+","null","","","","","","",""
"","","","","","image-keyboard-response","397","456313","0.0-19.0-2.2-1.5","scnrs4pn5c","","scnrs4pn5c","""2024-11-12T18:42:18.471Z""","2107","materials/imgs/D101.png","arrowright","","[""materials/imgs/D76.png"",""materials/imgs/D47.png""]","false","validation","","",""
"","","","","","html-keyboard-response","398","456814","0.0-19.0-0.3-0.21","scnrs4pn5c","","scnrs4pn5c","""2024-11-12T18:42:18.471Z""","null","+","null","","","","","","",""
"","","","","","image-keyboard-response","399","458721","0.0-19.0-0.3-1.21","scnrs4pn5c","","scnrs4pn5c","""2024-11-12T18:42:18.471Z""","1904","materials/imgs/D101.png","arrowright","","[""materials/imgs/D82.png"",""materials/imgs/D24.png""]","false","random","","",""
"","","","","","html-keyboard-response","400","459223","0.0-19.0-0.3-0.22","scnrs4pn5c","","scnrs4pn5c","""2024-11-12T18:42:18.471Z""","null","+","null","","","","","","",""
"","","","","","image-keyboard-response","401","460728","0.0-19.0-0.3-1.22","scnrs4pn5c","","scnrs4pn5c","""2024-11-12T18:42:18.471Z""","1503","materials/imgs/D92.png","arrowleft","","[""materials/imgs/D49.png"",""materials/imgs/D1.png""]","false","random","","",""
"","","","","","html-keyboard-response","402","461229","0.0-19.0-0.3-0.23","scnrs4pn5c","","scnrs4pn5c","""2024-11-12T18:42:18.471Z""","null","+","null","","","","","","",""
"","","","","","image-keyboard-response","403","461908","0.0-19.0-0.3-1.23","scnrs4pn5c","","scnrs4pn5c","""2024-11-12T18:42:18.471Z""","676","materials/imgs/D77.png","arrowright","","[""materials/imgs/D94.png"",""materials/imgs/D57.png""]","false","random","","",""
"","","","","","html-keyboard-response","404","462409","0.0-19.0-0.3-0.24","scnrs4pn5c","","scnrs4pn5c","""2024-11-12T18:42:18.471Z""","null","+","null","","","","","","",""
"","","","","","image-keyboard-response","405","463647","0.0-19.0-0.3-1.24","scnrs4pn5c","","scnrs4pn5c","""2024-11-12T18:42:18.471Z""","1236","materials/imgs/D34.png","arrowright","","[""materials/imgs/D77.png"",""materials/imgs/D84.png""]","false","random","","",""
"","","","","","html-keyboard-response","406","464148","0.0-19.0-0.3-0.25","scnrs4pn5c","","scnrs4pn5c","""2024-11-12T18:42:18.471Z""","null","+","null","","","","","","",""
"","","","","","image-keyboard-response","407","465423","0.0-19.0-0.3-1.25","scnrs4pn5c","","scnrs4pn5c","""2024-11-12T18:42:18.471Z""","1273","materials/imgs/D6.png","arrowleft","","[""materials/imgs/D9.png"",""materials/imgs/D102.png""]","false","random","","",""
"","","","","","html-keyboard-response","408","465925","0.0-19.0-0.3-0.26","scnrs4pn5c","","scnrs4pn5c","""2024-11-12T18:42:18.471Z""","null","+","null","","","","","","",""
"","","","","","image-keyboard-response","409","466971","0.0-19.0-0.3-1.26","scnrs4pn5c","","scnrs4pn5c","""2024-11-12T18:42:18.471Z""","1043","materials/imgs/D19.png","arrowleft","","[""materials/imgs/D92.png"",""materials/imgs/D11.png""]","false","random","","",""
"","","","","","html-keyboard-response","410","467472","0.0-19.0-0.3-0.27","scnrs4pn5c","","scnrs4pn5c","""2024-11-12T18:42:18.471Z""","null","+","null","","","","","","",""
"","","","","","image-keyboard-response","411","468151","0.0-19.0-0.3-1.27","scnrs4pn5c","","scnrs4pn5c","""2024-11-12T18:42:18.471Z""","677","materials/imgs/D92.png","arrowleft","","[""materials/imgs/D29.png"",""materials/imgs/D22.png""]","false","random","","",""
"","","","","","html-keyboard-response","412","468652","0.0-19.0-1.3-0.3","scnrs4pn5c","","scnrs4pn5c","""2024-11-12T18:42:18.471Z""","null","+","null","","","","","","",""
"","","","","","image-keyboard-response","413","469464","0.0-19.0-1.3-1.3","scnrs4pn5c","","scnrs4pn5c","""2024-11-12T18:42:18.471Z""","809","materials/imgs/D18.png","arrowright","","[""materials/imgs/D8.png"",""materials/imgs/D18.png""]","","check","materials/imgs/D18.png","1","true"
"","","","","","html-keyboard-response","414","469965","0.0-19.0-2.3-0.6","scnrs4pn5c","","scnrs4pn5c","""2024-11-12T18:42:18.471Z""","null","+","null","","","","","","",""
"","","","","","image-keyboard-response","415","470520","0.0-19.0-2.3-1.6","scnrs4pn5c","","scnrs4pn5c","""2024-11-12T18:42:18.471Z""","553","materials/imgs/D24.png","arrowleft","","[""materials/imgs/D36.png"",""materials/imgs/D8.png""]","false","validation","","",""
"","","","","","html-keyboard-response","416","471021","0.0-19.0-2.3-0.7","scnrs4pn5c","","scnrs4pn5c","""2024-11-12T18:42:18.471Z""","null","+","null","","","","","","",""
"","","","","","image-keyboard-response","417","472246","0.0-19.0-2.3-1.7","scnrs4pn5c","","scnrs4pn5c","""2024-11-12T18:42:18.471Z""","1223","materials/imgs/D101.png","arrowleft","","[""materials/imgs/D76.png"",""materials/imgs/D47.png""]","false","validation","","",""
"","","","","","html-keyboard-response","418","472747","0.0-19.0-0.4-0.28","scnrs4pn5c","","scnrs4pn5c","""2024-11-12T18:42:18.471Z""","null","+","null","","","","","","",""
"","","","","","image-keyboard-response","419","473981","0.0-19.0-0.4-1.28","scnrs4pn5c","","scnrs4pn5c","""2024-11-12T18:42:18.471Z""","1231","materials/imgs/D17.png","arrowleft","","[""materials/imgs/D77.png"",""materials/imgs/D14.png""]","false","random","","",""
"","","","","","html-keyboard-response","420","474482","0.0-19.0-0.4-0.29","scnrs4pn5c","","scnrs4pn5c","""2024-11-12T18:42:18.471Z""","null","+","null","","","","","","",""
"","","","","","image-keyboard-response","421","476816","0.0-19.0-0.4-1.29","scnrs4pn5c","","scnrs4pn5c","""2024-11-12T18:42:18.471Z""","2332","materials/imgs/D36.png","arrowright","","[""materials/imgs/D64.png"",""materials/imgs/D65.png""]","false","random","","",""
"","","","","","html-keyboard-response","422","477317","0.0-19.0-0.4-0.30","scnrs4pn5c","","scnrs4pn5c","""2024-11-12T18:42:18.471Z""","null","+","null","","","","","","",""
"","","","","","image-keyboard-response","423","478017","0.0-19.0-0.4-1.30","scnrs4pn5c","","scnrs4pn5c","""2024-11-12T18:42:18.471Z""","698","materials/imgs/D17.png","arrowleft","","[""materials/imgs/D14.png"",""materials/imgs/D87.png""]","false","random","","",""
"","","","","","html-keyboard-response","424","478518","0.0-19.0-0.4-0.31","scnrs4pn5c","","scnrs4pn5c","""2024-11-12T18:42:18.471Z""","null","+","null","","","","","","",""
"","","","","","image-keyboard-response","425","479876","0.0-19.0-0.4-1.31","scnrs4pn5c","","scnrs4pn5c","""2024-11-12T18:42:18.471Z""","1356","materials/imgs/D53.png","arrowright","","[""materials/imgs/D56.png"",""materials/imgs/D102.png""]","false","random","","",""
"","","","","","html-keyboard-response","426","480377","0.0-19.0-0.4-0.32","scnrs4pn5c","","scnrs4pn5c","""2024-11-12T18:42:18.471Z""","null","+","null","","","","","","",""
"","","","","","image-keyboard-response","427","481130","0.0-19.0-0.4-1.32","scnrs4pn5c","","scnrs4pn5c","""2024-11-12T18:42:18.471Z""","751","materials/imgs/D3.png","arrowright","","[""materials/imgs/D77.png"",""materials/imgs/D34.png""]","false","random","","",""
"","","","","","html-keyboard-response","428","481631","0.0-19.0-0.4-0.33","scnrs4pn5c","","scnrs4pn5c","""2024-11-12T18:42:18.471Z""","null","+","null","","","","","","",""
"","","","","","image-keyboard-response","429","483690","0.0-19.0-0.4-1.33","scnrs4pn5c","","scnrs4pn5c","""2024-11-12T18:42:18.471Z""","2057","materials/imgs/D83.png","arrowleft","","[""materials/imgs/D3.png"",""materials/imgs/D25.png""]","false","random","","",""
"","","","","","html-keyboard-response","430","484191","0.0-19.0-0.4-0.34","scnrs4pn5c","","scnrs4pn5c","""2024-11-12T18:42:18.471Z""","null","+","null","","","","","","",""
"","","","","","image-keyboard-response","431","485375","0.0-19.0-0.4-1.34","scnrs4pn5c","","scnrs4pn5c","""2024-11-12T18:42:18.471Z""","1181","materials/imgs/D16.png","arrowleft","","[""materials/imgs/D111.png"",""materials/imgs/D81.png""]","false","random","","",""
"","","","","","html-keyboard-response","432","485877","0.0-19.0-1.4-0.4","scnrs4pn5c","","scnrs4pn5c","""2024-11-12T18:42:18.471Z""","null","+","null","","","","","","",""
"","","","","","image-keyboard-response","433","486419","0.0-19.0-1.4-1.4","scnrs4pn5c","","scnrs4pn5c","""2024-11-12T18:42:18.471Z""","540","materials/imgs/D53.png","arrowright","","[""materials/imgs/D64.png"",""materials/imgs/D53.png""]","","check","materials/imgs/D53.png","1","true"
"","","","","","html-keyboard-response","434","486921","0.0-19.0-2.4-0.8","scnrs4pn5c","","scnrs4pn5c","""2024-11-12T18:42:18.471Z""","null","+","null","","","","","","",""
"","","","","","image-keyboard-response","435","487445","0.0-19.0-2.4-1.8","scnrs4pn5c","","scnrs4pn5c","""2024-11-12T18:42:18.471Z""","522","materials/imgs/D85.png","arrowleft","","[""materials/imgs/D6.png"",""materials/imgs/D111.png""]","false","validation","","",""
"","","","","","html-keyboard-response","436","487947","0.0-19.0-2.4-0.9","scnrs4pn5c","","scnrs4pn5c","""2024-11-12T18:42:18.471Z""","null","+","null","","","","","","",""
"","","","","","image-keyboard-response","437","488760","0.0-19.0-2.4-1.9","scnrs4pn5c","","scnrs4pn5c","""2024-11-12T18:42:18.471Z""","811","materials/imgs/D36.png","arrowright","","[""materials/imgs/D47.png"",""materials/imgs/D49.png""]","false","validation","","",""
