"success","timeout","failed_images","failed_audio","failed_video","trial_type","trial_index","time_elapsed","internal_node_id","subject_id","sona_id","subjectID","dateInfo","rt","stimulus","response","question_order","choices","speedy","sampleAlg","selected_image","selected_index","correct"
"true","false","[]","[]","[]","preload","0","5211","0.0-0.0","ubz2083nkb","","ubz2083nkb","""2024-11-12T18:51:31.053Z""","","","","","","","","","",""
"true","","","","","fullscreen","1","7754","0.0-1.0","ubz2083nkb","","ubz2083nkb","""2024-11-12T18:51:31.053Z""","","","","","","","","","",""
"","","","","","html-keyboard-response","2","7766","0.0-2.0","ubz2083nkb","","ubz2083nkb","""2024-11-12T18:51:31.053Z""","null","","null","","","","","","",""
"","","","","","html-button-response","3","17952","0.0-3.0","ubz2083nkb","","ubz2083nkb","""2024-11-12T18:51:31.053Z""","10184","<div style='text-align:center; font-size:20px; line-height:25px; width: 1200px;'>
                Welcome to our experiment! <br>
                <br>At the bottom of this screen, you will see a button that says 'Begin Experiment.
                <br>Please only click that button when you are ready to complete the 25 minute experiment in one sitting. <br>
                <br> Once you click that button, it will not be possible to restart the experiment. <br><br>","0","","","","","","",""
"true","","","","","fullscreen","4","22266","0.0-4.0","ubz2083nkb","","ubz2083nkb","""2024-11-12T18:51:31.053Z""","","","","","","","","","",""
"","","","","","survey-multi-select","5","27172","0.0-5.0","ubz2083nkb","","ubz2083nkb","""2024-11-12T18:51:31.053Z""","4901","","{""Consent"":[""<strong>I consent</strong>""]}","[0]","","","","","",""
"","","","","","html-button-response","6","28195","0.0-6.0","ubz2083nkb","","ubz2083nkb","""2024-11-12T18:51:31.053Z""","1021","Welcome! <p> This experiment involves two parts: demographic information, followed by the experimental task.<p> It will take about 25 minutes to complete both parts.","0","","","","","","",""
"","","","","","survey-text","7","34398","0.0-7.0","ubz2083nkb","","ubz2083nkb","""2024-11-12T18:51:31.053Z""","6200","","{""Age"":""19"",""Gender"":""Female"",""Race/ethnicity"":""White""}","","","","","","",""
"","","","","","html-button-response","8","47691","0.0-8.0","ubz2083nkb","","ubz2083nkb","""2024-11-12T18:51:31.053Z""","13290","<div style='text-align: center;'>
      <p>In each trial of this task, you will see three texture images: one target item on top, and two choices beneath the target item.</p>
      <p><strong>Please select the item that is most like the target item.</strong></p>
      <p>To select the option on the <strong>LEFT</strong>, press the <strong>LEFT ARROW</strong> key. 
      To select the option on the <strong>RIGHT</strong>, press the <strong>RIGHT ARROW</strong> key.</p>
                  <!-- Target Image at the Top -->
      <div style='margin: 20px;'>
        <img src='materials/imgs/instruction_images/InstructionImg1D78.png' alt='Target Image' style='width:200px; height:auto;' />
        <p><em>Target Image</em></p>
      </div>

      <!-- Two Choice Images Below -->
      <div style='display: flex; justify-content: center;'>
        <div style='margin-right: 50px;'>
          <img src='materials/imgs/instruction_images/InstructionImg2D34.png' alt='Choice Image 1' style='width:150px; height:auto;' />
          <p><em><strong>LEFT ARROW</strong></em></p>
        </div>
        <div style='margin-left: 50px;'>
          <img src='materials/imgs/instruction_images/InstructionImg3D80.png' alt='Choice Image 2' style='width:150px; height:auto;' />
          <p><em><strong>RIGHT ARROW</strong></em></p>
        </div>
      </div>
    </div>

      <p>When you are ready to proceed, please click 'Continue' to begin practice.</p>","0","","","","","","",""
"","","","","","html-keyboard-response","9","50195","0.0-9.0","ubz2083nkb","","ubz2083nkb","""2024-11-12T18:51:31.053Z""","null","+","null","","","","","","",""
"","","","","","html-keyboard-response","10","50698","0.0-10.0-0.0-0.0","ubz2083nkb","","ubz2083nkb","""2024-11-12T18:51:31.053Z""","null","+","null","","","","","","",""
"","","","","","image-keyboard-response","11","53404","0.0-10.0-0.0-1.0","ubz2083nkb","","ubz2083nkb","""2024-11-12T18:51:31.053Z""","2701","materials/imgs/D53.png","arrowleft","","[""materials/imgs/D64.png"",""materials/imgs/D75.png""]","false","random","","",""
"","","","","","html-keyboard-response","12","53907","0.0-10.0-0.0-0.1","ubz2083nkb","","ubz2083nkb","""2024-11-12T18:51:31.053Z""","null","+","null","","","","","","",""
"","","","","","image-keyboard-response","13","55896","0.0-10.0-0.0-1.1","ubz2083nkb","","ubz2083nkb","""2024-11-12T18:51:31.053Z""","1986","materials/imgs/D1.png","arrowright","","[""materials/imgs/D104.png"",""materials/imgs/D20.png""]","false","random","","",""
"","","","","","html-keyboard-response","14","56397","0.0-10.0-0.0-0.2","ubz2083nkb","","ubz2083nkb","""2024-11-12T18:51:31.053Z""","null","+","null","","","","","","",""
"","","","","","image-keyboard-response","15","58917","0.0-10.0-0.0-1.2","ubz2083nkb","","ubz2083nkb","""2024-11-12T18:51:31.053Z""","2517","materials/imgs/D21.png","arrowright","","[""materials/imgs/D106.png"",""materials/imgs/D24.png""]","false","random","","",""
"","","","","","html-keyboard-response","16","59419","0.0-10.0-0.0-0.3","ubz2083nkb","","ubz2083nkb","""2024-11-12T18:51:31.053Z""","null","+","null","","","","","","",""
"","","","","","image-keyboard-response","17","68743","0.0-10.0-0.0-1.3","ubz2083nkb","","ubz2083nkb","""2024-11-12T18:51:31.053Z""","9324","materials/imgs/D24.png","arrowleft","","[""materials/imgs/D47.png"",""materials/imgs/D51.png""]","false","random","","",""
"","","","","","html-keyboard-response","18","69245","0.0-10.0-0.0-0.4","ubz2083nkb","","ubz2083nkb","""2024-11-12T18:51:31.053Z""","null","+","null","","","","","","",""
"","","","","","image-keyboard-response","19","77696","0.0-10.0-0.0-1.4","ubz2083nkb","","ubz2083nkb","""2024-11-12T18:51:31.053Z""","8448","materials/imgs/D64.png","arrowright","","[""materials/imgs/D96.png"",""materials/imgs/D6.png""]","false","random","","",""
"","","","","","html-keyboard-response","20","78198","0.0-10.0-0.0-0.5","ubz2083nkb","","ubz2083nkb","""2024-11-12T18:51:31.053Z""","null","+","null","","","","","","",""
"","","","","","image-keyboard-response","21","80265","0.0-10.0-0.0-1.5","ubz2083nkb","","ubz2083nkb","""2024-11-12T18:51:31.053Z""","2064","materials/imgs/D37.png","arrowleft","","[""materials/imgs/D35.png"",""materials/imgs/D95.png""]","false","random","","",""
"","","","","","html-keyboard-response","22","80766","0.0-10.0-0.0-0.6","ubz2083nkb","","ubz2083nkb","""2024-11-12T18:51:31.053Z""","null","+","null","","","","","","",""
"","","","","","image-keyboard-response","23","81839","0.0-10.0-0.0-1.6","ubz2083nkb","","ubz2083nkb","""2024-11-12T18:51:31.053Z""","1070","materials/imgs/D37.png","arrowleft","","[""materials/imgs/D87.png"",""materials/imgs/D29.png""]","false","random","","",""
"","","","","","html-keyboard-response","24","82341","0.0-10.0-0.0-0.7","ubz2083nkb","","ubz2083nkb","""2024-11-12T18:51:31.053Z""","null","+","null","","","","","","",""
"","","","","","image-keyboard-response","25","83171","0.0-10.0-0.0-1.7","ubz2083nkb","","ubz2083nkb","""2024-11-12T18:51:31.053Z""","827","materials/imgs/D4.png","arrowleft","","[""materials/imgs/D9.png"",""materials/imgs/D19.png""]","false","random","","",""
"","","","","","html-keyboard-response","26","83673","0.0-10.0-0.0-0.8","ubz2083nkb","","ubz2083nkb","""2024-11-12T18:51:31.053Z""","null","+","null","","","","","","",""
"","","","","","image-keyboard-response","27","84855","0.0-10.0-0.0-1.8","ubz2083nkb","","ubz2083nkb","""2024-11-12T18:51:31.053Z""","1179","materials/imgs/D77.png","arrowright","","[""materials/imgs/D29.png"",""materials/imgs/D83.png""]","false","random","","",""
"","","","","","html-keyboard-response","28","85356","0.0-10.0-0.0-0.9","ubz2083nkb","","ubz2083nkb","""2024-11-12T18:51:31.053Z""","null","+","null","","","","","","",""
"","","","","","image-keyboard-response","29","89002","0.0-10.0-0.0-1.9","ubz2083nkb","","ubz2083nkb","""2024-11-12T18:51:31.053Z""","3643","materials/imgs/D8.png","arrowleft","","[""materials/imgs/D17.png"",""materials/imgs/D96.png""]","false","random","","",""
"","","","","","html-button-response","30","90781","0.0-11.0","ubz2083nkb","","ubz2083nkb","""2024-11-12T18:51:31.053Z""","1777","<p>Great job!</p>
      <p>You are now ready to begin the experiment.</p>
      <p>There will be around 200 trials. You will have opportunities to take breaks at three stages of the trials.</p>
      <p>When you are ready to begin please click 'Continue'.</p>","0","","","","","","",""
"","","","","","html-keyboard-response","31","93285","0.0-12.0","ubz2083nkb","","ubz2083nkb","""2024-11-12T18:51:31.053Z""","null","+","null","","","","","","",""
"","","","","","html-keyboard-response","32","93787","0.0-13.0-0.0-0.0","ubz2083nkb","","ubz2083nkb","""2024-11-12T18:51:31.053Z""","null","+","null","","","","","","",""
"","","","","","image-keyboard-response","33","93923","0.0-13.0-0.0-1.0","ubz2083nkb","","ubz2083nkb","""2024-11-12T18:51:31.053Z""","133","materials/imgs/D21.png","arrowleft","","[""materials/imgs/D17.png"",""materials/imgs/D48.png""]","true","random","","",""
"","","","","","html-keyboard-response","34","97152","0.0-13.0-0.0-2.0-0.0","ubz2083nkb","","ubz2083nkb","""2024-11-12T18:51:31.053Z""","3228","<p><strong>You're going too fast.</strong><p>Please slow down and assess each triplet.<p>Press 'y' to continue.</p></p>","y","","","","","","",""
"","","","","","html-keyboard-response","35","97653","0.0-13.0-0.0-0.1","ubz2083nkb","","ubz2083nkb","""2024-11-12T18:51:31.053Z""","null","+","null","","","","","","",""
"","","","","","image-keyboard-response","36","98830","0.0-13.0-0.0-1.1","ubz2083nkb","","ubz2083nkb","""2024-11-12T18:51:31.053Z""","1174","materials/imgs/D22.png","arrowright","","[""materials/imgs/D96.png"",""materials/imgs/D66.png""]","false","random","","",""
"","","","","","html-keyboard-response","37","99332","0.0-13.0-0.0-0.2","ubz2083nkb","","ubz2083nkb","""2024-11-12T18:51:31.053Z""","null","+","null","","","","","","",""
"","","","","","image-keyboard-response","38","100417","0.0-13.0-0.0-1.2","ubz2083nkb","","ubz2083nkb","""2024-11-12T18:51:31.053Z""","1083","materials/imgs/D21.png","arrowright","","[""materials/imgs/D35.png"",""materials/imgs/D106.png""]","false","random","","",""
"","","","","","html-keyboard-response","39","100918","0.0-13.0-0.0-0.3","ubz2083nkb","","ubz2083nkb","""2024-11-12T18:51:31.053Z""","null","+","null","","","","","","",""
"","","","","","image-keyboard-response","40","102350","0.0-13.0-0.0-1.3","ubz2083nkb","","ubz2083nkb","""2024-11-12T18:51:31.053Z""","1429","materials/imgs/D104.png","arrowleft","","[""materials/imgs/D80.png"",""materials/imgs/D57.png""]","false","random","","",""
"","","","","","html-keyboard-response","41","102852","0.0-13.0-0.0-0.4","ubz2083nkb","","ubz2083nkb","""2024-11-12T18:51:31.053Z""","null","+","null","","","","","","",""
"","","","","","image-keyboard-response","42","104911","0.0-13.0-0.0-1.4","ubz2083nkb","","ubz2083nkb","""2024-11-12T18:51:31.053Z""","2056","materials/imgs/D21.png","arrowright","","[""materials/imgs/D57.png"",""materials/imgs/D74.png""]","false","random","","",""
"","","","","","html-keyboard-response","43","105412","0.0-13.0-0.0-0.5","ubz2083nkb","","ubz2083nkb","""2024-11-12T18:51:31.053Z""","null","+","null","","","","","","",""
"","","","","","image-keyboard-response","44","106600","0.0-13.0-0.0-1.5","ubz2083nkb","","ubz2083nkb","""2024-11-12T18:51:31.053Z""","1186","materials/imgs/D34.png","arrowright","","[""materials/imgs/D68.png"",""materials/imgs/D53.png""]","false","random","","",""
"","","","","","html-keyboard-response","45","107101","0.0-13.0-0.0-0.6","ubz2083nkb","","ubz2083nkb","""2024-11-12T18:51:31.053Z""","null","+","null","","","","","","",""
"","","","","","image-keyboard-response","46","108040","0.0-13.0-0.0-1.6","ubz2083nkb","","ubz2083nkb","""2024-11-12T18:51:31.053Z""","936","materials/imgs/D22.png","arrowleft","","[""materials/imgs/D34.png"",""materials/imgs/D8.png""]","false","random","","",""
"","","","","","html-keyboard-response","47","108541","0.0-13.0-1.0-0.0","ubz2083nkb","","ubz2083nkb","""2024-11-12T18:51:31.053Z""","null","+","null","","","","","","",""
"","","","","","image-keyboard-response","48","109148","0.0-13.0-1.0-1.0","ubz2083nkb","","ubz2083nkb","""2024-11-12T18:51:31.053Z""","604","materials/imgs/D64.png","arrowleft","","[""materials/imgs/D64.png"",""materials/imgs/D53.png""]","","check","materials/imgs/D64.png","0","true"
"","","","","","html-keyboard-response","49","109650","0.0-13.0-2.0-0.0","ubz2083nkb","","ubz2083nkb","""2024-11-12T18:51:31.053Z""","null","+","null","","","","","","",""
"","","","","","image-keyboard-response","50","110788","0.0-13.0-2.0-1.0","ubz2083nkb","","ubz2083nkb","""2024-11-12T18:51:31.053Z""","1136","materials/imgs/D65.png","arrowright","","[""materials/imgs/D4.png"",""materials/imgs/D16.png""]","false","validation","","",""
"","","","","","html-keyboard-response","51","111290","0.0-13.0-2.0-0.1","ubz2083nkb","","ubz2083nkb","""2024-11-12T18:51:31.053Z""","null","+","null","","","","","","",""
"","","","","","image-keyboard-response","52","112309","0.0-13.0-2.0-1.1","ubz2083nkb","","ubz2083nkb","""2024-11-12T18:51:31.053Z""","1017","materials/imgs/D18.png","arrowright","","[""materials/imgs/D32.png"",""materials/imgs/D57.png""]","false","validation","","",""
"","","","","","html-keyboard-response","53","112811","0.0-13.0-0.1-0.7","ubz2083nkb","","ubz2083nkb","""2024-11-12T18:51:31.053Z""","null","+","null","","","","","","",""
"","","","","","image-keyboard-response","54","115234","0.0-13.0-0.1-1.7","ubz2083nkb","","ubz2083nkb","""2024-11-12T18:51:31.053Z""","2421","materials/imgs/D8.png","arrowright","","[""materials/imgs/D25.png"",""materials/imgs/D75.png""]","false","random","","",""
"","","","","","html-keyboard-response","55","115736","0.0-13.0-0.1-0.8","ubz2083nkb","","ubz2083nkb","""2024-11-12T18:51:31.053Z""","null","+","null","","","","","","",""
"","","","","","image-keyboard-response","56","117074","0.0-13.0-0.1-1.8","ubz2083nkb","","ubz2083nkb","""2024-11-12T18:51:31.053Z""","1336","materials/imgs/D104.png","arrowright","","[""materials/imgs/D9.png"",""materials/imgs/D52.png""]","false","random","","",""
"","","","","","html-keyboard-response","57","117576","0.0-13.0-0.1-0.9","ubz2083nkb","","ubz2083nkb","""2024-11-12T18:51:31.053Z""","null","+","null","","","","","","",""
"","","","","","image-keyboard-response","58","121100","0.0-13.0-0.1-1.9","ubz2083nkb","","ubz2083nkb","""2024-11-12T18:51:31.053Z""","3521","materials/imgs/D51.png","arrowleft","","[""materials/imgs/D102.png"",""materials/imgs/D66.png""]","false","random","","",""
"","","","","","html-keyboard-response","59","121601","0.0-13.0-0.1-0.10","ubz2083nkb","","ubz2083nkb","""2024-11-12T18:51:31.053Z""","null","+","null","","","","","","",""
"","","","","","image-keyboard-response","60","122600","0.0-13.0-0.1-1.10","ubz2083nkb","","ubz2083nkb","""2024-11-12T18:51:31.053Z""","996","materials/imgs/D85.png","arrowright","","[""materials/imgs/D24.png"",""materials/imgs/D78.png""]","false","random","","",""
"","","","","","html-keyboard-response","61","123101","0.0-13.0-0.1-0.11","ubz2083nkb","","ubz2083nkb","""2024-11-12T18:51:31.053Z""","null","+","null","","","","","","",""
"","","","","","image-keyboard-response","62","124047","0.0-13.0-0.1-1.11","ubz2083nkb","","ubz2083nkb","""2024-11-12T18:51:31.053Z""","945","materials/imgs/D8.png","arrowright","","[""materials/imgs/D4.png"",""materials/imgs/D20.png""]","false","random","","",""
"","","","","","html-keyboard-response","63","124549","0.0-13.0-0.1-0.12","ubz2083nkb","","ubz2083nkb","""2024-11-12T18:51:31.053Z""","null","+","null","","","","","","",""
"","","","","","image-keyboard-response","64","125397","0.0-13.0-0.1-1.12","ubz2083nkb","","ubz2083nkb","""2024-11-12T18:51:31.053Z""","846","materials/imgs/D78.png","arrowleft","","[""materials/imgs/D4.png"",""materials/imgs/D92.png""]","false","random","","",""
"","","","","","html-keyboard-response","65","125899","0.0-13.0-0.1-0.13","ubz2083nkb","","ubz2083nkb","""2024-11-12T18:51:31.053Z""","null","+","null","","","","","","",""
"","","","","","image-keyboard-response","66","126892","0.0-13.0-0.1-1.13","ubz2083nkb","","ubz2083nkb","""2024-11-12T18:51:31.053Z""","990","materials/imgs/D95.png","arrowleft","","[""materials/imgs/D101.png"",""materials/imgs/D106.png""]","false","random","","",""
"","","","","","html-keyboard-response","67","127393","0.0-13.0-1.1-0.1","ubz2083nkb","","ubz2083nkb","""2024-11-12T18:51:31.053Z""","null","+","null","","","","","","",""
"","","","","","image-keyboard-response","68","128372","0.0-13.0-1.1-1.1","ubz2083nkb","","ubz2083nkb","""2024-11-12T18:51:31.053Z""","977","materials/imgs/D46.png","arrowleft","","[""materials/imgs/D46.png"",""materials/imgs/D26.png""]","","check","materials/imgs/D46.png","0","true"
"","","","","","html-keyboard-response","69","128873","0.0-13.0-2.1-0.2","ubz2083nkb","","ubz2083nkb","""2024-11-12T18:51:31.053Z""","null","+","null","","","","","","",""
"","","","","","image-keyboard-response","70","130411","0.0-13.0-2.1-1.2","ubz2083nkb","","ubz2083nkb","""2024-11-12T18:51:31.053Z""","1536","materials/imgs/D37.png","arrowleft","","[""materials/imgs/D84.png"",""materials/imgs/D111.png""]","false","validation","","",""
"","","","","","html-keyboard-response","71","130912","0.0-13.0-2.1-0.3","ubz2083nkb","","ubz2083nkb","""2024-11-12T18:51:31.053Z""","null","+","null","","","","","","",""
"","","","","","image-keyboard-response","72","131986","0.0-13.0-2.1-1.3","ubz2083nkb","","ubz2083nkb","""2024-11-12T18:51:31.053Z""","1071","materials/imgs/D64.png","arrowleft","","[""materials/imgs/D6.png"",""materials/imgs/D81.png""]","false","validation","","",""
"","","","","","html-keyboard-response","73","132488","0.0-13.0-0.2-0.14","ubz2083nkb","","ubz2083nkb","""2024-11-12T18:51:31.053Z""","null","+","null","","","","","","",""
"","","","","","image-keyboard-response","74","134056","0.0-13.0-0.2-1.14","ubz2083nkb","","ubz2083nkb","""2024-11-12T18:51:31.053Z""","1565","materials/imgs/D87.png","arrowleft","","[""materials/imgs/D75.png"",""materials/imgs/D47.png""]","false","random","","",""
"","","","","","html-keyboard-response","75","134557","0.0-13.0-0.2-0.15","ubz2083nkb","","ubz2083nkb","""2024-11-12T18:51:31.053Z""","null","+","null","","","","","","",""
"","","","","","image-keyboard-response","76","135235","0.0-13.0-0.2-1.15","ubz2083nkb","","ubz2083nkb","""2024-11-12T18:51:31.053Z""","676","materials/imgs/D3.png","arrowright","","[""materials/imgs/D66.png"",""materials/imgs/D36.png""]","false","random","","",""
"","","","","","html-keyboard-response","77","135737","0.0-13.0-0.2-0.16","ubz2083nkb","","ubz2083nkb","""2024-11-12T18:51:31.053Z""","null","+","null","","","","","","",""
"","","","","","image-keyboard-response","78","136649","0.0-13.0-0.2-1.16","ubz2083nkb","","ubz2083nkb","""2024-11-12T18:51:31.053Z""","910","materials/imgs/D47.png","arrowleft","","[""materials/imgs/D84.png"",""materials/imgs/D9.png""]","false","random","","",""
"","","","","","html-keyboard-response","79","137150","0.0-13.0-0.2-0.17","ubz2083nkb","","ubz2083nkb","""2024-11-12T18:51:31.053Z""","null","+","null","","","","","","",""
"","","","","","image-keyboard-response","80","138125","0.0-13.0-0.2-1.17","ubz2083nkb","","ubz2083nkb","""2024-11-12T18:51:31.053Z""","972","materials/imgs/D11.png","arrowright","","[""materials/imgs/D35.png"",""materials/imgs/D53.png""]","false","random","","",""
"","","","","","html-keyboard-response","81","138626","0.0-13.0-0.2-0.18","ubz2083nkb","","ubz2083nkb","""2024-11-12T18:51:31.053Z""","null","+","null","","","","","","",""
"","","","","","image-keyboard-response","82","139495","0.0-13.0-0.2-1.18","ubz2083nkb","","ubz2083nkb","""2024-11-12T18:51:31.053Z""","866","materials/imgs/D34.png","arrowleft","","[""materials/imgs/D3.png"",""materials/imgs/D52.png""]","false","random","","",""
"","","","","","html-keyboard-response","83","139997","0.0-13.0-0.2-0.19","ubz2083nkb","","ubz2083nkb","""2024-11-12T18:51:31.053Z""","null","+","null","","","","","","",""
"","","","","","image-keyboard-response","84","141545","0.0-13.0-0.2-1.19","ubz2083nkb","","ubz2083nkb","""2024-11-12T18:51:31.053Z""","1545","materials/imgs/D81.png","arrowright","","[""materials/imgs/D17.png"",""materials/imgs/D83.png""]","false","random","","",""
"","","","","","html-keyboard-response","85","142047","0.0-13.0-0.2-0.20","ubz2083nkb","","ubz2083nkb","""2024-11-12T18:51:31.053Z""","null","+","null","","","","","","",""
"","","","","","image-keyboard-response","86","142617","0.0-13.0-0.2-1.20","ubz2083nkb","","ubz2083nkb","""2024-11-12T18:51:31.053Z""","568","materials/imgs/D16.png","arrowright","","[""materials/imgs/D111.png"",""materials/imgs/D106.png""]","false","random","","",""
"","","","","","html-keyboard-response","87","143119","0.0-13.0-1.2-0.2","ubz2083nkb","","ubz2083nkb","""2024-11-12T18:51:31.053Z""","null","+","null","","","","","","",""
"","","","","","image-keyboard-response","88","143629","0.0-13.0-1.2-1.2","ubz2083nkb","","ubz2083nkb","""2024-11-12T18:51:31.053Z""","508","materials/imgs/D26.png","arrowleft","","[""materials/imgs/D26.png"",""materials/imgs/D46.png""]","","check","materials/imgs/D26.png","0","true"
"","","","","","html-keyboard-response","89","144131","0.0-13.0-2.2-0.4","ubz2083nkb","","ubz2083nkb","""2024-11-12T18:51:31.053Z""","null","+","null","","","","","","",""
"","","","","","image-keyboard-response","90","144894","0.0-13.0-2.2-1.4","ubz2083nkb","","ubz2083nkb","""2024-11-12T18:51:31.053Z""","762","materials/imgs/D101.png","arrowright","","[""materials/imgs/D76.png"",""materials/imgs/D47.png""]","false","validation","","",""
"","","","","","html-keyboard-response","91","145396","0.0-13.0-2.2-0.5","ubz2083nkb","","ubz2083nkb","""2024-11-12T18:51:31.053Z""","null","+","null","","","","","","",""
"","","","","","image-keyboard-response","92","146131","0.0-13.0-2.2-1.5","ubz2083nkb","","ubz2083nkb","""2024-11-12T18:51:31.053Z""","732","materials/imgs/D6.png","arrowright","","[""materials/imgs/D26.png"",""materials/imgs/D76.png""]","false","validation","","",""
"","","","","","html-keyboard-response","93","146632","0.0-13.0-0.3-0.21","ubz2083nkb","","ubz2083nkb","""2024-11-12T18:51:31.053Z""","null","+","null","","","","","","",""
"","","","","","image-keyboard-response","94","147448","0.0-13.0-0.3-1.21","ubz2083nkb","","ubz2083nkb","""2024-11-12T18:51:31.053Z""","813","materials/imgs/D68.png","arrowright","","[""materials/imgs/D103.png"",""materials/imgs/D8.png""]","false","random","","",""
"","","","","","html-keyboard-response","95","147950","0.0-13.0-0.3-0.22","ubz2083nkb","","ubz2083nkb","""2024-11-12T18:51:31.053Z""","null","+","null","","","","","","",""
"","","","","","image-keyboard-response","96","148916","0.0-13.0-0.3-1.22","ubz2083nkb","","ubz2083nkb","""2024-11-12T18:51:31.053Z""","963","materials/imgs/D104.png","arrowright","","[""materials/imgs/D106.png"",""materials/imgs/D76.png""]","false","random","","",""
"","","","","","html-keyboard-response","97","149418","0.0-13.0-0.3-0.23","ubz2083nkb","","ubz2083nkb","""2024-11-12T18:51:31.053Z""","null","+","null","","","","","","",""
"","","","","","image-keyboard-response","98","153586","0.0-13.0-0.3-1.23","ubz2083nkb","","ubz2083nkb","""2024-11-12T18:51:31.053Z""","4165","materials/imgs/D24.png","arrowright","","[""materials/imgs/D74.png"",""materials/imgs/D18.png""]","false","random","","",""
"","","","","","html-keyboard-response","99","154087","0.0-13.0-0.3-0.24","ubz2083nkb","","ubz2083nkb","""2024-11-12T18:51:31.053Z""","null","+","null","","","","","","",""
"","","","","","image-keyboard-response","100","155701","0.0-13.0-0.3-1.24","ubz2083nkb","","ubz2083nkb","""2024-11-12T18:51:31.053Z""","1611","materials/imgs/D51.png","arrowleft","","[""materials/imgs/D4.png"",""materials/imgs/D95.png""]","false","random","","",""
"","","","","","html-keyboard-response","101","156202","0.0-13.0-0.3-0.25","ubz2083nkb","","ubz2083nkb","""2024-11-12T18:51:31.053Z""","null","+","null","","","","","","",""
"","","","","","image-keyboard-response","102","158062","0.0-13.0-0.3-1.25","ubz2083nkb","","ubz2083nkb","""2024-11-12T18:51:31.053Z""","1857","materials/imgs/D1.png","arrowleft","","[""materials/imgs/D46.png"",""materials/imgs/D68.png""]","false","random","","",""
"","","","","","html-keyboard-response","103","158564","0.0-13.0-0.3-0.26","ubz2083nkb","","ubz2083nkb","""2024-11-12T18:51:31.053Z""","null","+","null","","","","","","",""
"","","","","","image-keyboard-response","104","167116","0.0-13.0-0.3-1.26","ubz2083nkb","","ubz2083nkb","""2024-11-12T18:51:31.053Z""","8550","materials/imgs/D78.png","arrowright","","[""materials/imgs/D74.png"",""materials/imgs/D104.png""]","false","random","","",""
"","","","","","html-keyboard-response","105","167618","0.0-13.0-0.3-0.27","ubz2083nkb","","ubz2083nkb","""2024-11-12T18:51:31.053Z""","null","+","null","","","","","","",""
"","","","","","image-keyboard-response","106","168294","0.0-13.0-0.3-1.27","ubz2083nkb","","ubz2083nkb","""2024-11-12T18:51:31.053Z""","674","materials/imgs/D74.png","arrowright","","[""materials/imgs/D102.png"",""materials/imgs/D46.png""]","false","random","","",""
"","","","","","html-keyboard-response","107","168796","0.0-13.0-1.3-0.3","ubz2083nkb","","ubz2083nkb","""2024-11-12T18:51:31.053Z""","null","+","null","","","","","","",""
"","","","","","image-keyboard-response","108","169382","0.0-13.0-1.3-1.3","ubz2083nkb","","ubz2083nkb","""2024-11-12T18:51:31.053Z""","583","materials/imgs/D101.png","arrowright","","[""materials/imgs/D106.png"",""materials/imgs/D101.png""]","","check","materials/imgs/D101.png","1","true"
"","","","","","html-keyboard-response","109","169884","0.0-13.0-2.3-0.6","ubz2083nkb","","ubz2083nkb","""2024-11-12T18:51:31.053Z""","null","+","null","","","","","","",""
"","","","","","image-keyboard-response","110","170599","0.0-13.0-2.3-1.6","ubz2083nkb","","ubz2083nkb","""2024-11-12T18:51:31.053Z""","714","materials/imgs/D84.png","arrowleft","","[""materials/imgs/D106.png"",""materials/imgs/D37.png""]","false","validation","","",""
"","","","","","html-keyboard-response","111","171101","0.0-13.0-2.3-0.7","ubz2083nkb","","ubz2083nkb","""2024-11-12T18:51:31.053Z""","null","+","null","","","","","","",""
"","","","","","image-keyboard-response","112","172565","0.0-13.0-2.3-1.7","ubz2083nkb","","ubz2083nkb","""2024-11-12T18:51:31.053Z""","1461","materials/imgs/D11.png","arrowleft","","[""materials/imgs/D83.png"",""materials/imgs/D48.png""]","false","validation","","",""
"","","","","","html-keyboard-response","113","173066","0.0-13.0-0.4-0.28","ubz2083nkb","","ubz2083nkb","""2024-11-12T18:51:31.053Z""","null","+","null","","","","","","",""
"","","","","","image-keyboard-response","114","173808","0.0-13.0-0.4-1.28","ubz2083nkb","","ubz2083nkb","""2024-11-12T18:51:31.053Z""","739","materials/imgs/D53.png","arrowright","","[""materials/imgs/D9.png"",""materials/imgs/D47.png""]","false","random","","",""
"","","","","","html-keyboard-response","115","174309","0.0-13.0-0.4-0.29","ubz2083nkb","","ubz2083nkb","""2024-11-12T18:51:31.053Z""","null","+","null","","","","","","",""
"","","","","","image-keyboard-response","116","176267","0.0-13.0-0.4-1.29","ubz2083nkb","","ubz2083nkb","""2024-11-12T18:51:31.053Z""","1954","materials/imgs/D21.png","arrowleft","","[""materials/imgs/D74.png"",""materials/imgs/D48.png""]","false","random","","",""
"","","","","","html-keyboard-response","117","176768","0.0-13.0-0.4-0.30","ubz2083nkb","","ubz2083nkb","""2024-11-12T18:51:31.053Z""","null","+","null","","","","","","",""
"","","","","","image-keyboard-response","118","177731","0.0-13.0-0.4-1.30","ubz2083nkb","","ubz2083nkb","""2024-11-12T18:51:31.053Z""","960","materials/imgs/D65.png","arrowleft","","[""materials/imgs/D102.png"",""materials/imgs/D79.png""]","false","random","","",""
"","","","","","html-keyboard-response","119","178232","0.0-13.0-0.4-0.31","ubz2083nkb","","ubz2083nkb","""2024-11-12T18:51:31.053Z""","null","+","null","","","","","","",""
"","","","","","image-keyboard-response","120","178934","0.0-13.0-0.4-1.31","ubz2083nkb","","ubz2083nkb","""2024-11-12T18:51:31.053Z""","699","materials/imgs/D22.png","arrowleft","","[""materials/imgs/D17.png"",""materials/imgs/D105.png""]","false","random","","",""
"","","","","","html-keyboard-response","121","179435","0.0-13.0-0.4-0.32","ubz2083nkb","","ubz2083nkb","""2024-11-12T18:51:31.053Z""","null","+","null","","","","","","",""
"","","","","","image-keyboard-response","122","180140","0.0-13.0-0.4-1.32","ubz2083nkb","","ubz2083nkb","""2024-11-12T18:51:31.053Z""","703","materials/imgs/D79.png","arrowright","","[""materials/imgs/D77.png"",""materials/imgs/D78.png""]","false","random","","",""
"","","","","","html-keyboard-response","123","180641","0.0-13.0-0.4-0.33","ubz2083nkb","","ubz2083nkb","""2024-11-12T18:51:31.053Z""","null","+","null","","","","","","",""
"","","","","","image-keyboard-response","124","181335","0.0-13.0-0.4-1.33","ubz2083nkb","","ubz2083nkb","""2024-11-12T18:51:31.053Z""","693","materials/imgs/D85.png","arrowright","","[""materials/imgs/D4.png"",""materials/imgs/D46.png""]","false","random","","",""
"","","","","","html-keyboard-response","125","181837","0.0-13.0-0.4-0.34","ubz2083nkb","","ubz2083nkb","""2024-11-12T18:51:31.053Z""","null","+","null","","","","","","",""
"","","","","","image-keyboard-response","126","182498","0.0-13.0-0.4-1.34","ubz2083nkb","","ubz2083nkb","""2024-11-12T18:51:31.053Z""","659","materials/imgs/D78.png","arrowleft","","[""materials/imgs/D111.png"",""materials/imgs/D49.png""]","false","random","","",""
"","","","","","html-keyboard-response","127","182999","0.0-13.0-1.4-0.4","ubz2083nkb","","ubz2083nkb","""2024-11-12T18:51:31.053Z""","null","+","null","","","","","","",""
"","","","","","image-keyboard-response","128","183462","0.0-13.0-1.4-1.4","ubz2083nkb","","ubz2083nkb","""2024-11-12T18:51:31.053Z""","462","materials/imgs/D18.png","arrowright","","[""materials/imgs/D8.png"",""materials/imgs/D18.png""]","","check","materials/imgs/D18.png","1","true"
"","","","","","html-keyboard-response","129","183964","0.0-13.0-2.4-0.8","ubz2083nkb","","ubz2083nkb","""2024-11-12T18:51:31.053Z""","null","+","null","","","","","","",""
"","","","","","image-keyboard-response","130","184850","0.0-13.0-2.4-1.8","ubz2083nkb","","ubz2083nkb","""2024-11-12T18:51:31.053Z""","885","materials/imgs/D101.png","arrowright","","[""materials/imgs/D76.png"",""materials/imgs/D47.png""]","false","validation","","",""
"","","","","","html-keyboard-response","131","185351","0.0-13.0-2.4-0.9","ubz2083nkb","","ubz2083nkb","""2024-11-12T18:51:31.053Z""","null","+","null","","","","","","",""
"","","","","","image-keyboard-response","132","188475","0.0-13.0-2.4-1.9","ubz2083nkb","","ubz2083nkb","""2024-11-12T18:51:31.053Z""","3122","materials/imgs/D46.png","arrowleft","","[""materials/imgs/D92.png"",""materials/imgs/D77.png""]","false","validation","","",""
"","","","","","html-button-response","133","190404","0.0-14.0","ubz2083nkb","","ubz2083nkb","""2024-11-12T18:51:31.053Z""","1928","You have completed 25% of the trials. Please click 'Continue' when you are ready proceed.","0","","","","","","",""
"","","","","","html-keyboard-response","134","190905","0.0-15.0-0.0-0.0","ubz2083nkb","","ubz2083nkb","""2024-11-12T18:51:31.053Z""","null","+","null","","","","","","",""
"","","","","","image-keyboard-response","135","191699","0.0-15.0-0.0-1.0","ubz2083nkb","","ubz2083nkb","""2024-11-12T18:51:31.053Z""","793","materials/imgs/D37.png","arrowright","","[""materials/imgs/D48.png"",""materials/imgs/D105.png""]","false","random","","",""
"","","","","","html-keyboard-response","136","192200","0.0-15.0-0.0-0.1","ubz2083nkb","","ubz2083nkb","""2024-11-12T18:51:31.053Z""","null","+","null","","","","","","",""
"","","","","","image-keyboard-response","137","192839","0.0-15.0-0.0-1.1","ubz2083nkb","","ubz2083nkb","""2024-11-12T18:51:31.053Z""","637","materials/imgs/D52.png","arrowright","","[""materials/imgs/D8.png"",""materials/imgs/D20.png""]","false","random","","",""
"","","","","","html-keyboard-response","138","193341","0.0-15.0-0.0-0.2","ubz2083nkb","","ubz2083nkb","""2024-11-12T18:51:31.053Z""","null","+","null","","","","","","",""
"","","","","","image-keyboard-response","139","193935","0.0-15.0-0.0-1.2","ubz2083nkb","","ubz2083nkb","""2024-11-12T18:51:31.053Z""","591","materials/imgs/D29.png","arrowleft","","[""materials/imgs/D84.png"",""materials/imgs/D103.png""]","false","random","","",""
"","","","","","html-keyboard-response","140","194437","0.0-15.0-0.0-0.3","ubz2083nkb","","ubz2083nkb","""2024-11-12T18:51:31.053Z""","null","+","null","","","","","","",""
"","","","","","image-keyboard-response","141","195322","0.0-15.0-0.0-1.3","ubz2083nkb","","ubz2083nkb","""2024-11-12T18:51:31.053Z""","883","materials/imgs/D96.png","arrowright","","[""materials/imgs/D66.png"",""materials/imgs/D22.png""]","false","random","","",""
"","","","","","html-keyboard-response","142","195823","0.0-15.0-0.0-0.4","ubz2083nkb","","ubz2083nkb","""2024-11-12T18:51:31.053Z""","null","+","null","","","","","","",""
"","","","","","image-keyboard-response","143","196577","0.0-15.0-0.0-1.4","ubz2083nkb","","ubz2083nkb","""2024-11-12T18:51:31.053Z""","751","materials/imgs/D105.png","arrowleft","","[""materials/imgs/D18.png"",""materials/imgs/D14.png""]","false","random","","",""
"","","","","","html-keyboard-response","144","197079","0.0-15.0-0.0-0.5","ubz2083nkb","","ubz2083nkb","""2024-11-12T18:51:31.053Z""","null","+","null","","","","","","",""
"","","","","","image-keyboard-response","145","197500","0.0-15.0-0.0-1.5","ubz2083nkb","","ubz2083nkb","""2024-11-12T18:51:31.053Z""","419","materials/imgs/D56.png","arrowleft","","[""materials/imgs/D47.png"",""materials/imgs/D6.png""]","true","random","","",""
"","","","","","html-keyboard-response","146","200215","0.0-15.0-0.0-2.5-0.5","ubz2083nkb","","ubz2083nkb","""2024-11-12T18:51:31.053Z""","2713","<p><strong>You're going too fast.</strong><p>Please slow down and assess each triplet.<p>Press 'y' to continue.</p></p>","y","","","","","","",""
"","","","","","html-keyboard-response","147","200717","0.0-15.0-0.0-0.6","ubz2083nkb","","ubz2083nkb","""2024-11-12T18:51:31.053Z""","null","+","null","","","","","","",""
"","","","","","image-keyboard-response","148","201378","0.0-15.0-0.0-1.6","ubz2083nkb","","ubz2083nkb","""2024-11-12T18:51:31.053Z""","659","materials/imgs/D24.png","arrowleft","","[""materials/imgs/D103.png"",""materials/imgs/D95.png""]","false","random","","",""
"","","","","","html-keyboard-response","149","201879","0.0-15.0-1.0-0.0","ubz2083nkb","","ubz2083nkb","""2024-11-12T18:51:31.053Z""","null","+","null","","","","","","",""
"","","","","","image-keyboard-response","150","202571","0.0-15.0-1.0-1.0","ubz2083nkb","","ubz2083nkb","""2024-11-12T18:51:31.053Z""","690","materials/imgs/D64.png","arrowleft","","[""materials/imgs/D64.png"",""materials/imgs/D53.png""]","","check","materials/imgs/D64.png","0","true"
"","","","","","html-keyboard-response","151","203073","0.0-15.0-2.0-0.0","ubz2083nkb","","ubz2083nkb","""2024-11-12T18:51:31.053Z""","null","+","null","","","","","","",""
"","","","","","image-keyboard-response","152","203696","0.0-15.0-2.0-1.0","ubz2083nkb","","ubz2083nkb","""2024-11-12T18:51:31.053Z""","621","materials/imgs/D102.png","arrowright","","[""materials/imgs/D32.png"",""materials/imgs/D111.png""]","false","validation","","",""
"","","","","","html-keyboard-response","153","204197","0.0-15.0-2.0-0.1","ubz2083nkb","","ubz2083nkb","""2024-11-12T18:51:31.053Z""","null","+","null","","","","","","",""
"","","","","","image-keyboard-response","154","204853","0.0-15.0-2.0-1.1","ubz2083nkb","","ubz2083nkb","""2024-11-12T18:51:31.053Z""","654","materials/imgs/D95.png","arrowleft","","[""materials/imgs/D36.png"",""materials/imgs/D4.png""]","false","validation","","",""
"","","","","","html-keyboard-response","155","205355","0.0-15.0-0.1-0.7","ubz2083nkb","","ubz2083nkb","""2024-11-12T18:51:31.053Z""","null","+","null","","","","","","",""
"","","","","","image-keyboard-response","156","205987","0.0-15.0-0.1-1.7","ubz2083nkb","","ubz2083nkb","""2024-11-12T18:51:31.053Z""","630","materials/imgs/D101.png","arrowleft","","[""materials/imgs/D20.png"",""materials/imgs/D51.png""]","false","random","","",""
"","","","","","html-keyboard-response","157","206489","0.0-15.0-0.1-0.8","ubz2083nkb","","ubz2083nkb","""2024-11-12T18:51:31.053Z""","null","+","null","","","","","","",""
"","","","","","image-keyboard-response","158","207155","0.0-15.0-0.1-1.8","ubz2083nkb","","ubz2083nkb","""2024-11-12T18:51:31.053Z""","663","materials/imgs/D47.png","arrowright","","[""materials/imgs/D106.png"",""materials/imgs/D14.png""]","false","random","","",""
"","","","","","html-keyboard-response","159","207656","0.0-15.0-0.1-0.9","ubz2083nkb","","ubz2083nkb","""2024-11-12T18:51:31.053Z""","null","+","null","","","","","","",""
"","","","","","image-keyboard-response","160","208552","0.0-15.0-0.1-1.9","ubz2083nkb","","ubz2083nkb","""2024-11-12T18:51:31.053Z""","893","materials/imgs/D80.png","arrowleft","","[""materials/imgs/D53.png"",""materials/imgs/D18.png""]","false","random","","",""
"","","","","","html-keyboard-response","161","209053","0.0-15.0-0.1-0.10","ubz2083nkb","","ubz2083nkb","""2024-11-12T18:51:31.053Z""","null","+","null","","","","","","",""
"","","","","","image-keyboard-response","162","209704","0.0-15.0-0.1-1.10","ubz2083nkb","","ubz2083nkb","""2024-11-12T18:51:31.053Z""","648","materials/imgs/D87.png","arrowleft","","[""materials/imgs/D66.png"",""materials/imgs/D3.png""]","false","random","","",""
"","","","","","html-keyboard-response","163","210205","0.0-15.0-0.1-0.11","ubz2083nkb","","ubz2083nkb","""2024-11-12T18:51:31.053Z""","null","+","null","","","","","","",""
"","","","","","image-keyboard-response","164","210917","0.0-15.0-0.1-1.11","ubz2083nkb","","ubz2083nkb","""2024-11-12T18:51:31.053Z""","710","materials/imgs/D55.png","arrowright","","[""materials/imgs/D29.png"",""materials/imgs/D101.png""]","false","random","","",""
"","","","","","html-keyboard-response","165","211418","0.0-15.0-0.1-0.12","ubz2083nkb","","ubz2083nkb","""2024-11-12T18:51:31.053Z""","null","+","null","","","","","","",""
"","","","","","image-keyboard-response","166","212333","0.0-15.0-0.1-1.12","ubz2083nkb","","ubz2083nkb","""2024-11-12T18:51:31.053Z""","913","materials/imgs/D111.png","arrowleft","","[""materials/imgs/D46.png"",""materials/imgs/D75.png""]","false","random","","",""
"","","","","","html-keyboard-response","167","212835","0.0-15.0-0.1-0.13","ubz2083nkb","","ubz2083nkb","""2024-11-12T18:51:31.053Z""","null","+","null","","","","","","",""
"","","","","","image-keyboard-response","168","213897","0.0-15.0-0.1-1.13","ubz2083nkb","","ubz2083nkb","""2024-11-12T18:51:31.053Z""","1060","materials/imgs/D104.png","arrowright","","[""materials/imgs/D9.png"",""materials/imgs/D105.png""]","false","random","","",""
"","","","","","html-keyboard-response","169","214399","0.0-15.0-1.1-0.1","ubz2083nkb","","ubz2083nkb","""2024-11-12T18:51:31.053Z""","null","+","null","","","","","","",""
"","","","","","image-keyboard-response","170","215195","0.0-15.0-1.1-1.1","ubz2083nkb","","ubz2083nkb","""2024-11-12T18:51:31.053Z""","794","materials/imgs/D8.png","arrowright","","[""materials/imgs/D18.png"",""materials/imgs/D8.png""]","","check","materials/imgs/D8.png","1","true"
"","","","","","html-keyboard-response","171","215697","0.0-15.0-2.1-0.2","ubz2083nkb","","ubz2083nkb","""2024-11-12T18:51:31.053Z""","null","+","null","","","","","","",""
"","","","","","image-keyboard-response","172","216697","0.0-15.0-2.1-1.2","ubz2083nkb","","ubz2083nkb","""2024-11-12T18:51:31.053Z""","998","materials/imgs/D79.png","arrowright","","[""materials/imgs/D51.png"",""materials/imgs/D64.png""]","false","validation","","",""
"","","","","","html-keyboard-response","173","217199","0.0-15.0-2.1-0.3","ubz2083nkb","","ubz2083nkb","""2024-11-12T18:51:31.053Z""","null","+","null","","","","","","",""
"","","","","","image-keyboard-response","174","218270","0.0-15.0-2.1-1.3","ubz2083nkb","","ubz2083nkb","""2024-11-12T18:51:31.053Z""","1070","materials/imgs/D96.png","arrowleft","","[""materials/imgs/D46.png"",""materials/imgs/D18.png""]","false","validation","","",""
"","","","","","html-keyboard-response","175","218771","0.0-15.0-0.2-0.14","ubz2083nkb","","ubz2083nkb","""2024-11-12T18:51:31.053Z""","null","+","null","","","","","","",""
"","","","","","image-keyboard-response","176","219809","0.0-15.0-0.2-1.14","ubz2083nkb","","ubz2083nkb","""2024-11-12T18:51:31.053Z""","1035","materials/imgs/D77.png","arrowright","","[""materials/imgs/D83.png"",""materials/imgs/D34.png""]","false","random","","",""
"","","","","","html-keyboard-response","177","220310","0.0-15.0-0.2-0.15","ubz2083nkb","","ubz2083nkb","""2024-11-12T18:51:31.053Z""","null","+","null","","","","","","",""
"","","","","","image-keyboard-response","178","221153","0.0-15.0-0.2-1.15","ubz2083nkb","","ubz2083nkb","""2024-11-12T18:51:31.053Z""","840","materials/imgs/D21.png","arrowright","","[""materials/imgs/D34.png"",""materials/imgs/D49.png""]","false","random","","",""
"","","","","","html-keyboard-response","179","221655","0.0-15.0-0.2-0.16","ubz2083nkb","","ubz2083nkb","""2024-11-12T18:51:31.053Z""","null","+","null","","","","","","",""
"","","","","","image-keyboard-response","180","222478","0.0-15.0-0.2-1.16","ubz2083nkb","","ubz2083nkb","""2024-11-12T18:51:31.053Z""","821","materials/imgs/D103.png","arrowright","","[""materials/imgs/D9.png"",""materials/imgs/D55.png""]","false","random","","",""
"","","","","","html-keyboard-response","181","222980","0.0-15.0-0.2-0.17","ubz2083nkb","","ubz2083nkb","""2024-11-12T18:51:31.053Z""","null","+","null","","","","","","",""
"","","","","","image-keyboard-response","182","223656","0.0-15.0-0.2-1.17","ubz2083nkb","","ubz2083nkb","""2024-11-12T18:51:31.053Z""","673","materials/imgs/D94.png","arrowleft","","[""materials/imgs/D65.png"",""materials/imgs/D103.png""]","false","random","","",""
"","","","","","html-keyboard-response","183","224157","0.0-15.0-0.2-0.18","ubz2083nkb","","ubz2083nkb","""2024-11-12T18:51:31.053Z""","null","+","null","","","","","","",""
"","","","","","image-keyboard-response","184","225064","0.0-15.0-0.2-1.18","ubz2083nkb","","ubz2083nkb","""2024-11-12T18:51:31.053Z""","905","materials/imgs/D85.png","arrowright","","[""materials/imgs/D29.png"",""materials/imgs/D19.png""]","false","random","","",""
"","","","","","html-keyboard-response","185","225566","0.0-15.0-0.2-0.19","ubz2083nkb","","ubz2083nkb","""2024-11-12T18:51:31.053Z""","null","+","null","","","","","","",""
"","","","","","image-keyboard-response","186","226756","0.0-15.0-0.2-1.19","ubz2083nkb","","ubz2083nkb","""2024-11-12T18:51:31.053Z""","1187","materials/imgs/D11.png","arrowleft","","[""materials/imgs/D1.png"",""materials/imgs/D32.png""]","false","random","","",""
"","","","","","html-keyboard-response","187","227257","0.0-15.0-0.2-0.20","ubz2083nkb","","ubz2083nkb","""2024-11-12T18:51:31.053Z""","null","+","null","","","","","","",""
"","","","","","image-keyboard-response","188","228133","0.0-15.0-0.2-1.20","ubz2083nkb","","ubz2083nkb","""2024-11-12T18:51:31.053Z""","873","materials/imgs/D56.png","arrowright","","[""materials/imgs/D84.png"",""materials/imgs/D22.png""]","false","random","","",""
"","","","","","html-keyboard-response","189","228635","0.0-15.0-1.2-0.2","ubz2083nkb","","ubz2083nkb","""2024-11-12T18:51:31.053Z""","null","+","null","","","","","","",""
"","","","","","image-keyboard-response","190","229291","0.0-15.0-1.2-1.2","ubz2083nkb","","ubz2083nkb","""2024-11-12T18:51:31.053Z""","654","materials/imgs/D78.png","arrowright","","[""materials/imgs/D76.png"",""materials/imgs/D78.png""]","","check","materials/imgs/D78.png","1","true"
"","","","","","html-keyboard-response","191","229793","0.0-15.0-2.2-0.4","ubz2083nkb","","ubz2083nkb","""2024-11-12T18:51:31.053Z""","null","+","null","","","","","","",""
"","","","","","image-keyboard-response","192","230618","0.0-15.0-2.2-1.4","ubz2083nkb","","ubz2083nkb","""2024-11-12T18:51:31.053Z""","823","materials/imgs/D22.png","arrowleft","","[""materials/imgs/D4.png"",""materials/imgs/D25.png""]","false","validation","","",""
"","","","","","html-keyboard-response","193","231119","0.0-15.0-2.2-0.5","ubz2083nkb","","ubz2083nkb","""2024-11-12T18:51:31.053Z""","null","+","null","","","","","","",""
"","","","","","image-keyboard-response","194","232261","0.0-15.0-2.2-1.5","ubz2083nkb","","ubz2083nkb","""2024-11-12T18:51:31.053Z""","1140","materials/imgs/D79.png","arrowright","","[""materials/imgs/D51.png"",""materials/imgs/D64.png""]","false","validation","","",""
"","","","","","html-keyboard-response","195","232763","0.0-15.0-0.3-0.21","ubz2083nkb","","ubz2083nkb","""2024-11-12T18:51:31.053Z""","null","+","null","","","","","","",""
"","","","","","image-keyboard-response","196","233654","0.0-15.0-0.3-1.21","ubz2083nkb","","ubz2083nkb","""2024-11-12T18:51:31.053Z""","888","materials/imgs/D34.png","arrowleft","","[""materials/imgs/D76.png"",""materials/imgs/D1.png""]","false","random","","",""
"","","","","","html-keyboard-response","197","234155","0.0-15.0-0.3-0.22","ubz2083nkb","","ubz2083nkb","""2024-11-12T18:51:31.053Z""","null","+","null","","","","","","",""
"","","","","","image-keyboard-response","198","235036","0.0-15.0-0.3-1.22","ubz2083nkb","","ubz2083nkb","""2024-11-12T18:51:31.053Z""","879","materials/imgs/D52.png","arrowleft","","[""materials/imgs/D66.png"",""materials/imgs/D68.png""]","false","random","","",""
"","","","","","html-keyboard-response","199","235537","0.0-15.0-0.3-0.23","ubz2083nkb","","ubz2083nkb","""2024-11-12T18:51:31.053Z""","null","+","null","","","","","","",""
"","","","","","image-keyboard-response","200","236297","0.0-15.0-0.3-1.23","ubz2083nkb","","ubz2083nkb","""2024-11-12T18:51:31.053Z""","757","materials/imgs/D68.png","arrowleft","","[""materials/imgs/D87.png"",""materials/imgs/D8.png""]","false","random","","",""
"","","","","","html-keyboard-response","201","236798","0.0-15.0-0.3-0.24","ubz2083nkb","","ubz2083nkb","""2024-11-12T18:51:31.053Z""","null","+","null","","","","","","",""
"","","","","","image-keyboard-response","202","237386","0.0-15.0-0.3-1.24","ubz2083nkb","","ubz2083nkb","""2024-11-12T18:51:31.053Z""","585","materials/imgs/D46.png","arrowleft","","[""materials/imgs/D85.png"",""materials/imgs/D104.png""]","false","random","","",""
"","","","","","html-keyboard-response","203","237888","0.0-15.0-0.3-0.25","ubz2083nkb","","ubz2083nkb","""2024-11-12T18:51:31.053Z""","null","+","null","","","","","","",""
"","","","","","image-keyboard-response","204","238428","0.0-15.0-0.3-1.25","ubz2083nkb","","ubz2083nkb","""2024-11-12T18:51:31.053Z""","538","materials/imgs/D49.png","arrowright","","[""materials/imgs/D57.png"",""materials/imgs/D79.png""]","false","random","","",""
"","","","","","html-keyboard-response","205","238929","0.0-15.0-0.3-0.26","ubz2083nkb","","ubz2083nkb","""2024-11-12T18:51:31.053Z""","null","+","null","","","","","","",""
"","","","","","image-keyboard-response","206","239561","0.0-15.0-0.3-1.26","ubz2083nkb","","ubz2083nkb","""2024-11-12T18:51:31.053Z""","629","materials/imgs/D75.png","arrowleft","","[""materials/imgs/D9.png"",""materials/imgs/D1.png""]","false","random","","",""
"","","","","","html-keyboard-response","207","240062","0.0-15.0-0.3-0.27","ubz2083nkb","","ubz2083nkb","""2024-11-12T18:51:31.053Z""","null","+","null","","","","","","",""
"","","","","","image-keyboard-response","208","240702","0.0-15.0-0.3-1.27","ubz2083nkb","","ubz2083nkb","""2024-11-12T18:51:31.053Z""","638","materials/imgs/D53.png","arrowright","","[""materials/imgs/D96.png"",""materials/imgs/D65.png""]","false","random","","",""
"","","","","","html-keyboard-response","209","241203","0.0-15.0-1.3-0.3","ubz2083nkb","","ubz2083nkb","""2024-11-12T18:51:31.053Z""","null","+","null","","","","","","",""
"","","","","","image-keyboard-response","210","241777","0.0-15.0-1.3-1.3","ubz2083nkb","","ubz2083nkb","""2024-11-12T18:51:31.053Z""","573","materials/imgs/D78.png","arrowright","","[""materials/imgs/D76.png"",""materials/imgs/D78.png""]","","check","materials/imgs/D78.png","1","true"
"","","","","","html-keyboard-response","211","242279","0.0-15.0-2.3-0.6","ubz2083nkb","","ubz2083nkb","""2024-11-12T18:51:31.053Z""","null","+","null","","","","","","",""
"","","","","","image-keyboard-response","212","243174","0.0-15.0-2.3-1.6","ubz2083nkb","","ubz2083nkb","""2024-11-12T18:51:31.053Z""","893","materials/imgs/D66.png","arrowright","","[""materials/imgs/D85.png"",""materials/imgs/D25.png""]","false","validation","","",""
"","","","","","html-keyboard-response","213","243675","0.0-15.0-2.3-0.7","ubz2083nkb","","ubz2083nkb","""2024-11-12T18:51:31.053Z""","null","+","null","","","","","","",""
"","","","","","image-keyboard-response","214","244665","0.0-15.0-2.3-1.7","ubz2083nkb","","ubz2083nkb","""2024-11-12T18:51:31.053Z""","987","materials/imgs/D35.png","arrowleft","","[""materials/imgs/D83.png"",""materials/imgs/D24.png""]","false","validation","","",""
"","","","","","html-keyboard-response","215","245166","0.0-15.0-0.4-0.28","ubz2083nkb","","ubz2083nkb","""2024-11-12T18:51:31.053Z""","null","+","null","","","","","","",""
"","","","","","image-keyboard-response","216","246012","0.0-15.0-0.4-1.28","ubz2083nkb","","ubz2083nkb","""2024-11-12T18:51:31.053Z""","845","materials/imgs/D37.png","arrowright","","[""materials/imgs/D75.png"",""materials/imgs/D6.png""]","false","random","","",""
"","","","","","html-keyboard-response","217","246514","0.0-15.0-0.4-0.29","ubz2083nkb","","ubz2083nkb","""2024-11-12T18:51:31.053Z""","null","+","null","","","","","","",""
"","","","","","image-keyboard-response","218","247515","0.0-15.0-0.4-1.29","ubz2083nkb","","ubz2083nkb","""2024-11-12T18:51:31.053Z""","999","materials/imgs/D68.png","arrowright","","[""materials/imgs/D29.png"",""materials/imgs/D26.png""]","false","random","","",""
"","","","","","html-keyboard-response","219","248017","0.0-15.0-0.4-0.30","ubz2083nkb","","ubz2083nkb","""2024-11-12T18:51:31.053Z""","null","+","null","","","","","","",""
"","","","","","image-keyboard-response","220","248675","0.0-15.0-0.4-1.30","ubz2083nkb","","ubz2083nkb","""2024-11-12T18:51:31.053Z""","656","materials/imgs/D19.png","arrowright","","[""materials/imgs/D26.png"",""materials/imgs/D68.png""]","false","random","","",""
"","","","","","html-keyboard-response","221","249176","0.0-15.0-0.4-0.31","ubz2083nkb","","ubz2083nkb","""2024-11-12T18:51:31.053Z""","null","+","null","","","","","","",""
"","","","","","image-keyboard-response","222","250013","0.0-15.0-0.4-1.31","ubz2083nkb","","ubz2083nkb","""2024-11-12T18:51:31.053Z""","834","materials/imgs/D53.png","arrowleft","","[""materials/imgs/D36.png"",""materials/imgs/D11.png""]","false","random","","",""
"","","","","","html-keyboard-response","223","250515","0.0-15.0-0.4-0.32","ubz2083nkb","","ubz2083nkb","""2024-11-12T18:51:31.053Z""","null","+","null","","","","","","",""
"","","","","","image-keyboard-response","224","251483","0.0-15.0-0.4-1.32","ubz2083nkb","","ubz2083nkb","""2024-11-12T18:51:31.053Z""","960","materials/imgs/D83.png","arrowleft","","[""materials/imgs/D35.png"",""materials/imgs/D49.png""]","false","random","","",""
"","","","","","html-keyboard-response","225","251984","0.0-15.0-0.4-0.33","ubz2083nkb","","ubz2083nkb","""2024-11-12T18:51:31.053Z""","null","+","null","","","","","","",""
"","","","","","image-keyboard-response","226","252887","0.0-15.0-0.4-1.33","ubz2083nkb","","ubz2083nkb","""2024-11-12T18:51:31.053Z""","901","materials/imgs/D81.png","arrowleft","","[""materials/imgs/D96.png"",""materials/imgs/D74.png""]","false","random","","",""
"","","","","","html-keyboard-response","227","253389","0.0-15.0-0.4-0.34","ubz2083nkb","","ubz2083nkb","""2024-11-12T18:51:31.053Z""","null","+","null","","","","","","",""
"","","","","","image-keyboard-response","228","255345","0.0-15.0-0.4-1.34","ubz2083nkb","","ubz2083nkb","""2024-11-12T18:51:31.053Z""","1954","materials/imgs/D85.png","arrowright","","[""materials/imgs/D81.png"",""materials/imgs/D17.png""]","false","random","","",""
"","","","","","html-keyboard-response","229","255846","0.0-15.0-1.4-0.4","ubz2083nkb","","ubz2083nkb","""2024-11-12T18:51:31.053Z""","null","+","null","","","","","","",""
"","","","","","image-keyboard-response","230","256417","0.0-15.0-1.4-1.4","ubz2083nkb","","ubz2083nkb","""2024-11-12T18:51:31.053Z""","569","materials/imgs/D106.png","arrowleft","","[""materials/imgs/D106.png"",""materials/imgs/D101.png""]","","check","materials/imgs/D106.png","0","true"
"","","","","","html-keyboard-response","231","256919","0.0-15.0-2.4-0.8","ubz2083nkb","","ubz2083nkb","""2024-11-12T18:51:31.053Z""","null","+","null","","","","","","",""
"","","","","","image-keyboard-response","232","257592","0.0-15.0-2.4-1.8","ubz2083nkb","","ubz2083nkb","""2024-11-12T18:51:31.053Z""","671","materials/imgs/D19.png","arrowleft","","[""materials/imgs/D111.png"",""materials/imgs/D56.png""]","false","validation","","",""
"","","","","","html-keyboard-response","233","258093","0.0-15.0-2.4-0.9","ubz2083nkb","","ubz2083nkb","""2024-11-12T18:51:31.053Z""","null","+","null","","","","","","",""
"","","","","","image-keyboard-response","234","259139","0.0-15.0-2.4-1.9","ubz2083nkb","","ubz2083nkb","""2024-11-12T18:51:31.053Z""","1043","materials/imgs/D65.png","arrowleft","","[""materials/imgs/D4.png"",""materials/imgs/D16.png""]","false","validation","","",""
"","","","","","html-button-response","235","260534","0.0-16.0","ubz2083nkb","","ubz2083nkb","""2024-11-12T18:51:31.053Z""","1394","You have completed 50% of the trials. Please click 'Continue' when you are ready proceed.","0","","","","","","",""
"","","","","","html-keyboard-response","236","261036","0.0-17.0-0.0-0.0","ubz2083nkb","","ubz2083nkb","""2024-11-12T18:51:31.053Z""","null","+","null","","","","","","",""
"","","","","","image-keyboard-response","237","261920","0.0-17.0-0.0-1.0","ubz2083nkb","","ubz2083nkb","""2024-11-12T18:51:31.053Z""","881","materials/imgs/D26.png","arrowright","","[""materials/imgs/D103.png"",""materials/imgs/D81.png""]","false","random","","",""
"","","","","","html-keyboard-response","238","262422","0.0-17.0-0.0-0.1","ubz2083nkb","","ubz2083nkb","""2024-11-12T18:51:31.053Z""","null","+","null","","","","","","",""
"","","","","","image-keyboard-response","239","263030","0.0-17.0-0.0-1.1","ubz2083nkb","","ubz2083nkb","""2024-11-12T18:51:31.053Z""","606","materials/imgs/D6.png","arrowleft","","[""materials/imgs/D85.png"",""materials/imgs/D64.png""]","false","random","","",""
"","","","","","html-keyboard-response","240","263532","0.0-17.0-0.0-0.2","ubz2083nkb","","ubz2083nkb","""2024-11-12T18:51:31.053Z""","null","+","null","","","","","","",""
"","","","","","image-keyboard-response","241","264065","0.0-17.0-0.0-1.2","ubz2083nkb","","ubz2083nkb","""2024-11-12T18:51:31.053Z""","530","materials/imgs/D6.png","arrowright","","[""materials/imgs/D8.png"",""materials/imgs/D3.png""]","false","random","","",""
"","","","","","html-keyboard-response","242","264566","0.0-17.0-0.0-0.3","ubz2083nkb","","ubz2083nkb","""2024-11-12T18:51:31.053Z""","null","+","null","","","","","","",""
"","","","","","image-keyboard-response","243","265182","0.0-17.0-0.0-1.3","ubz2083nkb","","ubz2083nkb","""2024-11-12T18:51:31.053Z""","614","materials/imgs/D1.png","arrowleft","","[""materials/imgs/D102.png"",""materials/imgs/D18.png""]","false","random","","",""
"","","","","","html-keyboard-response","244","265683","0.0-17.0-0.0-0.4","ubz2083nkb","","ubz2083nkb","""2024-11-12T18:51:31.053Z""","null","+","null","","","","","","",""
"","","","","","image-keyboard-response","245","266491","0.0-17.0-0.0-1.4","ubz2083nkb","","ubz2083nkb","""2024-11-12T18:51:31.053Z""","805","materials/imgs/D95.png","arrowright","","[""materials/imgs/D6.png"",""materials/imgs/D8.png""]","false","random","","",""
"","","","","","html-keyboard-response","246","266992","0.0-17.0-0.0-0.5","ubz2083nkb","","ubz2083nkb","""2024-11-12T18:51:31.053Z""","null","+","null","","","","","","",""
"","","","","","image-keyboard-response","247","267724","0.0-17.0-0.0-1.5","ubz2083nkb","","ubz2083nkb","""2024-11-12T18:51:31.053Z""","729","materials/imgs/D32.png","arrowright","","[""materials/imgs/D46.png"",""materials/imgs/D37.png""]","false","random","","",""
"","","","","","html-keyboard-response","248","268225","0.0-17.0-0.0-0.6","ubz2083nkb","","ubz2083nkb","""2024-11-12T18:51:31.053Z""","null","+","null","","","","","","",""
"","","","","","image-keyboard-response","249","269030","0.0-17.0-0.0-1.6","ubz2083nkb","","ubz2083nkb","""2024-11-12T18:51:31.053Z""","803","materials/imgs/D32.png","arrowleft","","[""materials/imgs/D22.png"",""materials/imgs/D36.png""]","false","random","","",""
"","","","","","html-keyboard-response","250","269532","0.0-17.0-1.0-0.0","ubz2083nkb","","ubz2083nkb","""2024-11-12T18:51:31.053Z""","null","+","null","","","","","","",""
"","","","","","image-keyboard-response","251","270232","0.0-17.0-1.0-1.0","ubz2083nkb","","ubz2083nkb","""2024-11-12T18:51:31.053Z""","698","materials/imgs/D46.png","arrowleft","","[""materials/imgs/D46.png"",""materials/imgs/D26.png""]","","check","materials/imgs/D46.png","0","true"
"","","","","","html-keyboard-response","252","270733","0.0-17.0-2.0-0.0","ubz2083nkb","","ubz2083nkb","""2024-11-12T18:51:31.053Z""","null","+","null","","","","","","",""
"","","","","","image-keyboard-response","253","272661","0.0-17.0-2.0-1.0","ubz2083nkb","","ubz2083nkb","""2024-11-12T18:51:31.053Z""","1925","materials/imgs/D68.png","arrowleft","","[""materials/imgs/D96.png"",""materials/imgs/D48.png""]","false","validation","","",""
"","","","","","html-keyboard-response","254","273163","0.0-17.0-2.0-0.1","ubz2083nkb","","ubz2083nkb","""2024-11-12T18:51:31.053Z""","null","+","null","","","","","","",""
"","","","","","image-keyboard-response","255","274405","0.0-17.0-2.0-1.1","ubz2083nkb","","ubz2083nkb","""2024-11-12T18:51:31.053Z""","1240","materials/imgs/D81.png","arrowright","","[""materials/imgs/D105.png"",""materials/imgs/D24.png""]","false","validation","","",""
"","","","","","html-keyboard-response","256","274906","0.0-17.0-0.1-0.7","ubz2083nkb","","ubz2083nkb","""2024-11-12T18:51:31.053Z""","null","+","null","","","","","","",""
"","","","","","image-keyboard-response","257","276369","0.0-17.0-0.1-1.7","ubz2083nkb","","ubz2083nkb","""2024-11-12T18:51:31.053Z""","1460","materials/imgs/D95.png","arrowleft","","[""materials/imgs/D92.png"",""materials/imgs/D26.png""]","false","random","","",""
"","","","","","html-keyboard-response","258","276871","0.0-17.0-0.1-0.8","ubz2083nkb","","ubz2083nkb","""2024-11-12T18:51:31.053Z""","null","+","null","","","","","","",""
"","","","","","image-keyboard-response","259","280113","0.0-17.0-0.1-1.8","ubz2083nkb","","ubz2083nkb","""2024-11-12T18:51:31.053Z""","3240","materials/imgs/D68.png","arrowright","","[""materials/imgs/D20.png"",""materials/imgs/D19.png""]","false","random","","",""
"","","","","","html-keyboard-response","260","280614","0.0-17.0-0.1-0.9","ubz2083nkb","","ubz2083nkb","""2024-11-12T18:51:31.053Z""","null","+","null","","","","","","",""
"","","","","","image-keyboard-response","261","281339","0.0-17.0-0.1-1.9","ubz2083nkb","","ubz2083nkb","""2024-11-12T18:51:31.053Z""","722","materials/imgs/D78.png","arrowleft","","[""materials/imgs/D57.png"",""materials/imgs/D77.png""]","false","random","","",""
"","","","","","html-keyboard-response","262","281840","0.0-17.0-0.1-0.10","ubz2083nkb","","ubz2083nkb","""2024-11-12T18:51:31.053Z""","null","+","null","","","","","","",""
"","","","","","image-keyboard-response","263","282513","0.0-17.0-0.1-1.10","ubz2083nkb","","ubz2083nkb","""2024-11-12T18:51:31.053Z""","671","materials/imgs/D111.png","arrowleft","","[""materials/imgs/D24.png"",""materials/imgs/D8.png""]","false","random","","",""
"","","","","","html-keyboard-response","264","283014","0.0-17.0-0.1-0.11","ubz2083nkb","","ubz2083nkb","""2024-11-12T18:51:31.053Z""","null","+","null","","","","","","",""
"","","","","","image-keyboard-response","265","283751","0.0-17.0-0.1-1.11","ubz2083nkb","","ubz2083nkb","""2024-11-12T18:51:31.053Z""","735","materials/imgs/D105.png","arrowleft","","[""materials/imgs/D78.png"",""materials/imgs/D57.png""]","false","random","","",""
"","","","","","html-keyboard-response","266","284252","0.0-17.0-0.1-0.12","ubz2083nkb","","ubz2083nkb","""2024-11-12T18:51:31.053Z""","null","+","null","","","","","","",""
"","","","","","image-keyboard-response","267","284902","0.0-17.0-0.1-1.12","ubz2083nkb","","ubz2083nkb","""2024-11-12T18:51:31.053Z""","647","materials/imgs/D6.png","arrowright","","[""materials/imgs/D8.png"",""materials/imgs/D104.png""]","false","random","","",""
"","","","","","html-keyboard-response","268","285403","0.0-17.0-0.1-0.13","ubz2083nkb","","ubz2083nkb","""2024-11-12T18:51:31.053Z""","null","+","null","","","","","","",""
"","","","","","image-keyboard-response","269","286035","0.0-17.0-0.1-1.13","ubz2083nkb","","ubz2083nkb","""2024-11-12T18:51:31.053Z""","629","materials/imgs/D35.png","arrowleft","","[""materials/imgs/D66.png"",""materials/imgs/D101.png""]","false","random","","",""
"","","","","","html-keyboard-response","270","286537","0.0-17.0-1.1-0.1","ubz2083nkb","","ubz2083nkb","""2024-11-12T18:51:31.053Z""","null","+","null","","","","","","",""
"","","","","","image-keyboard-response","271","287169","0.0-17.0-1.1-1.1","ubz2083nkb","","ubz2083nkb","""2024-11-12T18:51:31.053Z""","630","materials/imgs/D18.png","arrowright","","[""materials/imgs/D8.png"",""materials/imgs/D18.png""]","","check","materials/imgs/D18.png","1","true"
"","","","","","html-keyboard-response","272","287670","0.0-17.0-2.1-0.2","ubz2083nkb","","ubz2083nkb","""2024-11-12T18:51:31.053Z""","null","+","null","","","","","","",""
"","","","","","image-keyboard-response","273","288323","0.0-17.0-2.1-1.2","ubz2083nkb","","ubz2083nkb","""2024-11-12T18:51:31.053Z""","650","materials/imgs/D1.png","arrowleft","","[""materials/imgs/D57.png"",""materials/imgs/D76.png""]","false","validation","","",""
"","","","","","html-keyboard-response","274","288825","0.0-17.0-2.1-0.3","ubz2083nkb","","ubz2083nkb","""2024-11-12T18:51:31.053Z""","null","+","null","","","","","","",""
"","","","","","image-keyboard-response","275","289645","0.0-17.0-2.1-1.3","ubz2083nkb","","ubz2083nkb","""2024-11-12T18:51:31.053Z""","818","materials/imgs/D25.png","arrowright","","[""materials/imgs/D103.png"",""materials/imgs/D64.png""]","false","validation","","",""
"","","","","","html-keyboard-response","276","290147","0.0-17.0-0.2-0.14","ubz2083nkb","","ubz2083nkb","""2024-11-12T18:51:31.053Z""","null","+","null","","","","","","",""
"","","","","","image-keyboard-response","277","291609","0.0-17.0-0.2-1.14","ubz2083nkb","","ubz2083nkb","""2024-11-12T18:51:31.053Z""","1460","materials/imgs/D66.png","arrowleft","","[""materials/imgs/D102.png"",""materials/imgs/D65.png""]","false","random","","",""
"","","","","","html-keyboard-response","278","292111","0.0-17.0-0.2-0.15","ubz2083nkb","","ubz2083nkb","""2024-11-12T18:51:31.053Z""","null","+","null","","","","","","",""
"","","","","","image-keyboard-response","279","294726","0.0-17.0-0.2-1.15","ubz2083nkb","","ubz2083nkb","""2024-11-12T18:51:31.053Z""","2613","materials/imgs/D74.png","arrowleft","","[""materials/imgs/D96.png"",""materials/imgs/D16.png""]","false","random","","",""
"","","","","","html-keyboard-response","280","295227","0.0-17.0-0.2-0.16","ubz2083nkb","","ubz2083nkb","""2024-11-12T18:51:31.053Z""","null","+","null","","","","","","",""
"","","","","","image-keyboard-response","281","296996","0.0-17.0-0.2-1.16","ubz2083nkb","","ubz2083nkb","""2024-11-12T18:51:31.053Z""","1767","materials/imgs/D29.png","arrowright","","[""materials/imgs/D102.png"",""materials/imgs/D24.png""]","false","random","","",""
"","","","","","html-keyboard-response","282","297498","0.0-17.0-0.2-0.17","ubz2083nkb","","ubz2083nkb","""2024-11-12T18:51:31.053Z""","null","+","null","","","","","","",""
"","","","","","image-keyboard-response","283","298994","0.0-17.0-0.2-1.17","ubz2083nkb","","ubz2083nkb","""2024-11-12T18:51:31.053Z""","1493","materials/imgs/D85.png","arrowleft","","[""materials/imgs/D22.png"",""materials/imgs/D26.png""]","false","random","","",""
"","","","","","html-keyboard-response","284","299496","0.0-17.0-0.2-0.18","ubz2083nkb","","ubz2083nkb","""2024-11-12T18:51:31.053Z""","null","+","null","","","","","","",""
"","","","","","image-keyboard-response","285","300973","0.0-17.0-0.2-1.18","ubz2083nkb","","ubz2083nkb","""2024-11-12T18:51:31.053Z""","1475","materials/imgs/D64.png","arrowright","","[""materials/imgs/D111.png"",""materials/imgs/D3.png""]","false","random","","",""
"","","","","","html-keyboard-response","286","301475","0.0-17.0-0.2-0.19","ubz2083nkb","","ubz2083nkb","""2024-11-12T18:51:31.053Z""","null","+","null","","","","","","",""
"","","","","","image-keyboard-response","287","303265","0.0-17.0-0.2-1.19","ubz2083nkb","","ubz2083nkb","""2024-11-12T18:51:31.053Z""","1788","materials/imgs/D3.png","arrowright","","[""materials/imgs/D46.png"",""materials/imgs/D56.png""]","false","random","","",""
"","","","","","html-keyboard-response","288","303767","0.0-17.0-0.2-0.20","ubz2083nkb","","ubz2083nkb","""2024-11-12T18:51:31.053Z""","null","+","null","","","","","","",""
"","","","","","image-keyboard-response","289","304807","0.0-17.0-0.2-1.20","ubz2083nkb","","ubz2083nkb","""2024-11-12T18:51:31.053Z""","1038","materials/imgs/D65.png","arrowleft","","[""materials/imgs/D87.png"",""materials/imgs/D24.png""]","false","random","","",""
"","","","","","html-keyboard-response","290","305308","0.0-17.0-1.2-0.2","ubz2083nkb","","ubz2083nkb","""2024-11-12T18:51:31.053Z""","null","+","null","","","","","","",""
"","","","","","image-keyboard-response","291","305919","0.0-17.0-1.2-1.2","ubz2083nkb","","ubz2083nkb","""2024-11-12T18:51:31.053Z""","609","materials/imgs/D18.png","arrowright","","[""materials/imgs/D8.png"",""materials/imgs/D18.png""]","","check","materials/imgs/D18.png","1","true"
"","","","","","html-keyboard-response","292","306420","0.0-17.0-2.2-0.4","ubz2083nkb","","ubz2083nkb","""2024-11-12T18:51:31.053Z""","null","+","null","","","","","","",""
"","","","","","image-keyboard-response","293","307050","0.0-17.0-2.2-1.4","ubz2083nkb","","ubz2083nkb","""2024-11-12T18:51:31.053Z""","628","materials/imgs/D26.png","arrowleft","","[""materials/imgs/D36.png"",""materials/imgs/D92.png""]","false","validation","","",""
"","","","","","html-keyboard-response","294","307551","0.0-17.0-2.2-0.5","ubz2083nkb","","ubz2083nkb","""2024-11-12T18:51:31.053Z""","null","+","null","","","","","","",""
"","","","","","image-keyboard-response","295","308296","0.0-17.0-2.2-1.5","ubz2083nkb","","ubz2083nkb","""2024-11-12T18:51:31.053Z""","743","materials/imgs/D92.png","arrowright","","[""materials/imgs/D56.png"",""materials/imgs/D77.png""]","false","validation","","",""
"","","","","","html-keyboard-response","296","308797","0.0-17.0-0.3-0.21","ubz2083nkb","","ubz2083nkb","""2024-11-12T18:51:31.053Z""","null","+","null","","","","","","",""
"","","","","","image-keyboard-response","297","309475","0.0-17.0-0.3-1.21","ubz2083nkb","","ubz2083nkb","""2024-11-12T18:51:31.053Z""","675","materials/imgs/D19.png","arrowright","","[""materials/imgs/D95.png"",""materials/imgs/D9.png""]","false","random","","",""
"","","","","","html-keyboard-response","298","309977","0.0-17.0-0.3-0.22","ubz2083nkb","","ubz2083nkb","""2024-11-12T18:51:31.053Z""","null","+","null","","","","","","",""
"","","","","","image-keyboard-response","299","310582","0.0-17.0-0.3-1.22","ubz2083nkb","","ubz2083nkb","""2024-11-12T18:51:31.053Z""","603","materials/imgs/D9.png","arrowleft","","[""materials/imgs/D111.png"",""materials/imgs/D101.png""]","false","random","","",""
"","","","","","html-keyboard-response","300","311084","0.0-17.0-0.3-0.23","ubz2083nkb","","ubz2083nkb","""2024-11-12T18:51:31.053Z""","null","+","null","","","","","","",""
"","","","","","image-keyboard-response","301","311958","0.0-17.0-0.3-1.23","ubz2083nkb","","ubz2083nkb","""2024-11-12T18:51:31.053Z""","871","materials/imgs/D95.png","arrowright","","[""materials/imgs/D6.png"",""materials/imgs/D47.png""]","false","random","","",""
"","","","","","html-keyboard-response","302","312459","0.0-17.0-0.3-0.24","ubz2083nkb","","ubz2083nkb","""2024-11-12T18:51:31.053Z""","null","+","null","","","","","","",""
"","","","","","image-keyboard-response","303","313358","0.0-17.0-0.3-1.24","ubz2083nkb","","ubz2083nkb","""2024-11-12T18:51:31.053Z""","897","materials/imgs/D19.png","arrowleft","","[""materials/imgs/D4.png"",""materials/imgs/D55.png""]","false","random","","",""
"","","","","","html-keyboard-response","304","313859","0.0-17.0-0.3-0.25","ubz2083nkb","","ubz2083nkb","""2024-11-12T18:51:31.053Z""","null","+","null","","","","","","",""
"","","","","","image-keyboard-response","305","314554","0.0-17.0-0.3-1.25","ubz2083nkb","","ubz2083nkb","""2024-11-12T18:51:31.053Z""","692","materials/imgs/D77.png","arrowleft","","[""materials/imgs/D24.png"",""materials/imgs/D83.png""]","false","random","","",""
"","","","","","html-keyboard-response","306","315056","0.0-17.0-0.3-0.26","ubz2083nkb","","ubz2083nkb","""2024-11-12T18:51:31.053Z""","null","+","null","","","","","","",""
"","","","","","image-keyboard-response","307","315919","0.0-17.0-0.3-1.26","ubz2083nkb","","ubz2083nkb","""2024-11-12T18:51:31.053Z""","860","materials/imgs/D20.png","arrowright","","[""materials/imgs/D36.png"",""materials/imgs/D55.png""]","false","random","","",""
"","","","","","html-keyboard-response","308","316420","0.0-17.0-0.3-0.27","ubz2083nkb","","ubz2083nkb","""2024-11-12T18:51:31.053Z""","null","+","null","","","","","","",""
"","","","","","image-keyboard-response","309","317017","0.0-17.0-0.3-1.27","ubz2083nkb","","ubz2083nkb","""2024-11-12T18:51:31.053Z""","594","materials/imgs/D77.png","arrowleft","","[""materials/imgs/D87.png"",""materials/imgs/D92.png""]","false","random","","",""
"","","","","","html-keyboard-response","310","317518","0.0-17.0-1.3-0.3","ubz2083nkb","","ubz2083nkb","""2024-11-12T18:51:31.053Z""","null","+","null","","","","","","",""
"","","","","","image-keyboard-response","311","318067","0.0-17.0-1.3-1.3","ubz2083nkb","","ubz2083nkb","""2024-11-12T18:51:31.053Z""","547","materials/imgs/D76.png","arrowleft","","[""materials/imgs/D76.png"",""materials/imgs/D78.png""]","","check","materials/imgs/D76.png","0","true"
"","","","","","html-keyboard-response","312","318568","0.0-17.0-2.3-0.6","ubz2083nkb","","ubz2083nkb","""2024-11-12T18:51:31.053Z""","null","+","null","","","","","","",""
"","","","","","image-keyboard-response","313","319579","0.0-17.0-2.3-1.6","ubz2083nkb","","ubz2083nkb","""2024-11-12T18:51:31.053Z""","1008","materials/imgs/D18.png","arrowleft","","[""materials/imgs/D32.png"",""materials/imgs/D57.png""]","false","validation","","",""
"","","","","","html-keyboard-response","314","320081","0.0-17.0-2.3-0.7","ubz2083nkb","","ubz2083nkb","""2024-11-12T18:51:31.053Z""","null","+","null","","","","","","",""
"","","","","","image-keyboard-response","315","320847","0.0-17.0-2.3-1.7","ubz2083nkb","","ubz2083nkb","""2024-11-12T18:51:31.053Z""","764","materials/imgs/D103.png","arrowleft","","[""materials/imgs/D76.png"",""materials/imgs/D106.png""]","false","validation","","",""
"","","","","","html-keyboard-response","316","321348","0.0-17.0-0.4-0.28","ubz2083nkb","","ubz2083nkb","""2024-11-12T18:51:31.053Z""","null","+","null","","","","","","",""
"","","","","","image-keyboard-response","317","322569","0.0-17.0-0.4-1.28","ubz2083nkb","","ubz2083nkb","""2024-11-12T18:51:31.053Z""","1219","materials/imgs/D52.png","arrowleft","","[""materials/imgs/D74.png"",""materials/imgs/D24.png""]","false","random","","",""
"","","","","","html-keyboard-response","318","323070","0.0-17.0-0.4-0.29","ubz2083nkb","","ubz2083nkb","""2024-11-12T18:51:31.053Z""","null","+","null","","","","","","",""
"","","","","","image-keyboard-response","319","324254","0.0-17.0-0.4-1.29","ubz2083nkb","","ubz2083nkb","""2024-11-12T18:51:31.053Z""","1182","materials/imgs/D95.png","arrowright","","[""materials/imgs/D106.png"",""materials/imgs/D8.png""]","false","random","","",""
"","","","","","html-keyboard-response","320","324755","0.0-17.0-0.4-0.30","ubz2083nkb","","ubz2083nkb","""2024-11-12T18:51:31.053Z""","null","+","null","","","","","","",""
"","","","","","image-keyboard-response","321","325538","0.0-17.0-0.4-1.30","ubz2083nkb","","ubz2083nkb","""2024-11-12T18:51:31.053Z""","780","materials/imgs/D103.png","arrowright","","[""materials/imgs/D46.png"",""materials/imgs/D68.png""]","false","random","","",""
"","","","","","html-keyboard-response","322","326040","0.0-17.0-0.4-0.31","ubz2083nkb","","ubz2083nkb","""2024-11-12T18:51:31.053Z""","null","+","null","","","","","","",""
"","","","","","image-keyboard-response","323","326815","0.0-17.0-0.4-1.31","ubz2083nkb","","ubz2083nkb","""2024-11-12T18:51:31.053Z""","773","materials/imgs/D22.png","arrowright","","[""materials/imgs/D66.png"",""materials/imgs/D4.png""]","false","random","","",""
"","","","","","html-keyboard-response","324","327316","0.0-17.0-0.4-0.32","ubz2083nkb","","ubz2083nkb","""2024-11-12T18:51:31.053Z""","null","+","null","","","","","","",""
"","","","","","image-keyboard-response","325","327955","0.0-17.0-0.4-1.32","ubz2083nkb","","ubz2083nkb","""2024-11-12T18:51:31.053Z""","636","materials/imgs/D29.png","arrowleft","","[""materials/imgs/D24.png"",""materials/imgs/D96.png""]","false","random","","",""
"","","","","","html-keyboard-response","326","328456","0.0-17.0-0.4-0.33","ubz2083nkb","","ubz2083nkb","""2024-11-12T18:51:31.053Z""","null","+","null","","","","","","",""
"","","","","","image-keyboard-response","327","329765","0.0-17.0-0.4-1.33","ubz2083nkb","","ubz2083nkb","""2024-11-12T18:51:31.053Z""","1306","materials/imgs/D26.png","arrowright","","[""materials/imgs/D106.png"",""materials/imgs/D80.png""]","false","random","","",""
"","","","","","html-keyboard-response","328","330266","0.0-17.0-0.4-0.34","ubz2083nkb","","ubz2083nkb","""2024-11-12T18:51:31.053Z""","null","+","null","","","","","","",""
"","","","","","image-keyboard-response","329","331608","0.0-17.0-0.4-1.34","ubz2083nkb","","ubz2083nkb","""2024-11-12T18:51:31.053Z""","1340","materials/imgs/D8.png","arrowleft","","[""materials/imgs/D65.png"",""materials/imgs/D96.png""]","false","random","","",""
"","","","","","html-keyboard-response","330","332110","0.0-17.0-1.4-0.4","ubz2083nkb","","ubz2083nkb","""2024-11-12T18:51:31.053Z""","null","+","null","","","","","","",""
"","","","","","image-keyboard-response","331","332634","0.0-17.0-1.4-1.4","ubz2083nkb","","ubz2083nkb","""2024-11-12T18:51:31.053Z""","522","materials/imgs/D64.png","arrowleft","","[""materials/imgs/D64.png"",""materials/imgs/D53.png""]","","check","materials/imgs/D64.png","0","true"
"","","","","","html-keyboard-response","332","333136","0.0-17.0-2.4-0.8","ubz2083nkb","","ubz2083nkb","""2024-11-12T18:51:31.053Z""","null","+","null","","","","","","",""
"","","","","","image-keyboard-response","333","334208","0.0-17.0-2.4-1.8","ubz2083nkb","","ubz2083nkb","""2024-11-12T18:51:31.053Z""","1069","materials/imgs/D4.png","arrowleft","","[""materials/imgs/D52.png"",""materials/imgs/D83.png""]","false","validation","","",""
"","","","","","html-keyboard-response","334","334709","0.0-17.0-2.4-0.9","ubz2083nkb","","ubz2083nkb","""2024-11-12T18:51:31.053Z""","null","+","null","","","","","","",""
"","","","","","image-keyboard-response","335","336115","0.0-17.0-2.4-1.9","ubz2083nkb","","ubz2083nkb","""2024-11-12T18:51:31.053Z""","1403","materials/imgs/D47.png","arrowright","","[""materials/imgs/D1.png"",""materials/imgs/D52.png""]","false","validation","","",""
"","","","","","html-button-response","336","337206","0.0-18.0","ubz2083nkb","","ubz2083nkb","""2024-11-12T18:51:31.053Z""","1090","You have completed 75% of the trials. Please click 'Continue' when you are ready proceed.","0","","","","","","",""
"","","","","","html-keyboard-response","337","337707","0.0-19.0-0.0-0.0","ubz2083nkb","","ubz2083nkb","""2024-11-12T18:51:31.053Z""","null","+","null","","","","","","",""
"","","","","","image-keyboard-response","338","339315","0.0-19.0-0.0-1.0","ubz2083nkb","","ubz2083nkb","""2024-11-12T18:51:31.053Z""","1605","materials/imgs/D36.png","arrowright","","[""materials/imgs/D26.png"",""materials/imgs/D81.png""]","false","random","","",""
"","","","","","html-keyboard-response","339","339817","0.0-19.0-0.0-0.1","ubz2083nkb","","ubz2083nkb","""2024-11-12T18:51:31.053Z""","null","+","null","","","","","","",""
"","","","","","image-keyboard-response","340","341103","0.0-19.0-0.0-1.1","ubz2083nkb","","ubz2083nkb","""2024-11-12T18:51:31.053Z""","1284","materials/imgs/D101.png","arrowleft","","[""materials/imgs/D6.png"",""materials/imgs/D37.png""]","false","random","","",""
"","","","","","html-keyboard-response","341","341604","0.0-19.0-0.0-0.2","ubz2083nkb","","ubz2083nkb","""2024-11-12T18:51:31.053Z""","null","+","null","","","","","","",""
"","","","","","image-keyboard-response","342","342364","0.0-19.0-0.0-1.2","ubz2083nkb","","ubz2083nkb","""2024-11-12T18:51:31.053Z""","757","materials/imgs/D102.png","arrowright","","[""materials/imgs/D37.png"",""materials/imgs/D8.png""]","false","random","","",""
"","","","","","html-keyboard-response","343","342865","0.0-19.0-0.0-0.3","ubz2083nkb","","ubz2083nkb","""2024-11-12T18:51:31.053Z""","null","+","null","","","","","","",""
"","","","","","image-keyboard-response","344","343707","0.0-19.0-0.0-1.3","ubz2083nkb","","ubz2083nkb","""2024-11-12T18:51:31.053Z""","840","materials/imgs/D95.png","arrowright","","[""materials/imgs/D106.png"",""materials/imgs/D87.png""]","false","random","","",""
"","","","","","html-keyboard-response","345","344209","0.0-19.0-0.0-0.4","ubz2083nkb","","ubz2083nkb","""2024-11-12T18:51:31.053Z""","null","+","null","","","","","","",""
"","","","","","image-keyboard-response","346","344795","0.0-19.0-0.0-1.4","ubz2083nkb","","ubz2083nkb","""2024-11-12T18:51:31.053Z""","584","materials/imgs/D14.png","arrowleft","","[""materials/imgs/D16.png"",""materials/imgs/D105.png""]","false","random","","",""
"","","","","","html-keyboard-response","347","345297","0.0-19.0-0.0-0.5","ubz2083nkb","","ubz2083nkb","""2024-11-12T18:51:31.053Z""","null","+","null","","","","","","",""
"","","","","","image-keyboard-response","348","345873","0.0-19.0-0.0-1.5","ubz2083nkb","","ubz2083nkb","""2024-11-12T18:51:31.053Z""","573","materials/imgs/D14.png","arrowright","","[""materials/imgs/D74.png"",""materials/imgs/D51.png""]","false","random","","",""
"","","","","","html-keyboard-response","349","346375","0.0-19.0-0.0-0.6","ubz2083nkb","","ubz2083nkb","""2024-11-12T18:51:31.053Z""","null","+","null","","","","","","",""
"","","","","","image-keyboard-response","350","347255","0.0-19.0-0.0-1.6","ubz2083nkb","","ubz2083nkb","""2024-11-12T18:51:31.053Z""","878","materials/imgs/D77.png","arrowright","","[""materials/imgs/D83.png"",""materials/imgs/D36.png""]","false","random","","",""
"","","","","","html-keyboard-response","351","347757","0.0-19.0-1.0-0.0","ubz2083nkb","","ubz2083nkb","""2024-11-12T18:51:31.053Z""","null","+","null","","","","","","",""
"","","","","","image-keyboard-response","352","348319","0.0-19.0-1.0-1.0","ubz2083nkb","","ubz2083nkb","""2024-11-12T18:51:31.053Z""","554","materials/imgs/D46.png","arrowleft","","[""materials/imgs/D46.png"",""materials/imgs/D26.png""]","","check","materials/imgs/D46.png","0","true"
"","","","","","html-keyboard-response","353","348821","0.0-19.0-2.0-0.0","ubz2083nkb","","ubz2083nkb","""2024-11-12T18:51:31.053Z""","null","+","null","","","","","","",""
"","","","","","image-keyboard-response","354","349730","0.0-19.0-2.0-1.0","ubz2083nkb","","ubz2083nkb","""2024-11-12T18:51:31.053Z""","907","materials/imgs/D57.png","arrowright","","[""materials/imgs/D111.png"",""materials/imgs/D4.png""]","false","validation","","",""
"","","","","","html-keyboard-response","355","350231","0.0-19.0-2.0-0.1","ubz2083nkb","","ubz2083nkb","""2024-11-12T18:51:31.053Z""","null","+","null","","","","","","",""
"","","","","","image-keyboard-response","356","350947","0.0-19.0-2.0-1.1","ubz2083nkb","","ubz2083nkb","""2024-11-12T18:51:31.053Z""","713","materials/imgs/D25.png","arrowright","","[""materials/imgs/D103.png"",""materials/imgs/D64.png""]","false","validation","","",""
"","","","","","html-keyboard-response","357","351448","0.0-19.0-0.1-0.7","ubz2083nkb","","ubz2083nkb","""2024-11-12T18:51:31.053Z""","null","+","null","","","","","","",""
"","","","","","image-keyboard-response","358","354136","0.0-19.0-0.1-1.7","ubz2083nkb","","ubz2083nkb","""2024-11-12T18:51:31.053Z""","2685","materials/imgs/D68.png","arrowright","","[""materials/imgs/D3.png"",""materials/imgs/D26.png""]","false","random","","",""
"","","","","","html-keyboard-response","359","354637","0.0-19.0-0.1-0.8","ubz2083nkb","","ubz2083nkb","""2024-11-12T18:51:31.053Z""","null","+","null","","","","","","",""
"","","","","","image-keyboard-response","360","355949","0.0-19.0-0.1-1.8","ubz2083nkb","","ubz2083nkb","""2024-11-12T18:51:31.053Z""","1309","materials/imgs/D87.png","arrowright","","[""materials/imgs/D80.png"",""materials/imgs/D82.png""]","false","random","","",""
"","","","","","html-keyboard-response","361","356450","0.0-19.0-0.1-0.9","ubz2083nkb","","ubz2083nkb","""2024-11-12T18:51:31.053Z""","null","+","null","","","","","","",""
"","","","","","image-keyboard-response","362","357902","0.0-19.0-0.1-1.9","ubz2083nkb","","ubz2083nkb","""2024-11-12T18:51:31.053Z""","1450","materials/imgs/D36.png","arrowleft","","[""materials/imgs/D21.png"",""materials/imgs/D92.png""]","false","random","","",""
"","","","","","html-keyboard-response","363","358403","0.0-19.0-0.1-0.10","ubz2083nkb","","ubz2083nkb","""2024-11-12T18:51:31.053Z""","null","+","null","","","","","","",""
"","","","","","image-keyboard-response","364","359386","0.0-19.0-0.1-1.10","ubz2083nkb","","ubz2083nkb","""2024-11-12T18:51:31.053Z""","981","materials/imgs/D66.png","arrowright","","[""materials/imgs/D81.png"",""materials/imgs/D102.png""]","false","random","","",""
"","","","","","html-keyboard-response","365","359888","0.0-19.0-0.1-0.11","ubz2083nkb","","ubz2083nkb","""2024-11-12T18:51:31.053Z""","null","+","null","","","","","","",""
"","","","","","image-keyboard-response","366","361240","0.0-19.0-0.1-1.11","ubz2083nkb","","ubz2083nkb","""2024-11-12T18:51:31.053Z""","1350","materials/imgs/D65.png","arrowright","","[""materials/imgs/D4.png"",""materials/imgs/D101.png""]","false","random","","",""
"","","","","","html-keyboard-response","367","361741","0.0-19.0-0.1-0.12","ubz2083nkb","","ubz2083nkb","""2024-11-12T18:51:31.053Z""","null","+","null","","","","","","",""
"","","","","","image-keyboard-response","368","363404","0.0-19.0-0.1-1.12","ubz2083nkb","","ubz2083nkb","""2024-11-12T18:51:31.053Z""","1660","materials/imgs/D92.png","arrowleft","","[""materials/imgs/D101.png"",""materials/imgs/D46.png""]","false","random","","",""
"","","","","","html-keyboard-response","369","363905","0.0-19.0-0.1-0.13","ubz2083nkb","","ubz2083nkb","""2024-11-12T18:51:31.053Z""","null","+","null","","","","","","",""
"","","","","","image-keyboard-response","370","365636","0.0-19.0-0.1-1.13","ubz2083nkb","","ubz2083nkb","""2024-11-12T18:51:31.053Z""","1728","materials/imgs/D101.png","arrowright","","[""materials/imgs/D95.png"",""materials/imgs/D57.png""]","false","random","","",""
"","","","","","html-keyboard-response","371","366137","0.0-19.0-1.1-0.1","ubz2083nkb","","ubz2083nkb","""2024-11-12T18:51:31.053Z""","null","+","null","","","","","","",""
"","","","","","image-keyboard-response","372","366809","0.0-19.0-1.1-1.1","ubz2083nkb","","ubz2083nkb","""2024-11-12T18:51:31.053Z""","670","materials/imgs/D78.png","arrowright","","[""materials/imgs/D76.png"",""materials/imgs/D78.png""]","","check","materials/imgs/D78.png","1","true"
"","","","","","html-keyboard-response","373","367312","0.0-19.0-2.1-0.2","ubz2083nkb","","ubz2083nkb","""2024-11-12T18:51:31.053Z""","null","+","null","","","","","","",""
"","","","","","image-keyboard-response","374","368136","0.0-19.0-2.1-1.2","ubz2083nkb","","ubz2083nkb","""2024-11-12T18:51:31.053Z""","822","materials/imgs/D81.png","arrowright","","[""materials/imgs/D105.png"",""materials/imgs/D24.png""]","false","validation","","",""
"","","","","","html-keyboard-response","375","368637","0.0-19.0-2.1-0.3","ubz2083nkb","","ubz2083nkb","""2024-11-12T18:51:31.053Z""","null","+","null","","","","","","",""
"","","","","","image-keyboard-response","376","369329","0.0-19.0-2.1-1.3","ubz2083nkb","","ubz2083nkb","""2024-11-12T18:51:31.053Z""","689","materials/imgs/D105.png","arrowleft","","[""materials/imgs/D106.png"",""materials/imgs/D52.png""]","false","validation","","",""
"","","","","","html-keyboard-response","377","369830","0.0-19.0-0.2-0.14","ubz2083nkb","","ubz2083nkb","""2024-11-12T18:51:31.053Z""","null","+","null","","","","","","",""
"","","","","","image-keyboard-response","378","370663","0.0-19.0-0.2-1.14","ubz2083nkb","","ubz2083nkb","""2024-11-12T18:51:31.053Z""","830","materials/imgs/D78.png","arrowleft","","[""materials/imgs/D34.png"",""materials/imgs/D4.png""]","false","random","","",""
"","","","","","html-keyboard-response","379","371165","0.0-19.0-0.2-0.15","ubz2083nkb","","ubz2083nkb","""2024-11-12T18:51:31.053Z""","null","+","null","","","","","","",""
"","","","","","image-keyboard-response","380","371812","0.0-19.0-0.2-1.15","ubz2083nkb","","ubz2083nkb","""2024-11-12T18:51:31.053Z""","645","materials/imgs/D76.png","arrowright","","[""materials/imgs/D55.png"",""materials/imgs/D81.png""]","false","random","","",""
"","","","","","html-keyboard-response","381","372313","0.0-19.0-0.2-0.16","ubz2083nkb","","ubz2083nkb","""2024-11-12T18:51:31.053Z""","null","+","null","","","","","","",""
"","","","","","image-keyboard-response","382","373145","0.0-19.0-0.2-1.16","ubz2083nkb","","ubz2083nkb","""2024-11-12T18:51:31.053Z""","830","materials/imgs/D65.png","arrowright","","[""materials/imgs/D68.png"",""materials/imgs/D87.png""]","false","random","","",""
"","","","","","html-keyboard-response","383","373647","0.0-19.0-0.2-0.17","ubz2083nkb","","ubz2083nkb","""2024-11-12T18:51:31.053Z""","null","+","null","","","","","","",""
"","","","","","image-keyboard-response","384","374190","0.0-19.0-0.2-1.17","ubz2083nkb","","ubz2083nkb","""2024-11-12T18:51:31.053Z""","540","materials/imgs/D102.png","arrowleft","","[""materials/imgs/D92.png"",""materials/imgs/D103.png""]","false","random","","",""
"","","","","","html-keyboard-response","385","374691","0.0-19.0-0.2-0.18","ubz2083nkb","","ubz2083nkb","""2024-11-12T18:51:31.053Z""","null","+","null","","","","","","",""
"","","","","","image-keyboard-response","386","375494","0.0-19.0-0.2-1.18","ubz2083nkb","","ubz2083nkb","""2024-11-12T18:51:31.053Z""","800","materials/imgs/D95.png","arrowleft","","[""materials/imgs/D22.png"",""materials/imgs/D6.png""]","false","random","","",""
"","","","","","html-keyboard-response","387","375995","0.0-19.0-0.2-0.19","ubz2083nkb","","ubz2083nkb","""2024-11-12T18:51:31.053Z""","null","+","null","","","","","","",""
"","","","","","image-keyboard-response","388","377620","0.0-19.0-0.2-1.19","ubz2083nkb","","ubz2083nkb","""2024-11-12T18:51:31.053Z""","1623","materials/imgs/D66.png","arrowleft","","[""materials/imgs/D32.png"",""materials/imgs/D80.png""]","false","random","","",""
"","","","","","html-keyboard-response","389","378121","0.0-19.0-0.2-0.20","ubz2083nkb","","ubz2083nkb","""2024-11-12T18:51:31.053Z""","null","+","null","","","","","","",""
"","","","","","image-keyboard-response","390","379312","0.0-19.0-0.2-1.20","ubz2083nkb","","ubz2083nkb","""2024-11-12T18:51:31.053Z""","1189","materials/imgs/D80.png","arrowleft","","[""materials/imgs/D21.png"",""materials/imgs/D65.png""]","false","random","","",""
"","","","","","html-keyboard-response","391","379814","0.0-19.0-1.2-0.2","ubz2083nkb","","ubz2083nkb","""2024-11-12T18:51:31.053Z""","null","+","null","","","","","","",""
"","","","","","image-keyboard-response","392","380596","0.0-19.0-1.2-1.2","ubz2083nkb","","ubz2083nkb","""2024-11-12T18:51:31.053Z""","780","materials/imgs/D101.png","arrowright","","[""materials/imgs/D106.png"",""materials/imgs/D101.png""]","","check","materials/imgs/D101.png","1","true"
"","","","","","html-keyboard-response","393","381098","0.0-19.0-2.2-0.4","ubz2083nkb","","ubz2083nkb","""2024-11-12T18:51:31.053Z""","null","+","null","","","","","","",""
"","","","","","image-keyboard-response","394","381962","0.0-19.0-2.2-1.4","ubz2083nkb","","ubz2083nkb","""2024-11-12T18:51:31.053Z""","862","materials/imgs/D24.png","arrowleft","","[""materials/imgs/D36.png"",""materials/imgs/D8.png""]","false","validation","","",""
"","","","","","html-keyboard-response","395","382463","0.0-19.0-2.2-0.5","ubz2083nkb","","ubz2083nkb","""2024-11-12T18:51:31.053Z""","null","+","null","","","","","","",""
"","","","","","image-keyboard-response","396","383407","0.0-19.0-2.2-1.5","ubz2083nkb","","ubz2083nkb","""2024-11-12T18:51:31.053Z""","942","materials/imgs/D83.png","arrowleft","","[""materials/imgs/D24.png"",""materials/imgs/D8.png""]","false","validation","","",""
"","","","","","html-keyboard-response","397","383909","0.0-19.0-0.3-0.21","ubz2083nkb","","ubz2083nkb","""2024-11-12T18:51:31.053Z""","null","+","null","","","","","","",""
"","","","","","image-keyboard-response","398","385541","0.0-19.0-0.3-1.21","ubz2083nkb","","ubz2083nkb","""2024-11-12T18:51:31.053Z""","1630","materials/imgs/D22.png","arrowleft","","[""materials/imgs/D53.png"",""materials/imgs/D77.png""]","false","random","","",""
"","","","","","html-keyboard-response","399","386042","0.0-19.0-0.3-0.22","ubz2083nkb","","ubz2083nkb","""2024-11-12T18:51:31.053Z""","null","+","null","","","","","","",""
"","","","","","image-keyboard-response","400","387087","0.0-19.0-0.3-1.22","ubz2083nkb","","ubz2083nkb","""2024-11-12T18:51:31.053Z""","1042","materials/imgs/D17.png","arrowleft","","[""materials/imgs/D77.png"",""materials/imgs/D94.png""]","false","random","","",""
"","","","","","html-keyboard-response","401","387589","0.0-19.0-0.3-0.23","ubz2083nkb","","ubz2083nkb","""2024-11-12T18:51:31.053Z""","null","+","null","","","","","","",""
"","","","","","image-keyboard-response","402","388809","0.0-19.0-0.3-1.23","ubz2083nkb","","ubz2083nkb","""2024-11-12T18:51:31.053Z""","1218","materials/imgs/D106.png","arrowright","","[""materials/imgs/D49.png"",""materials/imgs/D53.png""]","false","random","","",""
"","","","","","html-keyboard-response","403","389311","0.0-19.0-0.3-0.24","ubz2083nkb","","ubz2083nkb","""2024-11-12T18:51:31.053Z""","null","+","null","","","","","","",""
"","","","","","image-keyboard-response","404","390125","0.0-19.0-0.3-1.24","ubz2083nkb","","ubz2083nkb","""2024-11-12T18:51:31.053Z""","812","materials/imgs/D25.png","arrowright","","[""materials/imgs/D79.png"",""materials/imgs/D94.png""]","false","random","","",""
"","","","","","html-keyboard-response","405","390626","0.0-19.0-0.3-0.25","ubz2083nkb","","ubz2083nkb","""2024-11-12T18:51:31.053Z""","null","+","null","","","","","","",""
"","","","","","image-keyboard-response","406","391761","0.0-19.0-0.3-1.25","ubz2083nkb","","ubz2083nkb","""2024-11-12T18:51:31.053Z""","1133","materials/imgs/D52.png","arrowright","","[""materials/imgs/D74.png"",""materials/imgs/D20.png""]","false","random","","",""
"","","","","","html-keyboard-response","407","392263","0.0-19.0-0.3-0.26","ubz2083nkb","","ubz2083nkb","""2024-11-12T18:51:31.053Z""","null","+","null","","","","","","",""
"","","","","","image-keyboard-response","408","393670","0.0-19.0-0.3-1.26","ubz2083nkb","","ubz2083nkb","""2024-11-12T18:51:31.053Z""","1405","materials/imgs/D102.png","arrowright","","[""materials/imgs/D77.png"",""materials/imgs/D95.png""]","false","random","","",""
"","","","","","html-keyboard-response","409","394171","0.0-19.0-0.3-0.27","ubz2083nkb","","ubz2083nkb","""2024-11-12T18:51:31.053Z""","null","+","null","","","","","","",""
"","","","","","image-keyboard-response","410","394997","0.0-19.0-0.3-1.27","ubz2083nkb","","ubz2083nkb","""2024-11-12T18:51:31.053Z""","823","materials/imgs/D36.png","arrowleft","","[""materials/imgs/D6.png"",""materials/imgs/D111.png""]","false","random","","",""
"","","","","","html-keyboard-response","411","395499","0.0-19.0-1.3-0.3","ubz2083nkb","","ubz2083nkb","""2024-11-12T18:51:31.053Z""","null","+","null","","","","","","",""
"","","","","","image-keyboard-response","412","396208","0.0-19.0-1.3-1.3","ubz2083nkb","","ubz2083nkb","""2024-11-12T18:51:31.053Z""","707","materials/imgs/D106.png","arrowleft","","[""materials/imgs/D106.png"",""materials/imgs/D101.png""]","","check","materials/imgs/D106.png","0","true"
"","","","","","html-keyboard-response","413","396710","0.0-19.0-2.3-0.6","ubz2083nkb","","ubz2083nkb","""2024-11-12T18:51:31.053Z""","null","+","null","","","","","","",""
"","","","","","image-keyboard-response","414","397501","0.0-19.0-2.3-1.6","ubz2083nkb","","ubz2083nkb","""2024-11-12T18:51:31.053Z""","789","materials/imgs/D92.png","arrowright","","[""materials/imgs/D56.png"",""materials/imgs/D77.png""]","false","validation","","",""
"","","","","","html-keyboard-response","415","398003","0.0-19.0-2.3-0.7","ubz2083nkb","","ubz2083nkb","""2024-11-12T18:51:31.053Z""","null","+","null","","","","","","",""
"","","","","","image-keyboard-response","416","398688","0.0-19.0-2.3-1.7","ubz2083nkb","","ubz2083nkb","""2024-11-12T18:51:31.053Z""","683","materials/imgs/D8.png","arrowleft","","[""materials/imgs/D101.png"",""materials/imgs/D52.png""]","false","validation","","",""
"","","","","","html-keyboard-response","417","399189","0.0-19.0-0.4-0.28","ubz2083nkb","","ubz2083nkb","""2024-11-12T18:51:31.053Z""","null","+","null","","","","","","",""
"","","","","","image-keyboard-response","418","400013","0.0-19.0-0.4-1.28","ubz2083nkb","","ubz2083nkb","""2024-11-12T18:51:31.053Z""","822","materials/imgs/D66.png","arrowright","","[""materials/imgs/D87.png"",""materials/imgs/D29.png""]","false","random","","",""
"","","","","","html-keyboard-response","419","400515","0.0-19.0-0.4-0.29","ubz2083nkb","","ubz2083nkb","""2024-11-12T18:51:31.053Z""","null","+","null","","","","","","",""
"","","","","","image-keyboard-response","420","401102","0.0-19.0-0.4-1.29","ubz2083nkb","","ubz2083nkb","""2024-11-12T18:51:31.053Z""","585","materials/imgs/D22.png","arrowleft","","[""materials/imgs/D35.png"",""materials/imgs/D20.png""]","false","random","","",""
"","","","","","html-keyboard-response","421","401604","0.0-19.0-0.4-0.30","ubz2083nkb","","ubz2083nkb","""2024-11-12T18:51:31.053Z""","null","+","null","","","","","","",""
"","","","","","image-keyboard-response","422","402338","0.0-19.0-0.4-1.30","ubz2083nkb","","ubz2083nkb","""2024-11-12T18:51:31.053Z""","733","materials/imgs/D85.png","arrowright","","[""materials/imgs/D66.png"",""materials/imgs/D76.png""]","false","random","","",""
"","","","","","html-keyboard-response","423","402840","0.0-19.0-0.4-0.31","ubz2083nkb","","ubz2083nkb","""2024-11-12T18:51:31.053Z""","null","+","null","","","","","","",""
"","","","","","image-keyboard-response","424","403708","0.0-19.0-0.4-1.31","ubz2083nkb","","ubz2083nkb","""2024-11-12T18:51:31.053Z""","866","materials/imgs/D75.png","arrowright","","[""materials/imgs/D26.png"",""materials/imgs/D18.png""]","false","random","","",""
"","","","","","html-keyboard-response","425","404210","0.0-19.0-0.4-0.32","ubz2083nkb","","ubz2083nkb","""2024-11-12T18:51:31.053Z""","null","+","null","","","","","","",""
"","","","","","image-keyboard-response","426","405682","0.0-19.0-0.4-1.32","ubz2083nkb","","ubz2083nkb","""2024-11-12T18:51:31.053Z""","1470","materials/imgs/D51.png","arrowright","","[""materials/imgs/D65.png"",""materials/imgs/D29.png""]","false","random","","",""
"","","","","","html-keyboard-response","427","406183","0.0-19.0-0.4-0.33","ubz2083nkb","","ubz2083nkb","""2024-11-12T18:51:31.053Z""","null","+","null","","","","","","",""
"","","","","","image-keyboard-response","428","407452","0.0-19.0-0.4-1.33","ubz2083nkb","","ubz2083nkb","""2024-11-12T18:51:31.053Z""","1266","materials/imgs/D18.png","arrowright","","[""materials/imgs/D105.png"",""materials/imgs/D9.png""]","false","random","","",""
"","","","","","html-keyboard-response","429","407953","0.0-19.0-0.4-0.34","ubz2083nkb","","ubz2083nkb","""2024-11-12T18:51:31.053Z""","null","+","null","","","","","","",""
"","","","","","image-keyboard-response","430","409063","0.0-19.0-0.4-1.34","ubz2083nkb","","ubz2083nkb","""2024-11-12T18:51:31.053Z""","1107","materials/imgs/D105.png","arrowright","","[""materials/imgs/D66.png"",""materials/imgs/D24.png""]","false","random","","",""
"","","","","","html-keyboard-response","431","409564","0.0-19.0-1.4-0.4","ubz2083nkb","","ubz2083nkb","""2024-11-12T18:51:31.053Z""","null","+","null","","","","","","",""
"","","","","","image-keyboard-response","432","410235","0.0-19.0-1.4-1.4","ubz2083nkb","","ubz2083nkb","""2024-11-12T18:51:31.053Z""","669","materials/imgs/D64.png","arrowleft","","[""materials/imgs/D64.png"",""materials/imgs/D53.png""]","","check","materials/imgs/D64.png","0","true"
"","","","","","html-keyboard-response","433","410736","0.0-19.0-2.4-0.8","ubz2083nkb","","ubz2083nkb","""2024-11-12T18:51:31.053Z""","null","+","null","","","","","","",""
"","","","","","image-keyboard-response","434","411592","0.0-19.0-2.4-1.8","ubz2083nkb","","ubz2083nkb","""2024-11-12T18:51:31.053Z""","854","materials/imgs/D66.png","arrowright","","[""materials/imgs/D85.png"",""materials/imgs/D25.png""]","false","validation","","",""
"","","","","","html-keyboard-response","435","412094","0.0-19.0-2.4-0.9","ubz2083nkb","","ubz2083nkb","""2024-11-12T18:51:31.053Z""","null","+","null","","","","","","",""
"","","","","","image-keyboard-response","436","412713","0.0-19.0-2.4-1.9","ubz2083nkb","","ubz2083nkb","""2024-11-12T18:51:31.053Z""","617","materials/imgs/D53.png","arrowleft","","[""materials/imgs/D77.png"",""materials/imgs/D75.png""]","false","validation","","",""
