"success","timeout","failed_images","failed_audio","failed_video","trial_type","trial_index","time_elapsed","internal_node_id","subject_id","sona_id","subjectID","dateInfo","rt","stimulus","response","question_order","choices","speedy","sampleAlg","selected_image","selected_index","correct"
"true","false","[]","[]","[]","preload","0","37","0.0-0.0","uv1mfy2723","","uv1mfy2723","""2024-11-12T19:02:01.623Z""","","","","","","","","","",""
"true","","","","","fullscreen","1","2841","0.0-1.0","uv1mfy2723","","uv1mfy2723","""2024-11-12T19:02:01.623Z""","","","","","","","","","",""
"","","","","","html-keyboard-response","2","2854","0.0-2.0","uv1mfy2723","","uv1mfy2723","""2024-11-12T19:02:01.623Z""","null","","null","","","","","","",""
"","","","","","html-button-response","3","79138356","0.0-3.0","uv1mfy2723","","uv1mfy2723","""2024-11-12T19:02:01.623Z""","17724844","<div style='text-align:center; font-size:20px; line-height:25px; width: 1200px;'>
                Welcome to our experiment! <br>
                <br>At the bottom of this screen, you will see a button that says 'Begin Experiment.
                <br>Please only click that button when you are ready to complete the 25 minute experiment in one sitting. <br>
                <br> Once you click that button, it will not be possible to restart the experiment. <br><br>","0","","","","","","",""
"true","","","","","fullscreen","4","79140637","0.0-4.0","uv1mfy2723","","uv1mfy2723","""2024-11-12T19:02:01.623Z""","","","","","","","","","",""
"","","","","","survey-multi-select","5","79145136","0.0-5.0","uv1mfy2723","","uv1mfy2723","""2024-11-12T19:02:01.623Z""","4493","","{""Consent"":[""<strong>I consent</strong>""]}","[0]","","","","","",""
"","","","","","html-button-response","6","79147619","0.0-6.0","uv1mfy2723","","uv1mfy2723","""2024-11-12T19:02:01.623Z""","2478","Welcome! <p> This experiment involves two parts: demographic information, followed by the experimental task.<p> It will take about 25 minutes to complete both parts.","0","","","","","","",""
"","","","","","survey-text","7","80709682","0.0-7.0","uv1mfy2723","","uv1mfy2723","""2024-11-12T19:02:01.623Z""","1562066","","{""Age"":""18"",""Gender"":""Female"",""Race/ethnicity"":""White""}","","","","","","",""
"","","","","","html-button-response","8","80716346","0.0-8.0","uv1mfy2723","","uv1mfy2723","""2024-11-12T19:02:01.623Z""","6663","<div style='text-align: center;'>
      <p>In each trial of this task, you will see three texture images: one target item on top, and two choices beneath the target item.</p>
      <p><strong>Please select the item that is most like the target item.</strong></p>
      <p>To select the option on the <strong>LEFT</strong>, press the <strong>LEFT ARROW</strong> key. 
      To select the option on the <strong>RIGHT</strong>, press the <strong>RIGHT ARROW</strong> key.</p>
                  <!-- Target Image at the Top -->
      <div style='margin: 20px;'>
        <img src='materials/imgs/instruction_images/InstructionImg1D78.png' alt='Target Image' style='width:200px; height:auto;' />
        <p><em>Target Image</em></p>
      </div>

      <!-- Two Choice Images Below -->
      <div style='display: flex; justify-content: center;'>
        <div style='margin-right: 50px;'>
          <img src='materials/imgs/instruction_images/InstructionImg2D34.png' alt='Choice Image 1' style='width:150px; height:auto;' />
          <p><em><strong>LEFT ARROW</strong></em></p>
        </div>
        <div style='margin-left: 50px;'>
          <img src='materials/imgs/instruction_images/InstructionImg3D80.png' alt='Choice Image 2' style='width:150px; height:auto;' />
          <p><em><strong>RIGHT ARROW</strong></em></p>
        </div>
      </div>
    </div>

      <p>When you are ready to proceed, please click 'Continue' to begin practice.</p>","0","","","","","","",""
"","","","","","html-keyboard-response","9","80718850","0.0-9.0","uv1mfy2723","","uv1mfy2723","""2024-11-12T19:02:01.623Z""","null","+","null","","","","","","",""
"","","","","","html-keyboard-response","10","80719352","0.0-10.0-0.0-0.0","uv1mfy2723","","uv1mfy2723","""2024-11-12T19:02:01.623Z""","null","+","null","","","","","","",""
"","","","","","image-keyboard-response","11","80733893","0.0-10.0-0.0-1.0","uv1mfy2723","","uv1mfy2723","""2024-11-12T19:02:01.623Z""","14534","materials/imgs/D106.png","arrowright","","[""materials/imgs/D84.png"",""materials/imgs/D18.png""]","false","random","","",""
"","","","","","html-keyboard-response","12","80734395","0.0-10.0-0.0-0.1","uv1mfy2723","","uv1mfy2723","""2024-11-12T19:02:01.623Z""","null","+","null","","","","","","",""
"","","","","","image-keyboard-response","13","80742127","0.0-10.0-0.0-1.1","uv1mfy2723","","uv1mfy2723","""2024-11-12T19:02:01.623Z""","7729","materials/imgs/D48.png","arrowleft","","[""materials/imgs/D74.png"",""materials/imgs/D29.png""]","false","random","","",""
"","","","","","html-keyboard-response","14","80742628","0.0-10.0-0.0-0.2","uv1mfy2723","","uv1mfy2723","""2024-11-12T19:02:01.623Z""","null","+","null","","","","","","",""
"","","","","","image-keyboard-response","15","80743863","0.0-10.0-0.0-1.2","uv1mfy2723","","uv1mfy2723","""2024-11-12T19:02:01.623Z""","1233","materials/imgs/D53.png","arrowright","","[""materials/imgs/D26.png"",""materials/imgs/D79.png""]","false","random","","",""
"","","","","","html-keyboard-response","16","80744365","0.0-10.0-0.0-0.3","uv1mfy2723","","uv1mfy2723","""2024-11-12T19:02:01.623Z""","null","+","null","","","","","","",""
"","","","","","image-keyboard-response","17","80745860","0.0-10.0-0.0-1.3","uv1mfy2723","","uv1mfy2723","""2024-11-12T19:02:01.623Z""","1493","materials/imgs/D22.png","arrowright","","[""materials/imgs/D18.png"",""materials/imgs/D104.png""]","false","random","","",""
"","","","","","html-keyboard-response","18","80746362","0.0-10.0-0.0-0.4","uv1mfy2723","","uv1mfy2723","""2024-11-12T19:02:01.623Z""","null","+","null","","","","","","",""
"","","","","","image-keyboard-response","19","80749123","0.0-10.0-0.0-1.4","uv1mfy2723","","uv1mfy2723","""2024-11-12T19:02:01.623Z""","2759","materials/imgs/D104.png","arrowleft","","[""materials/imgs/D81.png"",""materials/imgs/D17.png""]","false","random","","",""
"","","","","","html-keyboard-response","20","80749624","0.0-10.0-0.0-0.5","uv1mfy2723","","uv1mfy2723","""2024-11-12T19:02:01.623Z""","null","+","null","","","","","","",""
"","","","","","image-keyboard-response","21","80750930","0.0-10.0-0.0-1.5","uv1mfy2723","","uv1mfy2723","""2024-11-12T19:02:01.623Z""","1304","materials/imgs/D94.png","arrowright","","[""materials/imgs/D17.png"",""materials/imgs/D49.png""]","false","random","","",""
"","","","","","html-keyboard-response","22","80751431","0.0-10.0-0.0-0.6","uv1mfy2723","","uv1mfy2723","""2024-11-12T19:02:01.623Z""","null","+","null","","","","","","",""
"","","","","","image-keyboard-response","23","80753705","0.0-10.0-0.0-1.6","uv1mfy2723","","uv1mfy2723","""2024-11-12T19:02:01.623Z""","2271","materials/imgs/D64.png","arrowleft","","[""materials/imgs/D102.png"",""materials/imgs/D48.png""]","false","random","","",""
"","","","","","html-keyboard-response","24","80754206","0.0-10.0-0.0-0.7","uv1mfy2723","","uv1mfy2723","""2024-11-12T19:02:01.623Z""","null","+","null","","","","","","",""
"","","","","","image-keyboard-response","25","80755545","0.0-10.0-0.0-1.7","uv1mfy2723","","uv1mfy2723","""2024-11-12T19:02:01.623Z""","1337","materials/imgs/D22.png","arrowright","","[""materials/imgs/D25.png"",""materials/imgs/D85.png""]","false","random","","",""
"","","","","","html-keyboard-response","26","80756046","0.0-10.0-0.0-0.8","uv1mfy2723","","uv1mfy2723","""2024-11-12T19:02:01.623Z""","null","+","null","","","","","","",""
"","","","","","image-keyboard-response","27","80757873","0.0-10.0-0.0-1.8","uv1mfy2723","","uv1mfy2723","""2024-11-12T19:02:01.623Z""","1819","materials/imgs/D22.png","arrowleft","","[""materials/imgs/D52.png"",""materials/imgs/D82.png""]","false","random","","",""
"","","","","","html-keyboard-response","28","80758374","0.0-10.0-0.0-0.9","uv1mfy2723","","uv1mfy2723","""2024-11-12T19:02:01.623Z""","null","+","null","","","","","","",""
"","","","","","image-keyboard-response","29","80759829","0.0-10.0-0.0-1.9","uv1mfy2723","","uv1mfy2723","""2024-11-12T19:02:01.623Z""","1453","materials/imgs/D56.png","arrowright","","[""materials/imgs/D46.png"",""materials/imgs/D82.png""]","false","random","","",""
"","","","","","html-button-response","30","80762846","0.0-11.0","uv1mfy2723","","uv1mfy2723","""2024-11-12T19:02:01.623Z""","3016","<p>Great job!</p>
      <p>You are now ready to begin the experiment.</p>
      <p>There will be around 200 trials. You will have opportunities to take breaks at three stages of the trials.</p>
      <p>When you are ready to begin please click 'Continue'.</p>","0","","","","","","",""
"","","","","","html-keyboard-response","31","80765350","0.0-12.0","uv1mfy2723","","uv1mfy2723","""2024-11-12T19:02:01.623Z""","null","+","null","","","","","","",""
"","","","","","html-keyboard-response","32","80765851","0.0-13.0-0.0-0.0","uv1mfy2723","","uv1mfy2723","""2024-11-12T19:02:01.623Z""","null","+","null","","","","","","",""
"","","","","","image-keyboard-response","33","80767123","0.0-13.0-0.0-1.0","uv1mfy2723","","uv1mfy2723","""2024-11-12T19:02:01.623Z""","1271","materials/imgs/D6.png","arrowright","","[""materials/imgs/D49.png"",""materials/imgs/D85.png""]","false","random","","",""
"","","","","","html-keyboard-response","34","80767625","0.0-13.0-0.0-0.1","uv1mfy2723","","uv1mfy2723","""2024-11-12T19:02:01.623Z""","null","+","null","","","","","","",""
"","","","","","image-keyboard-response","35","80768834","0.0-13.0-0.0-1.1","uv1mfy2723","","uv1mfy2723","""2024-11-12T19:02:01.623Z""","1207","materials/imgs/D35.png","arrowleft","","[""materials/imgs/D16.png"",""materials/imgs/D25.png""]","false","random","","",""
"","","","","","html-keyboard-response","36","80769335","0.0-13.0-0.0-0.2","uv1mfy2723","","uv1mfy2723","""2024-11-12T19:02:01.623Z""","null","+","null","","","","","","",""
"","","","","","image-keyboard-response","37","80770446","0.0-13.0-0.0-1.2","uv1mfy2723","","uv1mfy2723","""2024-11-12T19:02:01.623Z""","1109","materials/imgs/D9.png","arrowright","","[""materials/imgs/D49.png"",""materials/imgs/D76.png""]","false","random","","",""
"","","","","","html-keyboard-response","38","80770948","0.0-13.0-0.0-0.3","uv1mfy2723","","uv1mfy2723","""2024-11-12T19:02:01.623Z""","null","+","null","","","","","","",""
"","","","","","image-keyboard-response","39","80771830","0.0-13.0-0.0-1.3","uv1mfy2723","","uv1mfy2723","""2024-11-12T19:02:01.623Z""","880","materials/imgs/D48.png","arrowleft","","[""materials/imgs/D20.png"",""materials/imgs/D25.png""]","false","random","","",""
"","","","","","html-keyboard-response","40","80772330","0.0-13.0-0.0-0.4","uv1mfy2723","","uv1mfy2723","""2024-11-12T19:02:01.623Z""","null","+","null","","","","","","",""
"","","","","","image-keyboard-response","41","80773576","0.0-13.0-0.0-1.4","uv1mfy2723","","uv1mfy2723","""2024-11-12T19:02:01.623Z""","1243","materials/imgs/D29.png","arrowright","","[""materials/imgs/D25.png"",""materials/imgs/D46.png""]","false","random","","",""
"","","","","","html-keyboard-response","42","80774077","0.0-13.0-0.0-0.5","uv1mfy2723","","uv1mfy2723","""2024-11-12T19:02:01.623Z""","null","+","null","","","","","","",""
"","","","","","image-keyboard-response","43","80774685","0.0-13.0-0.0-1.5","uv1mfy2723","","uv1mfy2723","""2024-11-12T19:02:01.623Z""","606","materials/imgs/D17.png","arrowright","","[""materials/imgs/D111.png"",""materials/imgs/D36.png""]","false","random","","",""
"","","","","","html-keyboard-response","44","80775187","0.0-13.0-0.0-0.6","uv1mfy2723","","uv1mfy2723","""2024-11-12T19:02:01.623Z""","null","+","null","","","","","","",""
"","","","","","image-keyboard-response","45","80776252","0.0-13.0-0.0-1.6","uv1mfy2723","","uv1mfy2723","""2024-11-12T19:02:01.623Z""","1064","materials/imgs/D74.png","arrowright","","[""materials/imgs/D77.png"",""materials/imgs/D65.png""]","false","random","","",""
"","","","","","html-keyboard-response","46","80776754","0.0-13.0-1.0-0.0","uv1mfy2723","","uv1mfy2723","""2024-11-12T19:02:01.623Z""","null","+","null","","","","","","",""
"","","","","","image-keyboard-response","47","80777529","0.0-13.0-1.0-1.0","uv1mfy2723","","uv1mfy2723","""2024-11-12T19:02:01.623Z""","773","materials/imgs/D64.png","arrowleft","","[""materials/imgs/D64.png"",""materials/imgs/D53.png""]","","check","materials/imgs/D64.png","0","true"
"","","","","","html-keyboard-response","48","80778030","0.0-13.0-2.0-0.0","uv1mfy2723","","uv1mfy2723","""2024-11-12T19:02:01.623Z""","null","+","null","","","","","","",""
"","","","","","image-keyboard-response","49","80779224","0.0-13.0-2.0-1.0","uv1mfy2723","","uv1mfy2723","""2024-11-12T19:02:01.623Z""","1192","materials/imgs/D25.png","arrowright","","[""materials/imgs/D103.png"",""materials/imgs/D64.png""]","false","validation","","",""
"","","","","","html-keyboard-response","50","80779725","0.0-13.0-2.0-0.1","uv1mfy2723","","uv1mfy2723","""2024-11-12T19:02:01.623Z""","null","+","null","","","","","","",""
"","","","","","image-keyboard-response","51","80780639","0.0-13.0-2.0-1.1","uv1mfy2723","","uv1mfy2723","""2024-11-12T19:02:01.623Z""","913","materials/imgs/D32.png","arrowleft","","[""materials/imgs/D68.png"",""materials/imgs/D96.png""]","false","validation","","",""
"","","","","","html-keyboard-response","52","80781141","0.0-13.0-0.1-0.7","uv1mfy2723","","uv1mfy2723","""2024-11-12T19:02:01.623Z""","null","+","null","","","","","","",""
"","","","","","image-keyboard-response","53","80781947","0.0-13.0-0.1-1.7","uv1mfy2723","","uv1mfy2723","""2024-11-12T19:02:01.623Z""","804","materials/imgs/D17.png","arrowright","","[""materials/imgs/D32.png"",""materials/imgs/D21.png""]","false","random","","",""
"","","","","","html-keyboard-response","54","80782449","0.0-13.0-0.1-0.8","uv1mfy2723","","uv1mfy2723","""2024-11-12T19:02:01.623Z""","null","+","null","","","","","","",""
"","","","","","image-keyboard-response","55","80783413","0.0-13.0-0.1-1.8","uv1mfy2723","","uv1mfy2723","""2024-11-12T19:02:01.623Z""","963","materials/imgs/D14.png","arrowleft","","[""materials/imgs/D80.png"",""materials/imgs/D101.png""]","false","random","","",""
"","","","","","html-keyboard-response","56","80783915","0.0-13.0-0.1-0.9","uv1mfy2723","","uv1mfy2723","""2024-11-12T19:02:01.623Z""","null","+","null","","","","","","",""
"","","","","","image-keyboard-response","57","80784890","0.0-13.0-0.1-1.9","uv1mfy2723","","uv1mfy2723","""2024-11-12T19:02:01.623Z""","973","materials/imgs/D66.png","arrowright","","[""materials/imgs/D21.png"",""materials/imgs/D3.png""]","false","random","","",""
"","","","","","html-keyboard-response","58","80785391","0.0-13.0-0.1-0.10","uv1mfy2723","","uv1mfy2723","""2024-11-12T19:02:01.623Z""","null","+","null","","","","","","",""
"","","","","","image-keyboard-response","59","80787038","0.0-13.0-0.1-1.10","uv1mfy2723","","uv1mfy2723","""2024-11-12T19:02:01.623Z""","1645","materials/imgs/D65.png","arrowleft","","[""materials/imgs/D25.png"",""materials/imgs/D87.png""]","false","random","","",""
"","","","","","html-keyboard-response","60","80787540","0.0-13.0-0.1-0.11","uv1mfy2723","","uv1mfy2723","""2024-11-12T19:02:01.623Z""","null","+","null","","","","","","",""
"","","","","","image-keyboard-response","61","80788694","0.0-13.0-0.1-1.11","uv1mfy2723","","uv1mfy2723","""2024-11-12T19:02:01.623Z""","1152","materials/imgs/D8.png","arrowleft","","[""materials/imgs/D37.png"",""materials/imgs/D68.png""]","false","random","","",""
"","","","","","html-keyboard-response","62","80789195","0.0-13.0-0.1-0.12","uv1mfy2723","","uv1mfy2723","""2024-11-12T19:02:01.623Z""","null","+","null","","","","","","",""
"","","","","","image-keyboard-response","63","80790369","0.0-13.0-0.1-1.12","uv1mfy2723","","uv1mfy2723","""2024-11-12T19:02:01.623Z""","1172","materials/imgs/D17.png","arrowright","","[""materials/imgs/D57.png"",""materials/imgs/D36.png""]","false","random","","",""
"","","","","","html-keyboard-response","64","80790871","0.0-13.0-0.1-0.13","uv1mfy2723","","uv1mfy2723","""2024-11-12T19:02:01.623Z""","null","+","null","","","","","","",""
"","","","","","image-keyboard-response","65","80791629","0.0-13.0-0.1-1.13","uv1mfy2723","","uv1mfy2723","""2024-11-12T19:02:01.623Z""","756","materials/imgs/D82.png","arrowright","","[""materials/imgs/D37.png"",""materials/imgs/D17.png""]","false","random","","",""
"","","","","","html-keyboard-response","66","80792130","0.0-13.0-1.1-0.1","uv1mfy2723","","uv1mfy2723","""2024-11-12T19:02:01.623Z""","null","+","null","","","","","","",""
"","","","","","image-keyboard-response","67","80792725","0.0-13.0-1.1-1.1","uv1mfy2723","","uv1mfy2723","""2024-11-12T19:02:01.623Z""","594","materials/imgs/D26.png","arrowleft","","[""materials/imgs/D26.png"",""materials/imgs/D46.png""]","","check","materials/imgs/D26.png","0","true"
"","","","","","html-keyboard-response","68","80793226","0.0-13.0-2.1-0.2","uv1mfy2723","","uv1mfy2723","""2024-11-12T19:02:01.623Z""","null","+","null","","","","","","",""
"","","","","","image-keyboard-response","69","80794120","0.0-13.0-2.1-1.2","uv1mfy2723","","uv1mfy2723","""2024-11-12T19:02:01.623Z""","892","materials/imgs/D19.png","arrowleft","","[""materials/imgs/D111.png"",""materials/imgs/D56.png""]","false","validation","","",""
"","","","","","html-keyboard-response","70","80794621","0.0-13.0-2.1-0.3","uv1mfy2723","","uv1mfy2723","""2024-11-12T19:02:01.623Z""","null","+","null","","","","","","",""
"","","","","","image-keyboard-response","71","80795557","0.0-13.0-2.1-1.3","uv1mfy2723","","uv1mfy2723","""2024-11-12T19:02:01.623Z""","934","materials/imgs/D4.png","arrowleft","","[""materials/imgs/D52.png"",""materials/imgs/D83.png""]","false","validation","","",""
"","","","","","html-keyboard-response","72","80796057","0.0-13.0-0.2-0.14","uv1mfy2723","","uv1mfy2723","""2024-11-12T19:02:01.623Z""","null","+","null","","","","","","",""
"","","","","","image-keyboard-response","73","80796764","0.0-13.0-0.2-1.14","uv1mfy2723","","uv1mfy2723","""2024-11-12T19:02:01.623Z""","706","materials/imgs/D24.png","arrowright","","[""materials/imgs/D102.png"",""materials/imgs/D29.png""]","false","random","","",""
"","","","","","html-keyboard-response","74","80797266","0.0-13.0-0.2-0.15","uv1mfy2723","","uv1mfy2723","""2024-11-12T19:02:01.623Z""","null","+","null","","","","","","",""
"","","","","","image-keyboard-response","75","80798154","0.0-13.0-0.2-1.15","uv1mfy2723","","uv1mfy2723","""2024-11-12T19:02:01.623Z""","886","materials/imgs/D1.png","arrowleft","","[""materials/imgs/D94.png"",""materials/imgs/D76.png""]","false","random","","",""
"","","","","","html-keyboard-response","76","80798655","0.0-13.0-0.2-0.16","uv1mfy2723","","uv1mfy2723","""2024-11-12T19:02:01.623Z""","null","+","null","","","","","","",""
"","","","","","image-keyboard-response","77","80799744","0.0-13.0-0.2-1.16","uv1mfy2723","","uv1mfy2723","""2024-11-12T19:02:01.623Z""","1087","materials/imgs/D84.png","arrowleft","","[""materials/imgs/D36.png"",""materials/imgs/D64.png""]","false","random","","",""
"","","","","","html-keyboard-response","78","80800245","0.0-13.0-0.2-0.17","uv1mfy2723","","uv1mfy2723","""2024-11-12T19:02:01.623Z""","null","+","null","","","","","","",""
"","","","","","image-keyboard-response","79","80800741","0.0-13.0-0.2-1.17","uv1mfy2723","","uv1mfy2723","""2024-11-12T19:02:01.623Z""","494","materials/imgs/D92.png","arrowleft","","[""materials/imgs/D29.png"",""materials/imgs/D101.png""]","true","random","","",""
"","","","","","html-keyboard-response","80","80942945","0.0-13.0-0.2-2.17-0.17","uv1mfy2723","","uv1mfy2723","""2024-11-12T19:02:01.623Z""","142203","<p><strong>You're going too fast.</strong><p>Please slow down and assess each triplet.<p>Press 'y' to continue.</p></p>","y","","","","","","",""
"","","","","","html-keyboard-response","81","80943447","0.0-13.0-0.2-0.18","uv1mfy2723","","uv1mfy2723","""2024-11-12T19:02:01.623Z""","null","+","null","","","","","","",""
"","","","","","image-keyboard-response","82","80944534","0.0-13.0-0.2-1.18","uv1mfy2723","","uv1mfy2723","""2024-11-12T19:02:01.623Z""","1086","materials/imgs/D49.png","arrowright","","[""materials/imgs/D83.png"",""materials/imgs/D35.png""]","false","random","","",""
"","","","","","html-keyboard-response","83","80945036","0.0-13.0-0.2-0.19","uv1mfy2723","","uv1mfy2723","""2024-11-12T19:02:01.623Z""","null","+","null","","","","","","",""
"","","","","","image-keyboard-response","84","80946253","0.0-13.0-0.2-1.19","uv1mfy2723","","uv1mfy2723","""2024-11-12T19:02:01.623Z""","1215","materials/imgs/D95.png","arrowright","","[""materials/imgs/D14.png"",""materials/imgs/D87.png""]","false","random","","",""
"","","","","","html-keyboard-response","85","80946754","0.0-13.0-0.2-0.20","uv1mfy2723","","uv1mfy2723","""2024-11-12T19:02:01.623Z""","null","+","null","","","","","","",""
"","","","","","image-keyboard-response","86","80948181","0.0-13.0-0.2-1.20","uv1mfy2723","","uv1mfy2723","""2024-11-12T19:02:01.623Z""","1425","materials/imgs/D37.png","arrowleft","","[""materials/imgs/D46.png"",""materials/imgs/D25.png""]","false","random","","",""
"","","","","","html-keyboard-response","87","80948682","0.0-13.0-1.2-0.2","uv1mfy2723","","uv1mfy2723","""2024-11-12T19:02:01.623Z""","null","+","null","","","","","","",""
"","","","","","image-keyboard-response","88","80949343","0.0-13.0-1.2-1.2","uv1mfy2723","","uv1mfy2723","""2024-11-12T19:02:01.623Z""","659","materials/imgs/D53.png","arrowright","","[""materials/imgs/D64.png"",""materials/imgs/D53.png""]","","check","materials/imgs/D53.png","1","true"
"","","","","","html-keyboard-response","89","80949845","0.0-13.0-2.2-0.4","uv1mfy2723","","uv1mfy2723","""2024-11-12T19:02:01.623Z""","null","+","null","","","","","","",""
"","","","","","image-keyboard-response","90","80951412","0.0-13.0-2.2-1.4","uv1mfy2723","","uv1mfy2723","""2024-11-12T19:02:01.623Z""","1565","materials/imgs/D85.png","arrowleft","","[""materials/imgs/D6.png"",""materials/imgs/D111.png""]","false","validation","","",""
"","","","","","html-keyboard-response","91","80951913","0.0-13.0-2.2-0.5","uv1mfy2723","","uv1mfy2723","""2024-11-12T19:02:01.623Z""","null","+","null","","","","","","",""
"","","","","","image-keyboard-response","92","80953157","0.0-13.0-2.2-1.5","uv1mfy2723","","uv1mfy2723","""2024-11-12T19:02:01.623Z""","1243","materials/imgs/D16.png","arrowleft","","[""materials/imgs/D52.png"",""materials/imgs/D25.png""]","false","validation","","",""
"","","","","","html-keyboard-response","93","80953658","0.0-13.0-0.3-0.21","uv1mfy2723","","uv1mfy2723","""2024-11-12T19:02:01.623Z""","null","+","null","","","","","","",""
"","","","","","image-keyboard-response","94","80955112","0.0-13.0-0.3-1.21","uv1mfy2723","","uv1mfy2723","""2024-11-12T19:02:01.623Z""","1451","materials/imgs/D83.png","arrowleft","","[""materials/imgs/D1.png"",""materials/imgs/D37.png""]","false","random","","",""
"","","","","","html-keyboard-response","95","80955613","0.0-13.0-0.3-0.22","uv1mfy2723","","uv1mfy2723","""2024-11-12T19:02:01.623Z""","null","+","null","","","","","","",""
"","","","","","image-keyboard-response","96","80956762","0.0-13.0-0.3-1.22","uv1mfy2723","","uv1mfy2723","""2024-11-12T19:02:01.623Z""","1147","materials/imgs/D34.png","arrowleft","","[""materials/imgs/D111.png"",""materials/imgs/D16.png""]","false","random","","",""
"","","","","","html-keyboard-response","97","80957263","0.0-13.0-0.3-0.23","uv1mfy2723","","uv1mfy2723","""2024-11-12T19:02:01.623Z""","null","+","null","","","","","","",""
"","","","","","image-keyboard-response","98","80958385","0.0-13.0-0.3-1.23","uv1mfy2723","","uv1mfy2723","""2024-11-12T19:02:01.623Z""","1120","materials/imgs/D36.png","arrowleft","","[""materials/imgs/D22.png"",""materials/imgs/D55.png""]","false","random","","",""
"","","","","","html-keyboard-response","99","80958886","0.0-13.0-0.3-0.24","uv1mfy2723","","uv1mfy2723","""2024-11-12T19:02:01.623Z""","null","+","null","","","","","","",""
"","","","","","image-keyboard-response","100","80960129","0.0-13.0-0.3-1.24","uv1mfy2723","","uv1mfy2723","""2024-11-12T19:02:01.623Z""","1242","materials/imgs/D46.png","arrowright","","[""materials/imgs/D95.png"",""materials/imgs/D52.png""]","false","random","","",""
"","","","","","html-keyboard-response","101","80960631","0.0-13.0-0.3-0.25","uv1mfy2723","","uv1mfy2723","""2024-11-12T19:02:01.623Z""","null","+","null","","","","","","",""
"","","","","","image-keyboard-response","102","80963016","0.0-13.0-0.3-1.25","uv1mfy2723","","uv1mfy2723","""2024-11-12T19:02:01.623Z""","2383","materials/imgs/D105.png","arrowright","","[""materials/imgs/D56.png"",""materials/imgs/D1.png""]","false","random","","",""
"","","","","","html-keyboard-response","103","80963517","0.0-13.0-0.3-0.26","uv1mfy2723","","uv1mfy2723","""2024-11-12T19:02:01.623Z""","null","+","null","","","","","","",""
"","","","","","image-keyboard-response","104","80964269","0.0-13.0-0.3-1.26","uv1mfy2723","","uv1mfy2723","""2024-11-12T19:02:01.623Z""","750","materials/imgs/D74.png","arrowleft","","[""materials/imgs/D81.png"",""materials/imgs/D17.png""]","false","random","","",""
"","","","","","html-keyboard-response","105","80964770","0.0-13.0-0.3-0.27","uv1mfy2723","","uv1mfy2723","""2024-11-12T19:02:01.623Z""","null","+","null","","","","","","",""
"","","","","","image-keyboard-response","106","80965893","0.0-13.0-0.3-1.27","uv1mfy2723","","uv1mfy2723","""2024-11-12T19:02:01.623Z""","1121","materials/imgs/D105.png","arrowright","","[""materials/imgs/D111.png"",""materials/imgs/D53.png""]","false","random","","",""
"","","","","","html-keyboard-response","107","80966394","0.0-13.0-1.3-0.3","uv1mfy2723","","uv1mfy2723","""2024-11-12T19:02:01.623Z""","null","+","null","","","","","","",""
"","","","","","image-keyboard-response","108","80967139","0.0-13.0-1.3-1.3","uv1mfy2723","","uv1mfy2723","""2024-11-12T19:02:01.623Z""","743","materials/imgs/D101.png","arrowright","","[""materials/imgs/D106.png"",""materials/imgs/D101.png""]","","check","materials/imgs/D101.png","1","true"
"","","","","","html-keyboard-response","109","80967640","0.0-13.0-2.3-0.6","uv1mfy2723","","uv1mfy2723","""2024-11-12T19:02:01.623Z""","null","+","null","","","","","","",""
"","","","","","image-keyboard-response","110","80969870","0.0-13.0-2.3-1.6","uv1mfy2723","","uv1mfy2723","""2024-11-12T19:02:01.623Z""","2229","materials/imgs/D84.png","arrowright","","[""materials/imgs/D106.png"",""materials/imgs/D37.png""]","false","validation","","",""
"","","","","","html-keyboard-response","111","80970372","0.0-13.0-2.3-0.7","uv1mfy2723","","uv1mfy2723","""2024-11-12T19:02:01.623Z""","null","+","null","","","","","","",""
"","","","","","image-keyboard-response","112","80970971","0.0-13.0-2.3-1.7","uv1mfy2723","","uv1mfy2723","""2024-11-12T19:02:01.623Z""","598","materials/imgs/D105.png","arrowleft","","[""materials/imgs/D106.png"",""materials/imgs/D52.png""]","false","validation","","",""
"","","","","","html-keyboard-response","113","80971472","0.0-13.0-0.4-0.28","uv1mfy2723","","uv1mfy2723","""2024-11-12T19:02:01.623Z""","null","+","null","","","","","","",""
"","","","","","image-keyboard-response","114","80972390","0.0-13.0-0.4-1.28","uv1mfy2723","","uv1mfy2723","""2024-11-12T19:02:01.623Z""","916","materials/imgs/D75.png","arrowleft","","[""materials/imgs/D83.png"",""materials/imgs/D96.png""]","false","random","","",""
"","","","","","html-keyboard-response","115","80972891","0.0-13.0-0.4-0.29","uv1mfy2723","","uv1mfy2723","""2024-11-12T19:02:01.623Z""","null","+","null","","","","","","",""
"","","","","","image-keyboard-response","116","80974314","0.0-13.0-0.4-1.29","uv1mfy2723","","uv1mfy2723","""2024-11-12T19:02:01.623Z""","1420","materials/imgs/D96.png","arrowleft","","[""materials/imgs/D37.png"",""materials/imgs/D77.png""]","false","random","","",""
"","","","","","html-keyboard-response","117","80974814","0.0-13.0-0.4-0.30","uv1mfy2723","","uv1mfy2723","""2024-11-12T19:02:01.623Z""","null","+","null","","","","","","",""
"","","","","","image-keyboard-response","118","80975813","0.0-13.0-0.4-1.30","uv1mfy2723","","uv1mfy2723","""2024-11-12T19:02:01.623Z""","997","materials/imgs/D36.png","arrowleft","","[""materials/imgs/D55.png"",""materials/imgs/D24.png""]","false","random","","",""
"","","","","","html-keyboard-response","119","80976315","0.0-13.0-0.4-0.31","uv1mfy2723","","uv1mfy2723","""2024-11-12T19:02:01.623Z""","null","+","null","","","","","","",""
"","","","","","image-keyboard-response","120","80977281","0.0-13.0-0.4-1.31","uv1mfy2723","","uv1mfy2723","""2024-11-12T19:02:01.623Z""","965","materials/imgs/D48.png","arrowleft","","[""materials/imgs/D66.png"",""materials/imgs/D78.png""]","false","random","","",""
"","","","","","html-keyboard-response","121","80977782","0.0-13.0-0.4-0.32","uv1mfy2723","","uv1mfy2723","""2024-11-12T19:02:01.623Z""","null","+","null","","","","","","",""
"","","","","","image-keyboard-response","122","80979102","0.0-13.0-0.4-1.32","uv1mfy2723","","uv1mfy2723","""2024-11-12T19:02:01.623Z""","1319","materials/imgs/D102.png","arrowleft","","[""materials/imgs/D55.png"",""materials/imgs/D77.png""]","false","random","","",""
"","","","","","html-keyboard-response","123","80979604","0.0-13.0-0.4-0.33","uv1mfy2723","","uv1mfy2723","""2024-11-12T19:02:01.623Z""","null","+","null","","","","","","",""
"","","","","","image-keyboard-response","124","80980527","0.0-13.0-0.4-1.33","uv1mfy2723","","uv1mfy2723","""2024-11-12T19:02:01.623Z""","921","materials/imgs/D64.png","arrowright","","[""materials/imgs/D19.png"",""materials/imgs/D96.png""]","false","random","","",""
"","","","","","html-keyboard-response","125","80981028","0.0-13.0-0.4-0.34","uv1mfy2723","","uv1mfy2723","""2024-11-12T19:02:01.623Z""","null","+","null","","","","","","",""
"","","","","","image-keyboard-response","126","81083275","0.0-13.0-0.4-1.34","uv1mfy2723","","uv1mfy2723","""2024-11-12T19:02:01.623Z""","102245","materials/imgs/D20.png","arrowright","","[""materials/imgs/D79.png"",""materials/imgs/D78.png""]","false","random","","",""
"","","","","","html-keyboard-response","127","81083780","0.0-13.0-1.4-0.4","uv1mfy2723","","uv1mfy2723","""2024-11-12T19:02:01.623Z""","null","+","null","","","","","","",""
"","","","","","image-keyboard-response","128","81084458","0.0-13.0-1.4-1.4","uv1mfy2723","","uv1mfy2723","""2024-11-12T19:02:01.623Z""","676","materials/imgs/D46.png","arrowleft","","[""materials/imgs/D46.png"",""materials/imgs/D26.png""]","","check","materials/imgs/D46.png","0","true"
"","","","","","html-keyboard-response","129","81084959","0.0-13.0-2.4-0.8","uv1mfy2723","","uv1mfy2723","""2024-11-12T19:02:01.623Z""","null","+","null","","","","","","",""
"","","","","","image-keyboard-response","130","81085713","0.0-13.0-2.4-1.8","uv1mfy2723","","uv1mfy2723","""2024-11-12T19:02:01.623Z""","751","materials/imgs/D81.png","arrowright","","[""materials/imgs/D105.png"",""materials/imgs/D24.png""]","false","validation","","",""
"","","","","","html-keyboard-response","131","81086214","0.0-13.0-2.4-0.9","uv1mfy2723","","uv1mfy2723","""2024-11-12T19:02:01.623Z""","null","+","null","","","","","","",""
"","","","","","image-keyboard-response","132","81087969","0.0-13.0-2.4-1.9","uv1mfy2723","","uv1mfy2723","""2024-11-12T19:02:01.623Z""","1753","materials/imgs/D3.png","arrowright","","[""materials/imgs/D79.png"",""materials/imgs/D48.png""]","false","validation","","",""
"","","","","","html-button-response","133","81653663","0.0-14.0","uv1mfy2723","","uv1mfy2723","""2024-11-12T19:02:01.623Z""","565693","You have completed 25% of the trials. Please click 'Continue' when you are ready proceed.","0","","","","","","",""
"","","","","","html-keyboard-response","134","81654163","0.0-15.0-0.0-0.0","uv1mfy2723","","uv1mfy2723","""2024-11-12T19:02:01.623Z""","null","+","null","","","","","","",""
"","","","","","image-keyboard-response","135","81655535","0.0-15.0-0.0-1.0","uv1mfy2723","","uv1mfy2723","""2024-11-12T19:02:01.623Z""","1370","materials/imgs/D34.png","arrowright","","[""materials/imgs/D64.png"",""materials/imgs/D57.png""]","false","random","","",""
"","","","","","html-keyboard-response","136","81656037","0.0-15.0-0.0-0.1","uv1mfy2723","","uv1mfy2723","""2024-11-12T19:02:01.623Z""","null","+","null","","","","","","",""
"","","","","","image-keyboard-response","137","81656907","0.0-15.0-0.0-1.1","uv1mfy2723","","uv1mfy2723","""2024-11-12T19:02:01.623Z""","868","materials/imgs/D83.png","arrowleft","","[""materials/imgs/D96.png"",""materials/imgs/D68.png""]","false","random","","",""
"","","","","","html-keyboard-response","138","81657409","0.0-15.0-0.0-0.2","uv1mfy2723","","uv1mfy2723","""2024-11-12T19:02:01.623Z""","null","+","null","","","","","","",""
"","","","","","image-keyboard-response","139","81658566","0.0-15.0-0.0-1.2","uv1mfy2723","","uv1mfy2723","""2024-11-12T19:02:01.623Z""","1156","materials/imgs/D51.png","arrowleft","","[""materials/imgs/D65.png"",""materials/imgs/D95.png""]","false","random","","",""
"","","","","","html-keyboard-response","140","81659067","0.0-15.0-0.0-0.3","uv1mfy2723","","uv1mfy2723","""2024-11-12T19:02:01.623Z""","null","+","null","","","","","","",""
"","","","","","image-keyboard-response","141","81660749","0.0-15.0-0.0-1.3","uv1mfy2723","","uv1mfy2723","""2024-11-12T19:02:01.623Z""","1680","materials/imgs/D29.png","arrowright","","[""materials/imgs/D87.png"",""materials/imgs/D111.png""]","false","random","","",""
"","","","","","html-keyboard-response","142","81661250","0.0-15.0-0.0-0.4","uv1mfy2723","","uv1mfy2723","""2024-11-12T19:02:01.623Z""","null","+","null","","","","","","",""
"","","","","","image-keyboard-response","143","81663297","0.0-15.0-0.0-1.4","uv1mfy2723","","uv1mfy2723","""2024-11-12T19:02:01.623Z""","2045","materials/imgs/D36.png","arrowleft","","[""materials/imgs/D49.png"",""materials/imgs/D106.png""]","false","random","","",""
"","","","","","html-keyboard-response","144","81663799","0.0-15.0-0.0-0.5","uv1mfy2723","","uv1mfy2723","""2024-11-12T19:02:01.623Z""","null","+","null","","","","","","",""
"","","","","","image-keyboard-response","145","81664940","0.0-15.0-0.0-1.5","uv1mfy2723","","uv1mfy2723","""2024-11-12T19:02:01.623Z""","1140","materials/imgs/D79.png","arrowright","","[""materials/imgs/D32.png"",""materials/imgs/D16.png""]","false","random","","",""
"","","","","","html-keyboard-response","146","81665441","0.0-15.0-0.0-0.6","uv1mfy2723","","uv1mfy2723","""2024-11-12T19:02:01.623Z""","null","+","null","","","","","","",""
"","","","","","image-keyboard-response","147","81666258","0.0-15.0-0.0-1.6","uv1mfy2723","","uv1mfy2723","""2024-11-12T19:02:01.623Z""","815","materials/imgs/D85.png","arrowleft","","[""materials/imgs/D79.png"",""materials/imgs/D56.png""]","false","random","","",""
"","","","","","html-keyboard-response","148","81666760","0.0-15.0-1.0-0.0","uv1mfy2723","","uv1mfy2723","""2024-11-12T19:02:01.623Z""","null","+","null","","","","","","",""
"","","","","","image-keyboard-response","149","81667442","0.0-15.0-1.0-1.0","uv1mfy2723","","uv1mfy2723","""2024-11-12T19:02:01.623Z""","681","materials/imgs/D64.png","arrowleft","","[""materials/imgs/D64.png"",""materials/imgs/D53.png""]","","check","materials/imgs/D64.png","0","true"
"","","","","","html-keyboard-response","150","81667943","0.0-15.0-2.0-0.0","uv1mfy2723","","uv1mfy2723","""2024-11-12T19:02:01.623Z""","null","+","null","","","","","","",""
"","","","","","image-keyboard-response","151","81669047","0.0-15.0-2.0-1.0","uv1mfy2723","","uv1mfy2723","""2024-11-12T19:02:01.623Z""","1102","materials/imgs/D52.png","arrowright","","[""materials/imgs/D9.png"",""materials/imgs/D19.png""]","false","validation","","",""
"","","","","","html-keyboard-response","152","81669548","0.0-15.0-2.0-0.1","uv1mfy2723","","uv1mfy2723","""2024-11-12T19:02:01.623Z""","null","+","null","","","","","","",""
"","","","","","image-keyboard-response","153","81671210","0.0-15.0-2.0-1.1","uv1mfy2723","","uv1mfy2723","""2024-11-12T19:02:01.623Z""","1661","materials/imgs/D64.png","arrowleft","","[""materials/imgs/D6.png"",""materials/imgs/D81.png""]","false","validation","","",""
"","","","","","html-keyboard-response","154","81671711","0.0-15.0-0.1-0.7","uv1mfy2723","","uv1mfy2723","""2024-11-12T19:02:01.623Z""","null","+","null","","","","","","",""
"","","","","","image-keyboard-response","155","81673250","0.0-15.0-0.1-1.7","uv1mfy2723","","uv1mfy2723","""2024-11-12T19:02:01.623Z""","1537","materials/imgs/D34.png","arrowleft","","[""materials/imgs/D66.png"",""materials/imgs/D22.png""]","false","random","","",""
"","","","","","html-keyboard-response","156","81673751","0.0-15.0-0.1-0.8","uv1mfy2723","","uv1mfy2723","""2024-11-12T19:02:01.623Z""","null","+","null","","","","","","",""
"","","","","","image-keyboard-response","157","81675474","0.0-15.0-0.1-1.8","uv1mfy2723","","uv1mfy2723","""2024-11-12T19:02:01.623Z""","1721","materials/imgs/D105.png","arrowleft","","[""materials/imgs/D29.png"",""materials/imgs/D111.png""]","false","random","","",""
"","","","","","html-keyboard-response","158","81675975","0.0-15.0-0.1-0.9","uv1mfy2723","","uv1mfy2723","""2024-11-12T19:02:01.623Z""","null","+","null","","","","","","",""
"","","","","","image-keyboard-response","159","81681467","0.0-15.0-0.1-1.9","uv1mfy2723","","uv1mfy2723","""2024-11-12T19:02:01.623Z""","5490","materials/imgs/D56.png","arrowleft","","[""materials/imgs/D68.png"",""materials/imgs/D17.png""]","false","random","","",""
"","","","","","html-keyboard-response","160","81681968","0.0-15.0-0.1-0.10","uv1mfy2723","","uv1mfy2723","""2024-11-12T19:02:01.623Z""","null","+","null","","","","","","",""
"","","","","","image-keyboard-response","161","81683253","0.0-15.0-0.1-1.10","uv1mfy2723","","uv1mfy2723","""2024-11-12T19:02:01.623Z""","1283","materials/imgs/D1.png","arrowright","","[""materials/imgs/D87.png"",""materials/imgs/D14.png""]","false","random","","",""
"","","","","","html-keyboard-response","162","81683754","0.0-15.0-0.1-0.11","uv1mfy2723","","uv1mfy2723","""2024-11-12T19:02:01.623Z""","null","+","null","","","","","","",""
"","","","","","image-keyboard-response","163","81684616","0.0-15.0-0.1-1.11","uv1mfy2723","","uv1mfy2723","""2024-11-12T19:02:01.623Z""","860","materials/imgs/D87.png","arrowleft","","[""materials/imgs/D32.png"",""materials/imgs/D106.png""]","false","random","","",""
"","","","","","html-keyboard-response","164","81685118","0.0-15.0-0.1-0.12","uv1mfy2723","","uv1mfy2723","""2024-11-12T19:02:01.623Z""","null","+","null","","","","","","",""
"","","","","","image-keyboard-response","165","81686096","0.0-15.0-0.1-1.12","uv1mfy2723","","uv1mfy2723","""2024-11-12T19:02:01.623Z""","977","materials/imgs/D3.png","arrowright","","[""materials/imgs/D95.png"",""materials/imgs/D24.png""]","false","random","","",""
"","","","","","html-keyboard-response","166","81686598","0.0-15.0-0.1-0.13","uv1mfy2723","","uv1mfy2723","""2024-11-12T19:02:01.623Z""","null","+","null","","","","","","",""
"","","","","","image-keyboard-response","167","81687688","0.0-15.0-0.1-1.13","uv1mfy2723","","uv1mfy2723","""2024-11-12T19:02:01.623Z""","1089","materials/imgs/D57.png","arrowleft","","[""materials/imgs/D16.png"",""materials/imgs/D94.png""]","false","random","","",""
"","","","","","html-keyboard-response","168","81688189","0.0-15.0-1.1-0.1","uv1mfy2723","","uv1mfy2723","""2024-11-12T19:02:01.623Z""","null","+","null","","","","","","",""
"","","","","","image-keyboard-response","169","81689372","0.0-15.0-1.1-1.1","uv1mfy2723","","uv1mfy2723","""2024-11-12T19:02:01.623Z""","1182","materials/imgs/D76.png","arrowleft","","[""materials/imgs/D76.png"",""materials/imgs/D78.png""]","","check","materials/imgs/D76.png","0","true"
"","","","","","html-keyboard-response","170","81689874","0.0-15.0-2.1-0.2","uv1mfy2723","","uv1mfy2723","""2024-11-12T19:02:01.623Z""","null","+","null","","","","","","",""
"","","","","","image-keyboard-response","171","81693282","0.0-15.0-2.1-1.2","uv1mfy2723","","uv1mfy2723","""2024-11-12T19:02:01.623Z""","3407","materials/imgs/D20.png","arrowright","","[""materials/imgs/D84.png"",""materials/imgs/D85.png""]","false","validation","","",""
"","","","","","html-keyboard-response","172","81693784","0.0-15.0-2.1-0.3","uv1mfy2723","","uv1mfy2723","""2024-11-12T19:02:01.623Z""","null","+","null","","","","","","",""
"","","","","","image-keyboard-response","173","81697586","0.0-15.0-2.1-1.3","uv1mfy2723","","uv1mfy2723","""2024-11-12T19:02:01.623Z""","3802","materials/imgs/D64.png","arrowright","","[""materials/imgs/D6.png"",""materials/imgs/D81.png""]","false","validation","","",""
"","","","","","html-keyboard-response","174","81698087","0.0-15.0-0.2-0.14","uv1mfy2723","","uv1mfy2723","""2024-11-12T19:02:01.623Z""","null","+","null","","","","","","",""
"","","","","","image-keyboard-response","175","81700253","0.0-15.0-0.2-1.14","uv1mfy2723","","uv1mfy2723","""2024-11-12T19:02:01.623Z""","2164","materials/imgs/D47.png","arrowleft","","[""materials/imgs/D35.png"",""materials/imgs/D87.png""]","false","random","","",""
"","","","","","html-keyboard-response","176","81700754","0.0-15.0-0.2-0.15","uv1mfy2723","","uv1mfy2723","""2024-11-12T19:02:01.623Z""","null","+","null","","","","","","",""
"","","","","","image-keyboard-response","177","81702116","0.0-15.0-0.2-1.15","uv1mfy2723","","uv1mfy2723","""2024-11-12T19:02:01.623Z""","1361","materials/imgs/D20.png","arrowleft","","[""materials/imgs/D76.png"",""materials/imgs/D106.png""]","false","random","","",""
"","","","","","html-keyboard-response","178","81702618","0.0-15.0-0.2-0.16","uv1mfy2723","","uv1mfy2723","""2024-11-12T19:02:01.623Z""","null","+","null","","","","","","",""
"","","","","","image-keyboard-response","179","81703371","0.0-15.0-0.2-1.16","uv1mfy2723","","uv1mfy2723","""2024-11-12T19:02:01.623Z""","752","materials/imgs/D87.png","arrowleft","","[""materials/imgs/D35.png"",""materials/imgs/D75.png""]","false","random","","",""
"","","","","","html-keyboard-response","180","81703873","0.0-15.0-0.2-0.17","uv1mfy2723","","uv1mfy2723","""2024-11-12T19:02:01.623Z""","null","+","null","","","","","","",""
"","","","","","image-keyboard-response","181","81705431","0.0-15.0-0.2-1.17","uv1mfy2723","","uv1mfy2723","""2024-11-12T19:02:01.623Z""","1556","materials/imgs/D76.png","arrowleft","","[""materials/imgs/D101.png"",""materials/imgs/D92.png""]","false","random","","",""
"","","","","","html-keyboard-response","182","81705931","0.0-15.0-0.2-0.18","uv1mfy2723","","uv1mfy2723","""2024-11-12T19:02:01.623Z""","null","+","null","","","","","","",""
"","","","","","image-keyboard-response","183","81706704","0.0-15.0-0.2-1.18","uv1mfy2723","","uv1mfy2723","""2024-11-12T19:02:01.623Z""","771","materials/imgs/D77.png","arrowleft","","[""materials/imgs/D85.png"",""materials/imgs/D83.png""]","false","random","","",""
"","","","","","html-keyboard-response","184","81707206","0.0-15.0-0.2-0.19","uv1mfy2723","","uv1mfy2723","""2024-11-12T19:02:01.623Z""","null","+","null","","","","","","",""
"","","","","","image-keyboard-response","185","81708252","0.0-15.0-0.2-1.19","uv1mfy2723","","uv1mfy2723","""2024-11-12T19:02:01.623Z""","1045","materials/imgs/D74.png","arrowright","","[""materials/imgs/D25.png"",""materials/imgs/D11.png""]","false","random","","",""
"","","","","","html-keyboard-response","186","81708753","0.0-15.0-0.2-0.20","uv1mfy2723","","uv1mfy2723","""2024-11-12T19:02:01.623Z""","null","+","null","","","","","","",""
"","","","","","image-keyboard-response","187","81709749","0.0-15.0-0.2-1.20","uv1mfy2723","","uv1mfy2723","""2024-11-12T19:02:01.623Z""","994","materials/imgs/D34.png","arrowleft","","[""materials/imgs/D74.png"",""materials/imgs/D14.png""]","false","random","","",""
"","","","","","html-keyboard-response","188","81710250","0.0-15.0-1.2-0.2","uv1mfy2723","","uv1mfy2723","""2024-11-12T19:02:01.623Z""","null","+","null","","","","","","",""
"","","","","","image-keyboard-response","189","81710800","0.0-15.0-1.2-1.2","uv1mfy2723","","uv1mfy2723","""2024-11-12T19:02:01.623Z""","549","materials/imgs/D46.png","arrowleft","","[""materials/imgs/D46.png"",""materials/imgs/D26.png""]","","check","materials/imgs/D46.png","0","true"
"","","","","","html-keyboard-response","190","81711302","0.0-15.0-2.2-0.4","uv1mfy2723","","uv1mfy2723","""2024-11-12T19:02:01.623Z""","null","+","null","","","","","","",""
"","","","","","image-keyboard-response","191","81712353","0.0-15.0-2.2-1.4","uv1mfy2723","","uv1mfy2723","""2024-11-12T19:02:01.623Z""","1049","materials/imgs/D8.png","arrowleft","","[""materials/imgs/D101.png"",""materials/imgs/D52.png""]","false","validation","","",""
"","","","","","html-keyboard-response","192","81712854","0.0-15.0-2.2-0.5","uv1mfy2723","","uv1mfy2723","""2024-11-12T19:02:01.623Z""","null","+","null","","","","","","",""
"","","","","","image-keyboard-response","193","81714431","0.0-15.0-2.2-1.5","uv1mfy2723","","uv1mfy2723","""2024-11-12T19:02:01.623Z""","1576","materials/imgs/D37.png","arrowleft","","[""materials/imgs/D84.png"",""materials/imgs/D111.png""]","false","validation","","",""
"","","","","","html-keyboard-response","194","81714933","0.0-15.0-0.3-0.21","uv1mfy2723","","uv1mfy2723","""2024-11-12T19:02:01.623Z""","null","+","null","","","","","","",""
"","","","","","image-keyboard-response","195","81715856","0.0-15.0-0.3-1.21","uv1mfy2723","","uv1mfy2723","""2024-11-12T19:02:01.623Z""","921","materials/imgs/D78.png","arrowright","","[""materials/imgs/D64.png"",""materials/imgs/D36.png""]","false","random","","",""
"","","","","","html-keyboard-response","196","81716357","0.0-15.0-0.3-0.22","uv1mfy2723","","uv1mfy2723","""2024-11-12T19:02:01.623Z""","null","+","null","","","","","","",""
"","","","","","image-keyboard-response","197","81716875","0.0-15.0-0.3-1.22","uv1mfy2723","","uv1mfy2723","""2024-11-12T19:02:01.623Z""","516","materials/imgs/D14.png","arrowleft","","[""materials/imgs/D77.png"",""materials/imgs/D104.png""]","false","random","","",""
"","","","","","html-keyboard-response","198","81717377","0.0-15.0-0.3-0.23","uv1mfy2723","","uv1mfy2723","""2024-11-12T19:02:01.623Z""","null","+","null","","","","","","",""
"","","","","","image-keyboard-response","199","81719184","0.0-15.0-0.3-1.23","uv1mfy2723","","uv1mfy2723","""2024-11-12T19:02:01.623Z""","1805","materials/imgs/D32.png","arrowright","","[""materials/imgs/D36.png"",""materials/imgs/D3.png""]","false","random","","",""
"","","","","","html-keyboard-response","200","81719685","0.0-15.0-0.3-0.24","uv1mfy2723","","uv1mfy2723","""2024-11-12T19:02:01.623Z""","null","+","null","","","","","","",""
"","","","","","image-keyboard-response","201","81721901","0.0-15.0-0.3-1.24","uv1mfy2723","","uv1mfy2723","""2024-11-12T19:02:01.623Z""","2215","materials/imgs/D82.png","arrowleft","","[""materials/imgs/D29.png"",""materials/imgs/D83.png""]","false","random","","",""
"","","","","","html-keyboard-response","202","81722403","0.0-15.0-0.3-0.25","uv1mfy2723","","uv1mfy2723","""2024-11-12T19:02:01.623Z""","null","+","null","","","","","","",""
"","","","","","image-keyboard-response","203","81723515","0.0-15.0-0.3-1.25","uv1mfy2723","","uv1mfy2723","""2024-11-12T19:02:01.623Z""","1111","materials/imgs/D49.png","arrowright","","[""materials/imgs/D84.png"",""materials/imgs/D94.png""]","false","random","","",""
"","","","","","html-keyboard-response","204","81724016","0.0-15.0-0.3-0.26","uv1mfy2723","","uv1mfy2723","""2024-11-12T19:02:01.623Z""","null","+","null","","","","","","",""
"","","","","","image-keyboard-response","205","81725071","0.0-15.0-0.3-1.26","uv1mfy2723","","uv1mfy2723","""2024-11-12T19:02:01.623Z""","1053","materials/imgs/D34.png","arrowleft","","[""materials/imgs/D8.png"",""materials/imgs/D4.png""]","false","random","","",""
"","","","","","html-keyboard-response","206","81725572","0.0-15.0-0.3-0.27","uv1mfy2723","","uv1mfy2723","""2024-11-12T19:02:01.623Z""","null","+","null","","","","","","",""
"","","","","","image-keyboard-response","207","81726767","0.0-15.0-0.3-1.27","uv1mfy2723","","uv1mfy2723","""2024-11-12T19:02:01.623Z""","1192","materials/imgs/D48.png","arrowright","","[""materials/imgs/D17.png"",""materials/imgs/D57.png""]","false","random","","",""
"","","","","","html-keyboard-response","208","81727268","0.0-15.0-1.3-0.3","uv1mfy2723","","uv1mfy2723","""2024-11-12T19:02:01.623Z""","null","+","null","","","","","","",""
"","","","","","image-keyboard-response","209","81727866","0.0-15.0-1.3-1.3","uv1mfy2723","","uv1mfy2723","""2024-11-12T19:02:01.623Z""","597","materials/imgs/D46.png","arrowleft","","[""materials/imgs/D46.png"",""materials/imgs/D26.png""]","","check","materials/imgs/D46.png","0","true"
"","","","","","html-keyboard-response","210","81728368","0.0-15.0-2.3-0.6","uv1mfy2723","","uv1mfy2723","""2024-11-12T19:02:01.623Z""","null","+","null","","","","","","",""
"","","","","","image-keyboard-response","211","81729475","0.0-15.0-2.3-1.6","uv1mfy2723","","uv1mfy2723","""2024-11-12T19:02:01.623Z""","1106","materials/imgs/D25.png","arrowright","","[""materials/imgs/D103.png"",""materials/imgs/D64.png""]","false","validation","","",""
"","","","","","html-keyboard-response","212","81729977","0.0-15.0-2.3-0.7","uv1mfy2723","","uv1mfy2723","""2024-11-12T19:02:01.623Z""","null","+","null","","","","","","",""
"","","","","","image-keyboard-response","213","81730658","0.0-15.0-2.3-1.7","uv1mfy2723","","uv1mfy2723","""2024-11-12T19:02:01.623Z""","680","materials/imgs/D22.png","arrowleft","","[""materials/imgs/D4.png"",""materials/imgs/D25.png""]","false","validation","","",""
"","","","","","html-keyboard-response","214","81731159","0.0-15.0-0.4-0.28","uv1mfy2723","","uv1mfy2723","""2024-11-12T19:02:01.623Z""","null","+","null","","","","","","",""
"","","","","","image-keyboard-response","215","81731847","0.0-15.0-0.4-1.28","uv1mfy2723","","uv1mfy2723","""2024-11-12T19:02:01.623Z""","686","materials/imgs/D14.png","arrowright","","[""materials/imgs/D26.png"",""materials/imgs/D24.png""]","false","random","","",""
"","","","","","html-keyboard-response","216","81732349","0.0-15.0-0.4-0.29","uv1mfy2723","","uv1mfy2723","""2024-11-12T19:02:01.623Z""","null","+","null","","","","","","",""
"","","","","","image-keyboard-response","217","81732812","0.0-15.0-0.4-1.29","uv1mfy2723","","uv1mfy2723","""2024-11-12T19:02:01.623Z""","461","materials/imgs/D64.png","arrowleft","","[""materials/imgs/D94.png"",""materials/imgs/D52.png""]","true","random","","",""
"","","","","","html-keyboard-response","218","81737089","0.0-15.0-0.4-2.29-0.29","uv1mfy2723","","uv1mfy2723","""2024-11-12T19:02:01.623Z""","4277","<p><strong>You're going too fast.</strong><p>Please slow down and assess each triplet.<p>Press 'y' to continue.</p></p>","y","","","","","","",""
"","","","","","html-keyboard-response","219","81737591","0.0-15.0-0.4-0.30","uv1mfy2723","","uv1mfy2723","""2024-11-12T19:02:01.623Z""","null","+","null","","","","","","",""
"","","","","","image-keyboard-response","220","81739580","0.0-15.0-0.4-1.30","uv1mfy2723","","uv1mfy2723","""2024-11-12T19:02:01.623Z""","1987","materials/imgs/D104.png","arrowright","","[""materials/imgs/D25.png"",""materials/imgs/D47.png""]","false","random","","",""
"","","","","","html-keyboard-response","221","81740082","0.0-15.0-0.4-0.31","uv1mfy2723","","uv1mfy2723","""2024-11-12T19:02:01.623Z""","null","+","null","","","","","","",""
"","","","","","image-keyboard-response","222","81741036","0.0-15.0-0.4-1.31","uv1mfy2723","","uv1mfy2723","""2024-11-12T19:02:01.623Z""","953","materials/imgs/D92.png","arrowleft","","[""materials/imgs/D18.png"",""materials/imgs/D8.png""]","false","random","","",""
"","","","","","html-keyboard-response","223","81741538","0.0-15.0-0.4-0.32","uv1mfy2723","","uv1mfy2723","""2024-11-12T19:02:01.623Z""","null","+","null","","","","","","",""
"","","","","","image-keyboard-response","224","81742502","0.0-15.0-0.4-1.32","uv1mfy2723","","uv1mfy2723","""2024-11-12T19:02:01.623Z""","963","materials/imgs/D85.png","arrowleft","","[""materials/imgs/D11.png"",""materials/imgs/D104.png""]","false","random","","",""
"","","","","","html-keyboard-response","225","81743004","0.0-15.0-0.4-0.33","uv1mfy2723","","uv1mfy2723","""2024-11-12T19:02:01.623Z""","null","+","null","","","","","","",""
"","","","","","image-keyboard-response","226","81743883","0.0-15.0-0.4-1.33","uv1mfy2723","","uv1mfy2723","""2024-11-12T19:02:01.623Z""","877","materials/imgs/D105.png","arrowleft","","[""materials/imgs/D83.png"",""materials/imgs/D95.png""]","false","random","","",""
"","","","","","html-keyboard-response","227","81744385","0.0-15.0-0.4-0.34","uv1mfy2723","","uv1mfy2723","""2024-11-12T19:02:01.623Z""","null","+","null","","","","","","",""
"","","","","","image-keyboard-response","228","81745793","0.0-15.0-0.4-1.34","uv1mfy2723","","uv1mfy2723","""2024-11-12T19:02:01.623Z""","1406","materials/imgs/D106.png","arrowleft","","[""materials/imgs/D32.png"",""materials/imgs/D65.png""]","false","random","","",""
"","","","","","html-keyboard-response","229","81746294","0.0-15.0-1.4-0.4","uv1mfy2723","","uv1mfy2723","""2024-11-12T19:02:01.623Z""","null","+","null","","","","","","",""
"","","","","","image-keyboard-response","230","81746805","0.0-15.0-1.4-1.4","uv1mfy2723","","uv1mfy2723","""2024-11-12T19:02:01.623Z""","509","materials/imgs/D46.png","arrowleft","","[""materials/imgs/D46.png"",""materials/imgs/D26.png""]","","check","materials/imgs/D46.png","0","true"
"","","","","","html-keyboard-response","231","81747306","0.0-15.0-2.4-0.8","uv1mfy2723","","uv1mfy2723","""2024-11-12T19:02:01.623Z""","null","+","null","","","","","","",""
"","","","","","image-keyboard-response","232","81749174","0.0-15.0-2.4-1.8","uv1mfy2723","","uv1mfy2723","""2024-11-12T19:02:01.623Z""","1867","materials/imgs/D95.png","arrowleft","","[""materials/imgs/D36.png"",""materials/imgs/D4.png""]","false","validation","","",""
"","","","","","html-keyboard-response","233","81749675","0.0-15.0-2.4-0.9","uv1mfy2723","","uv1mfy2723","""2024-11-12T19:02:01.623Z""","null","+","null","","","","","","",""
"","","","","","image-keyboard-response","234","81750658","0.0-15.0-2.4-1.9","uv1mfy2723","","uv1mfy2723","""2024-11-12T19:02:01.623Z""","981","materials/imgs/D75.png","arrowright","","[""materials/imgs/D96.png"",""materials/imgs/D4.png""]","false","validation","","",""
"","","","","","html-button-response","235","81759696","0.0-16.0","uv1mfy2723","","uv1mfy2723","""2024-11-12T19:02:01.623Z""","9037","You have completed 50% of the trials. Please click 'Continue' when you are ready proceed.","0","","","","","","",""
"","","","","","html-keyboard-response","236","81760198","0.0-17.0-0.0-0.0","uv1mfy2723","","uv1mfy2723","""2024-11-12T19:02:01.623Z""","null","+","null","","","","","","",""
"","","","","","image-keyboard-response","237","81761240","0.0-17.0-0.0-1.0","uv1mfy2723","","uv1mfy2723","""2024-11-12T19:02:01.623Z""","1040","materials/imgs/D16.png","arrowleft","","[""materials/imgs/D84.png"",""materials/imgs/D96.png""]","false","random","","",""
"","","","","","html-keyboard-response","238","81761742","0.0-17.0-0.0-0.1","uv1mfy2723","","uv1mfy2723","""2024-11-12T19:02:01.623Z""","null","+","null","","","","","","",""
"","","","","","image-keyboard-response","239","81762913","0.0-17.0-0.0-1.1","uv1mfy2723","","uv1mfy2723","""2024-11-12T19:02:01.623Z""","1169","materials/imgs/D111.png","arrowright","","[""materials/imgs/D94.png"",""materials/imgs/D34.png""]","false","random","","",""
"","","","","","html-keyboard-response","240","81763414","0.0-17.0-0.0-0.2","uv1mfy2723","","uv1mfy2723","""2024-11-12T19:02:01.623Z""","null","+","null","","","","","","",""
"","","","","","image-keyboard-response","241","81764589","0.0-17.0-0.0-1.2","uv1mfy2723","","uv1mfy2723","""2024-11-12T19:02:01.623Z""","1172","materials/imgs/D95.png","arrowright","","[""materials/imgs/D1.png"",""materials/imgs/D96.png""]","false","random","","",""
"","","","","","html-keyboard-response","242","81765090","0.0-17.0-0.0-0.3","uv1mfy2723","","uv1mfy2723","""2024-11-12T19:02:01.623Z""","null","+","null","","","","","","",""
"","","","","","image-keyboard-response","243","81766726","0.0-17.0-0.0-1.3","uv1mfy2723","","uv1mfy2723","""2024-11-12T19:02:01.623Z""","1634","materials/imgs/D94.png","arrowleft","","[""materials/imgs/D101.png"",""materials/imgs/D19.png""]","false","random","","",""
"","","","","","html-keyboard-response","244","81767227","0.0-17.0-0.0-0.4","uv1mfy2723","","uv1mfy2723","""2024-11-12T19:02:01.623Z""","null","+","null","","","","","","",""
"","","","","","image-keyboard-response","245","81769469","0.0-17.0-0.0-1.4","uv1mfy2723","","uv1mfy2723","""2024-11-12T19:02:01.623Z""","2240","materials/imgs/D8.png","arrowright","","[""materials/imgs/D26.png"",""materials/imgs/D11.png""]","false","random","","",""
"","","","","","html-keyboard-response","246","81769970","0.0-17.0-0.0-0.5","uv1mfy2723","","uv1mfy2723","""2024-11-12T19:02:01.623Z""","null","+","null","","","","","","",""
"","","","","","image-keyboard-response","247","81771020","0.0-17.0-0.0-1.5","uv1mfy2723","","uv1mfy2723","""2024-11-12T19:02:01.623Z""","1048","materials/imgs/D22.png","arrowleft","","[""materials/imgs/D55.png"",""materials/imgs/D85.png""]","false","random","","",""
"","","","","","html-keyboard-response","248","81771521","0.0-17.0-0.0-0.6","uv1mfy2723","","uv1mfy2723","""2024-11-12T19:02:01.623Z""","null","+","null","","","","","","",""
"","","","","","image-keyboard-response","249","81772490","0.0-17.0-0.0-1.6","uv1mfy2723","","uv1mfy2723","""2024-11-12T19:02:01.623Z""","968","materials/imgs/D47.png","arrowleft","","[""materials/imgs/D52.png"",""materials/imgs/D78.png""]","false","random","","",""
"","","","","","html-keyboard-response","250","81772991","0.0-17.0-1.0-0.0","uv1mfy2723","","uv1mfy2723","""2024-11-12T19:02:01.623Z""","null","+","null","","","","","","",""
"","","","","","image-keyboard-response","251","81773554","0.0-17.0-1.0-1.0","uv1mfy2723","","uv1mfy2723","""2024-11-12T19:02:01.623Z""","562","materials/imgs/D8.png","arrowright","","[""materials/imgs/D18.png"",""materials/imgs/D8.png""]","","check","materials/imgs/D8.png","1","true"
"","","","","","html-keyboard-response","252","81774056","0.0-17.0-2.0-0.0","uv1mfy2723","","uv1mfy2723","""2024-11-12T19:02:01.623Z""","null","+","null","","","","","","",""
"","","","","","image-keyboard-response","253","81775029","0.0-17.0-2.0-1.0","uv1mfy2723","","uv1mfy2723","""2024-11-12T19:02:01.623Z""","972","materials/imgs/D32.png","arrowleft","","[""materials/imgs/D68.png"",""materials/imgs/D96.png""]","false","validation","","",""
"","","","","","html-keyboard-response","254","81775531","0.0-17.0-2.0-0.1","uv1mfy2723","","uv1mfy2723","""2024-11-12T19:02:01.623Z""","null","+","null","","","","","","",""
"","","","","","image-keyboard-response","255","81776558","0.0-17.0-2.0-1.1","uv1mfy2723","","uv1mfy2723","""2024-11-12T19:02:01.623Z""","1026","materials/imgs/D65.png","arrowleft","","[""materials/imgs/D4.png"",""materials/imgs/D16.png""]","false","validation","","",""
"","","","","","html-keyboard-response","256","81777059","0.0-17.0-0.1-0.7","uv1mfy2723","","uv1mfy2723","""2024-11-12T19:02:01.623Z""","null","+","null","","","","","","",""
"","","","","","image-keyboard-response","257","81778526","0.0-17.0-0.1-1.7","uv1mfy2723","","uv1mfy2723","""2024-11-12T19:02:01.623Z""","1466","materials/imgs/D26.png","arrowright","","[""materials/imgs/D77.png"",""materials/imgs/D47.png""]","false","random","","",""
"","","","","","html-keyboard-response","258","81779028","0.0-17.0-0.1-0.8","uv1mfy2723","","uv1mfy2723","""2024-11-12T19:02:01.623Z""","null","+","null","","","","","","",""
"","","","","","image-keyboard-response","259","81780200","0.0-17.0-0.1-1.8","uv1mfy2723","","uv1mfy2723","""2024-11-12T19:02:01.623Z""","1170","materials/imgs/D25.png","arrowright","","[""materials/imgs/D74.png"",""materials/imgs/D95.png""]","false","random","","",""
"","","","","","html-keyboard-response","260","81780701","0.0-17.0-0.1-0.9","uv1mfy2723","","uv1mfy2723","""2024-11-12T19:02:01.623Z""","null","+","null","","","","","","",""
"","","","","","image-keyboard-response","261","81782121","0.0-17.0-0.1-1.9","uv1mfy2723","","uv1mfy2723","""2024-11-12T19:02:01.623Z""","1414","materials/imgs/D9.png","arrowright","","[""materials/imgs/D26.png"",""materials/imgs/D56.png""]","false","random","","",""
"","","","","","html-keyboard-response","262","81782622","0.0-17.0-0.1-0.10","uv1mfy2723","","uv1mfy2723","""2024-11-12T19:02:01.623Z""","null","+","null","","","","","","",""
"","","","","","image-keyboard-response","263","81783475","0.0-17.0-0.1-1.10","uv1mfy2723","","uv1mfy2723","""2024-11-12T19:02:01.623Z""","852","materials/imgs/D92.png","arrowright","","[""materials/imgs/D85.png"",""materials/imgs/D19.png""]","false","random","","",""
"","","","","","html-keyboard-response","264","81783977","0.0-17.0-0.1-0.11","uv1mfy2723","","uv1mfy2723","""2024-11-12T19:02:01.623Z""","null","+","null","","","","","","",""
"","","","","","image-keyboard-response","265","81784970","0.0-17.0-0.1-1.11","uv1mfy2723","","uv1mfy2723","""2024-11-12T19:02:01.623Z""","992","materials/imgs/D64.png","arrowleft","","[""materials/imgs/D101.png"",""materials/imgs/D76.png""]","false","random","","",""
"","","","","","html-keyboard-response","266","81785471","0.0-17.0-0.1-0.12","uv1mfy2723","","uv1mfy2723","""2024-11-12T19:02:01.623Z""","null","+","null","","","","","","",""
"","","","","","image-keyboard-response","267","81786249","0.0-17.0-0.1-1.12","uv1mfy2723","","uv1mfy2723","""2024-11-12T19:02:01.623Z""","776","materials/imgs/D68.png","arrowleft","","[""materials/imgs/D105.png"",""materials/imgs/D66.png""]","false","random","","",""
"","","","","","html-keyboard-response","268","81786750","0.0-17.0-0.1-0.13","uv1mfy2723","","uv1mfy2723","""2024-11-12T19:02:01.623Z""","null","+","null","","","","","","",""
"","","","","","image-keyboard-response","269","81788246","0.0-17.0-0.1-1.13","uv1mfy2723","","uv1mfy2723","""2024-11-12T19:02:01.623Z""","1494","materials/imgs/D80.png","arrowright","","[""materials/imgs/D11.png"",""materials/imgs/D85.png""]","false","random","","",""
"","","","","","html-keyboard-response","270","81788748","0.0-17.0-1.1-0.1","uv1mfy2723","","uv1mfy2723","""2024-11-12T19:02:01.623Z""","null","+","null","","","","","","",""
"","","","","","image-keyboard-response","271","81789253","0.0-17.0-1.1-1.1","uv1mfy2723","","uv1mfy2723","""2024-11-12T19:02:01.623Z""","504","materials/imgs/D106.png","arrowleft","","[""materials/imgs/D106.png"",""materials/imgs/D101.png""]","","check","materials/imgs/D106.png","0","true"
"","","","","","html-keyboard-response","272","81789755","0.0-17.0-2.1-0.2","uv1mfy2723","","uv1mfy2723","""2024-11-12T19:02:01.623Z""","null","+","null","","","","","","",""
"","","","","","image-keyboard-response","273","81790916","0.0-17.0-2.1-1.2","uv1mfy2723","","uv1mfy2723","""2024-11-12T19:02:01.623Z""","1160","materials/imgs/D22.png","arrowleft","","[""materials/imgs/D4.png"",""materials/imgs/D25.png""]","false","validation","","",""
"","","","","","html-keyboard-response","274","81791417","0.0-17.0-2.1-0.3","uv1mfy2723","","uv1mfy2723","""2024-11-12T19:02:01.623Z""","null","+","null","","","","","","",""
"","","","","","image-keyboard-response","275","81793055","0.0-17.0-2.1-1.3","uv1mfy2723","","uv1mfy2723","""2024-11-12T19:02:01.623Z""","1636","materials/imgs/D96.png","arrowright","","[""materials/imgs/D46.png"",""materials/imgs/D18.png""]","false","validation","","",""
"","","","","","html-keyboard-response","276","81793556","0.0-17.0-0.2-0.14","uv1mfy2723","","uv1mfy2723","""2024-11-12T19:02:01.623Z""","null","+","null","","","","","","",""
"","","","","","image-keyboard-response","277","81794271","0.0-17.0-0.2-1.14","uv1mfy2723","","uv1mfy2723","""2024-11-12T19:02:01.623Z""","713","materials/imgs/D80.png","arrowright","","[""materials/imgs/D111.png"",""materials/imgs/D104.png""]","false","random","","",""
"","","","","","html-keyboard-response","278","81794772","0.0-17.0-0.2-0.15","uv1mfy2723","","uv1mfy2723","""2024-11-12T19:02:01.623Z""","null","+","null","","","","","","",""
"","","","","","image-keyboard-response","279","81797023","0.0-17.0-0.2-1.15","uv1mfy2723","","uv1mfy2723","""2024-11-12T19:02:01.623Z""","2250","materials/imgs/D47.png","arrowright","","[""materials/imgs/D106.png"",""materials/imgs/D35.png""]","false","random","","",""
"","","","","","html-keyboard-response","280","81797525","0.0-17.0-0.2-0.16","uv1mfy2723","","uv1mfy2723","""2024-11-12T19:02:01.623Z""","null","+","null","","","","","","",""
"","","","","","image-keyboard-response","281","81798477","0.0-17.0-0.2-1.16","uv1mfy2723","","uv1mfy2723","""2024-11-12T19:02:01.623Z""","951","materials/imgs/D82.png","arrowleft","","[""materials/imgs/D76.png"",""materials/imgs/D47.png""]","false","random","","",""
"","","","","","html-keyboard-response","282","81798978","0.0-17.0-0.2-0.17","uv1mfy2723","","uv1mfy2723","""2024-11-12T19:02:01.623Z""","null","+","null","","","","","","",""
"","","","","","image-keyboard-response","283","81799607","0.0-17.0-0.2-1.17","uv1mfy2723","","uv1mfy2723","""2024-11-12T19:02:01.623Z""","627","materials/imgs/D77.png","arrowright","","[""materials/imgs/D52.png"",""materials/imgs/D14.png""]","false","random","","",""
"","","","","","html-keyboard-response","284","81800108","0.0-17.0-0.2-0.18","uv1mfy2723","","uv1mfy2723","""2024-11-12T19:02:01.623Z""","null","+","null","","","","","","",""
"","","","","","image-keyboard-response","285","81801381","0.0-17.0-0.2-1.18","uv1mfy2723","","uv1mfy2723","""2024-11-12T19:02:01.623Z""","1271","materials/imgs/D22.png","arrowleft","","[""materials/imgs/D66.png"",""materials/imgs/D74.png""]","false","random","","",""
"","","","","","html-keyboard-response","286","81801882","0.0-17.0-0.2-0.19","uv1mfy2723","","uv1mfy2723","""2024-11-12T19:02:01.623Z""","null","+","null","","","","","","",""
"","","","","","image-keyboard-response","287","81804828","0.0-17.0-0.2-1.19","uv1mfy2723","","uv1mfy2723","""2024-11-12T19:02:01.623Z""","2944","materials/imgs/D46.png","arrowright","","[""materials/imgs/D78.png"",""materials/imgs/D48.png""]","false","random","","",""
"","","","","","html-keyboard-response","288","81805329","0.0-17.0-0.2-0.20","uv1mfy2723","","uv1mfy2723","""2024-11-12T19:02:01.623Z""","null","+","null","","","","","","",""
"","","","","","image-keyboard-response","289","81806039","0.0-17.0-0.2-1.20","uv1mfy2723","","uv1mfy2723","""2024-11-12T19:02:01.623Z""","708","materials/imgs/D87.png","arrowright","","[""materials/imgs/D48.png"",""materials/imgs/D55.png""]","false","random","","",""
"","","","","","html-keyboard-response","290","81806539","0.0-17.0-1.2-0.2","uv1mfy2723","","uv1mfy2723","""2024-11-12T19:02:01.623Z""","null","+","null","","","","","","",""
"","","","","","image-keyboard-response","291","81807108","0.0-17.0-1.2-1.2","uv1mfy2723","","uv1mfy2723","""2024-11-12T19:02:01.623Z""","567","materials/imgs/D64.png","arrowleft","","[""materials/imgs/D64.png"",""materials/imgs/D53.png""]","","check","materials/imgs/D64.png","0","true"
"","","","","","html-keyboard-response","292","81807610","0.0-17.0-2.2-0.4","uv1mfy2723","","uv1mfy2723","""2024-11-12T19:02:01.623Z""","null","+","null","","","","","","",""
"","","","","","image-keyboard-response","293","81808320","0.0-17.0-2.2-1.4","uv1mfy2723","","uv1mfy2723","""2024-11-12T19:02:01.623Z""","709","materials/imgs/D92.png","arrowright","","[""materials/imgs/D56.png"",""materials/imgs/D77.png""]","false","validation","","",""
"","","","","","html-keyboard-response","294","81808821","0.0-17.0-2.2-0.5","uv1mfy2723","","uv1mfy2723","""2024-11-12T19:02:01.623Z""","null","+","null","","","","","","",""
"","","","","","image-keyboard-response","295","81810206","0.0-17.0-2.2-1.5","uv1mfy2723","","uv1mfy2723","""2024-11-12T19:02:01.623Z""","1383","materials/imgs/D3.png","arrowright","","[""materials/imgs/D79.png"",""materials/imgs/D48.png""]","false","validation","","",""
"","","","","","html-keyboard-response","296","81810707","0.0-17.0-0.3-0.21","uv1mfy2723","","uv1mfy2723","""2024-11-12T19:02:01.623Z""","null","+","null","","","","","","",""
"","","","","","image-keyboard-response","297","81812030","0.0-17.0-0.3-1.21","uv1mfy2723","","uv1mfy2723","""2024-11-12T19:02:01.623Z""","1321","materials/imgs/D102.png","arrowleft","","[""materials/imgs/D56.png"",""materials/imgs/D104.png""]","false","random","","",""
"","","","","","html-keyboard-response","298","81812531","0.0-17.0-0.3-0.22","uv1mfy2723","","uv1mfy2723","""2024-11-12T19:02:01.623Z""","null","+","null","","","","","","",""
"","","","","","image-keyboard-response","299","81813674","0.0-17.0-0.3-1.22","uv1mfy2723","","uv1mfy2723","""2024-11-12T19:02:01.623Z""","1142","materials/imgs/D65.png","arrowright","","[""materials/imgs/D57.png"",""materials/imgs/D11.png""]","false","random","","",""
"","","","","","html-keyboard-response","300","81814176","0.0-17.0-0.3-0.23","uv1mfy2723","","uv1mfy2723","""2024-11-12T19:02:01.623Z""","null","+","null","","","","","","",""
"","","","","","image-keyboard-response","301","81814934","0.0-17.0-0.3-1.23","uv1mfy2723","","uv1mfy2723","""2024-11-12T19:02:01.623Z""","756","materials/imgs/D4.png","arrowright","","[""materials/imgs/D47.png"",""materials/imgs/D57.png""]","false","random","","",""
"","","","","","html-keyboard-response","302","81815435","0.0-17.0-0.3-0.24","uv1mfy2723","","uv1mfy2723","""2024-11-12T19:02:01.623Z""","null","+","null","","","","","","",""
"","","","","","image-keyboard-response","303","81816705","0.0-17.0-0.3-1.24","uv1mfy2723","","uv1mfy2723","""2024-11-12T19:02:01.623Z""","1267","materials/imgs/D35.png","arrowright","","[""materials/imgs/D79.png"",""materials/imgs/D37.png""]","false","random","","",""
"","","","","","html-keyboard-response","304","81817206","0.0-17.0-0.3-0.25","uv1mfy2723","","uv1mfy2723","""2024-11-12T19:02:01.623Z""","null","+","null","","","","","","",""
"","","","","","image-keyboard-response","305","81818345","0.0-17.0-0.3-1.25","uv1mfy2723","","uv1mfy2723","""2024-11-12T19:02:01.623Z""","1137","materials/imgs/D87.png","arrowleft","","[""materials/imgs/D101.png"",""materials/imgs/D78.png""]","false","random","","",""
"","","","","","html-keyboard-response","306","81818846","0.0-17.0-0.3-0.26","uv1mfy2723","","uv1mfy2723","""2024-11-12T19:02:01.623Z""","null","+","null","","","","","","",""
"","","","","","image-keyboard-response","307","81819988","0.0-17.0-0.3-1.26","uv1mfy2723","","uv1mfy2723","""2024-11-12T19:02:01.623Z""","1140","materials/imgs/D47.png","arrowright","","[""materials/imgs/D84.png"",""materials/imgs/D103.png""]","false","random","","",""
"","","","","","html-keyboard-response","308","81820489","0.0-17.0-0.3-0.27","uv1mfy2723","","uv1mfy2723","""2024-11-12T19:02:01.623Z""","null","+","null","","","","","","",""
"","","","","","image-keyboard-response","309","81821138","0.0-17.0-0.3-1.27","uv1mfy2723","","uv1mfy2723","""2024-11-12T19:02:01.623Z""","647","materials/imgs/D80.png","arrowright","","[""materials/imgs/D11.png"",""materials/imgs/D16.png""]","false","random","","",""
"","","","","","html-keyboard-response","310","81821640","0.0-17.0-1.3-0.3","uv1mfy2723","","uv1mfy2723","""2024-11-12T19:02:01.623Z""","null","+","null","","","","","","",""
"","","","","","image-keyboard-response","311","81822859","0.0-17.0-1.3-1.3","uv1mfy2723","","uv1mfy2723","""2024-11-12T19:02:01.623Z""","1218","materials/imgs/D8.png","arrowright","","[""materials/imgs/D18.png"",""materials/imgs/D8.png""]","","check","materials/imgs/D8.png","1","true"
"","","","","","html-keyboard-response","312","81823360","0.0-17.0-2.3-0.6","uv1mfy2723","","uv1mfy2723","""2024-11-12T19:02:01.623Z""","null","+","null","","","","","","",""
"","","","","","image-keyboard-response","313","81824922","0.0-17.0-2.3-1.6","uv1mfy2723","","uv1mfy2723","""2024-11-12T19:02:01.623Z""","1561","materials/imgs/D49.png","arrowright","","[""materials/imgs/D8.png"",""materials/imgs/D101.png""]","false","validation","","",""
"","","","","","html-keyboard-response","314","81825424","0.0-17.0-2.3-0.7","uv1mfy2723","","uv1mfy2723","""2024-11-12T19:02:01.623Z""","null","+","null","","","","","","",""
"","","","","","image-keyboard-response","315","81825944","0.0-17.0-2.3-1.7","uv1mfy2723","","uv1mfy2723","""2024-11-12T19:02:01.623Z""","518","materials/imgs/D53.png","arrowleft","","[""materials/imgs/D77.png"",""materials/imgs/D75.png""]","false","validation","","",""
"","","","","","html-keyboard-response","316","81826445","0.0-17.0-0.4-0.28","uv1mfy2723","","uv1mfy2723","""2024-11-12T19:02:01.623Z""","null","+","null","","","","","","",""
"","","","","","image-keyboard-response","317","81827898","0.0-17.0-0.4-1.28","uv1mfy2723","","uv1mfy2723","""2024-11-12T19:02:01.623Z""","1451","materials/imgs/D32.png","arrowleft","","[""materials/imgs/D104.png"",""materials/imgs/D56.png""]","false","random","","",""
"","","","","","html-keyboard-response","318","81828399","0.0-17.0-0.4-0.29","uv1mfy2723","","uv1mfy2723","""2024-11-12T19:02:01.623Z""","null","+","null","","","","","","",""
"","","","","","image-keyboard-response","319","81829125","0.0-17.0-0.4-1.29","uv1mfy2723","","uv1mfy2723","""2024-11-12T19:02:01.623Z""","725","materials/imgs/D21.png","arrowleft","","[""materials/imgs/D85.png"",""materials/imgs/D66.png""]","false","random","","",""
"","","","","","html-keyboard-response","320","81829627","0.0-17.0-0.4-0.30","uv1mfy2723","","uv1mfy2723","""2024-11-12T19:02:01.623Z""","null","+","null","","","","","","",""
"","","","","","image-keyboard-response","321","81830849","0.0-17.0-0.4-1.30","uv1mfy2723","","uv1mfy2723","""2024-11-12T19:02:01.623Z""","1221","materials/imgs/D81.png","arrowleft","","[""materials/imgs/D17.png"",""materials/imgs/D53.png""]","false","random","","",""
"","","","","","html-keyboard-response","322","81831350","0.0-17.0-0.4-0.31","uv1mfy2723","","uv1mfy2723","""2024-11-12T19:02:01.623Z""","null","+","null","","","","","","",""
"","","","","","image-keyboard-response","323","81833001","0.0-17.0-0.4-1.31","uv1mfy2723","","uv1mfy2723","""2024-11-12T19:02:01.623Z""","1649","materials/imgs/D20.png","arrowleft","","[""materials/imgs/D18.png"",""materials/imgs/D64.png""]","false","random","","",""
"","","","","","html-keyboard-response","324","81833502","0.0-17.0-0.4-0.32","uv1mfy2723","","uv1mfy2723","""2024-11-12T19:02:01.623Z""","null","+","null","","","","","","",""
"","","","","","image-keyboard-response","325","81834488","0.0-17.0-0.4-1.32","uv1mfy2723","","uv1mfy2723","""2024-11-12T19:02:01.623Z""","984","materials/imgs/D46.png","arrowleft","","[""materials/imgs/D51.png"",""materials/imgs/D25.png""]","false","random","","",""
"","","","","","html-keyboard-response","326","81834990","0.0-17.0-0.4-0.33","uv1mfy2723","","uv1mfy2723","""2024-11-12T19:02:01.623Z""","null","+","null","","","","","","",""
"","","","","","image-keyboard-response","327","81835696","0.0-17.0-0.4-1.33","uv1mfy2723","","uv1mfy2723","""2024-11-12T19:02:01.623Z""","705","materials/imgs/D32.png","arrowright","","[""materials/imgs/D26.png"",""materials/imgs/D81.png""]","false","random","","",""
"","","","","","html-keyboard-response","328","81836197","0.0-17.0-0.4-0.34","uv1mfy2723","","uv1mfy2723","""2024-11-12T19:02:01.623Z""","null","+","null","","","","","","",""
"","","","","","image-keyboard-response","329","81836978","0.0-17.0-0.4-1.34","uv1mfy2723","","uv1mfy2723","""2024-11-12T19:02:01.623Z""","779","materials/imgs/D16.png","arrowleft","","[""materials/imgs/D82.png"",""materials/imgs/D95.png""]","false","random","","",""
"","","","","","html-keyboard-response","330","81837480","0.0-17.0-1.4-0.4","uv1mfy2723","","uv1mfy2723","""2024-11-12T19:02:01.623Z""","null","+","null","","","","","","",""
"","","","","","image-keyboard-response","331","81838002","0.0-17.0-1.4-1.4","uv1mfy2723","","uv1mfy2723","""2024-11-12T19:02:01.623Z""","521","materials/imgs/D53.png","arrowright","","[""materials/imgs/D64.png"",""materials/imgs/D53.png""]","","check","materials/imgs/D53.png","1","true"
"","","","","","html-keyboard-response","332","81838503","0.0-17.0-2.4-0.8","uv1mfy2723","","uv1mfy2723","""2024-11-12T19:02:01.623Z""","null","+","null","","","","","","",""
"","","","","","image-keyboard-response","333","81839527","0.0-17.0-2.4-1.8","uv1mfy2723","","uv1mfy2723","""2024-11-12T19:02:01.623Z""","1022","materials/imgs/D48.png","arrowright","","[""materials/imgs/D4.png"",""materials/imgs/D37.png""]","false","validation","","",""
"","","","","","html-keyboard-response","334","81840028","0.0-17.0-2.4-0.9","uv1mfy2723","","uv1mfy2723","""2024-11-12T19:02:01.623Z""","null","+","null","","","","","","",""
"","","","","","image-keyboard-response","335","81840578","0.0-17.0-2.4-1.9","uv1mfy2723","","uv1mfy2723","""2024-11-12T19:02:01.623Z""","548","materials/imgs/D9.png","arrowright","","[""materials/imgs/D103.png"",""materials/imgs/D4.png""]","false","validation","","",""
"","","","","","html-button-response","336","81844013","0.0-18.0","uv1mfy2723","","uv1mfy2723","""2024-11-12T19:02:01.623Z""","3434","You have completed 75% of the trials. Please click 'Continue' when you are ready proceed.","0","","","","","","",""
"","","","","","html-keyboard-response","337","81844514","0.0-19.0-0.0-0.0","uv1mfy2723","","uv1mfy2723","""2024-11-12T19:02:01.623Z""","null","+","null","","","","","","",""
"","","","","","image-keyboard-response","338","81845386","0.0-19.0-0.0-1.0","uv1mfy2723","","uv1mfy2723","""2024-11-12T19:02:01.623Z""","870","materials/imgs/D34.png","arrowright","","[""materials/imgs/D87.png"",""materials/imgs/D94.png""]","false","random","","",""
"","","","","","html-keyboard-response","339","81845887","0.0-19.0-0.0-0.1","uv1mfy2723","","uv1mfy2723","""2024-11-12T19:02:01.623Z""","null","+","null","","","","","","",""
"","","","","","image-keyboard-response","340","81853799","0.0-19.0-0.0-1.1","uv1mfy2723","","uv1mfy2723","""2024-11-12T19:02:01.623Z""","7910","materials/imgs/D16.png","arrowleft","","[""materials/imgs/D78.png"",""materials/imgs/D35.png""]","false","random","","",""
"","","","","","html-keyboard-response","341","81854300","0.0-19.0-0.0-0.2","uv1mfy2723","","uv1mfy2723","""2024-11-12T19:02:01.623Z""","null","+","null","","","","","","",""
"","","","","","image-keyboard-response","342","81855398","0.0-19.0-0.0-1.2","uv1mfy2723","","uv1mfy2723","""2024-11-12T19:02:01.623Z""","1097","materials/imgs/D20.png","arrowleft","","[""materials/imgs/D4.png"",""materials/imgs/D92.png""]","false","random","","",""
"","","","","","html-keyboard-response","343","81855899","0.0-19.0-0.0-0.3","uv1mfy2723","","uv1mfy2723","""2024-11-12T19:02:01.623Z""","null","+","null","","","","","","",""
"","","","","","image-keyboard-response","344","81856919","0.0-19.0-0.0-1.3","uv1mfy2723","","uv1mfy2723","""2024-11-12T19:02:01.623Z""","1017","materials/imgs/D102.png","arrowleft","","[""materials/imgs/D87.png"",""materials/imgs/D84.png""]","false","random","","",""
"","","","","","html-keyboard-response","345","81857419","0.0-19.0-0.0-0.4","uv1mfy2723","","uv1mfy2723","""2024-11-12T19:02:01.623Z""","null","+","null","","","","","","",""
"","","","","","image-keyboard-response","346","81858682","0.0-19.0-0.0-1.4","uv1mfy2723","","uv1mfy2723","""2024-11-12T19:02:01.623Z""","1261","materials/imgs/D35.png","arrowright","","[""materials/imgs/D1.png"",""materials/imgs/D87.png""]","false","random","","",""
"","","","","","html-keyboard-response","347","81859183","0.0-19.0-0.0-0.5","uv1mfy2723","","uv1mfy2723","""2024-11-12T19:02:01.623Z""","null","+","null","","","","","","",""
"","","","","","image-keyboard-response","348","81860248","0.0-19.0-0.0-1.5","uv1mfy2723","","uv1mfy2723","""2024-11-12T19:02:01.623Z""","1063","materials/imgs/D32.png","arrowleft","","[""materials/imgs/D105.png"",""materials/imgs/D104.png""]","false","random","","",""
"","","","","","html-keyboard-response","349","81860749","0.0-19.0-0.0-0.6","uv1mfy2723","","uv1mfy2723","""2024-11-12T19:02:01.623Z""","null","+","null","","","","","","",""
"","","","","","image-keyboard-response","350","81861465","0.0-19.0-0.0-1.6","uv1mfy2723","","uv1mfy2723","""2024-11-12T19:02:01.623Z""","714","materials/imgs/D53.png","arrowright","","[""materials/imgs/D19.png"",""materials/imgs/D68.png""]","false","random","","",""
"","","","","","html-keyboard-response","351","81861967","0.0-19.0-1.0-0.0","uv1mfy2723","","uv1mfy2723","""2024-11-12T19:02:01.623Z""","null","+","null","","","","","","",""
"","","","","","image-keyboard-response","352","81862566","0.0-19.0-1.0-1.0","uv1mfy2723","","uv1mfy2723","""2024-11-12T19:02:01.623Z""","598","materials/imgs/D106.png","arrowleft","","[""materials/imgs/D106.png"",""materials/imgs/D101.png""]","","check","materials/imgs/D106.png","0","true"
"","","","","","html-keyboard-response","353","81863067","0.0-19.0-2.0-0.0","uv1mfy2723","","uv1mfy2723","""2024-11-12T19:02:01.623Z""","null","+","null","","","","","","",""
"","","","","","image-keyboard-response","354","81864625","0.0-19.0-2.0-1.0","uv1mfy2723","","uv1mfy2723","""2024-11-12T19:02:01.623Z""","1556","materials/imgs/D77.png","arrowright","","[""materials/imgs/D102.png"",""materials/imgs/D65.png""]","false","validation","","",""
"","","","","","html-keyboard-response","355","81865126","0.0-19.0-2.0-0.1","uv1mfy2723","","uv1mfy2723","""2024-11-12T19:02:01.623Z""","null","+","null","","","","","","",""
"","","","","","image-keyboard-response","356","81865864","0.0-19.0-2.0-1.1","uv1mfy2723","","uv1mfy2723","""2024-11-12T19:02:01.623Z""","736","materials/imgs/D79.png","arrowleft","","[""materials/imgs/D51.png"",""materials/imgs/D64.png""]","false","validation","","",""
"","","","","","html-keyboard-response","357","81866366","0.0-19.0-0.1-0.7","uv1mfy2723","","uv1mfy2723","""2024-11-12T19:02:01.623Z""","null","+","null","","","","","","",""
"","","","","","image-keyboard-response","358","81867623","0.0-19.0-0.1-1.7","uv1mfy2723","","uv1mfy2723","""2024-11-12T19:02:01.623Z""","1256","materials/imgs/D37.png","arrowright","","[""materials/imgs/D75.png"",""materials/imgs/D105.png""]","false","random","","",""
"","","","","","html-keyboard-response","359","81868125","0.0-19.0-0.1-0.8","uv1mfy2723","","uv1mfy2723","""2024-11-12T19:02:01.623Z""","null","+","null","","","","","","",""
"","","","","","image-keyboard-response","360","81869160","0.0-19.0-0.1-1.8","uv1mfy2723","","uv1mfy2723","""2024-11-12T19:02:01.623Z""","1033","materials/imgs/D20.png","arrowright","","[""materials/imgs/D75.png"",""materials/imgs/D87.png""]","false","random","","",""
"","","","","","html-keyboard-response","361","81869661","0.0-19.0-0.1-0.9","uv1mfy2723","","uv1mfy2723","""2024-11-12T19:02:01.623Z""","null","+","null","","","","","","",""
"","","","","","image-keyboard-response","362","81871557","0.0-19.0-0.1-1.9","uv1mfy2723","","uv1mfy2723","""2024-11-12T19:02:01.623Z""","1894","materials/imgs/D49.png","arrowright","","[""materials/imgs/D26.png"",""materials/imgs/D57.png""]","false","random","","",""
"","","","","","html-keyboard-response","363","81872058","0.0-19.0-0.1-0.10","uv1mfy2723","","uv1mfy2723","""2024-11-12T19:02:01.623Z""","null","+","null","","","","","","",""
"","","","","","image-keyboard-response","364","81873352","0.0-19.0-0.1-1.10","uv1mfy2723","","uv1mfy2723","""2024-11-12T19:02:01.623Z""","1292","materials/imgs/D22.png","arrowleft","","[""materials/imgs/D16.png"",""materials/imgs/D94.png""]","false","random","","",""
"","","","","","html-keyboard-response","365","81873853","0.0-19.0-0.1-0.11","uv1mfy2723","","uv1mfy2723","""2024-11-12T19:02:01.623Z""","null","+","null","","","","","","",""
"","","","","","image-keyboard-response","366","81875542","0.0-19.0-0.1-1.11","uv1mfy2723","","uv1mfy2723","""2024-11-12T19:02:01.623Z""","1687","materials/imgs/D92.png","arrowleft","","[""materials/imgs/D8.png"",""materials/imgs/D20.png""]","false","random","","",""
"","","","","","html-keyboard-response","367","81876043","0.0-19.0-0.1-0.12","uv1mfy2723","","uv1mfy2723","""2024-11-12T19:02:01.623Z""","null","+","null","","","","","","",""
"","","","","","image-keyboard-response","368","81887194","0.0-19.0-0.1-1.12","uv1mfy2723","","uv1mfy2723","""2024-11-12T19:02:01.623Z""","11149","materials/imgs/D24.png","arrowleft","","[""materials/imgs/D105.png"",""materials/imgs/D64.png""]","false","random","","",""
"","","","","","html-keyboard-response","369","81887695","0.0-19.0-0.1-0.13","uv1mfy2723","","uv1mfy2723","""2024-11-12T19:02:01.623Z""","null","+","null","","","","","","",""
"","","","","","image-keyboard-response","370","81888872","0.0-19.0-0.1-1.13","uv1mfy2723","","uv1mfy2723","""2024-11-12T19:02:01.623Z""","1175","materials/imgs/D82.png","arrowright","","[""materials/imgs/D51.png"",""materials/imgs/D6.png""]","false","random","","",""
"","","","","","html-keyboard-response","371","81889373","0.0-19.0-1.1-0.1","uv1mfy2723","","uv1mfy2723","""2024-11-12T19:02:01.623Z""","null","+","null","","","","","","",""
"","","","","","image-keyboard-response","372","81889880","0.0-19.0-1.1-1.1","uv1mfy2723","","uv1mfy2723","""2024-11-12T19:02:01.623Z""","505","materials/imgs/D64.png","arrowleft","","[""materials/imgs/D64.png"",""materials/imgs/D53.png""]","","check","materials/imgs/D64.png","0","true"
"","","","","","html-keyboard-response","373","81890381","0.0-19.0-2.1-0.2","uv1mfy2723","","uv1mfy2723","""2024-11-12T19:02:01.623Z""","null","+","null","","","","","","",""
"","","","","","image-keyboard-response","374","81891538","0.0-19.0-2.1-1.2","uv1mfy2723","","uv1mfy2723","""2024-11-12T19:02:01.623Z""","1155","materials/imgs/D101.png","arrowright","","[""materials/imgs/D76.png"",""materials/imgs/D47.png""]","false","validation","","",""
"","","","","","html-keyboard-response","375","81892039","0.0-19.0-2.1-0.3","uv1mfy2723","","uv1mfy2723","""2024-11-12T19:02:01.623Z""","null","+","null","","","","","","",""
"","","","","","image-keyboard-response","376","81896027","0.0-19.0-2.1-1.3","uv1mfy2723","","uv1mfy2723","""2024-11-12T19:02:01.623Z""","3986","materials/imgs/D51.png","arrowright","","[""materials/imgs/D92.png"",""materials/imgs/D20.png""]","false","validation","","",""
"","","","","","html-keyboard-response","377","81896528","0.0-19.0-0.2-0.14","uv1mfy2723","","uv1mfy2723","""2024-11-12T19:02:01.623Z""","null","+","null","","","","","","",""
"","","","","","image-keyboard-response","378","81897439","0.0-19.0-0.2-1.14","uv1mfy2723","","uv1mfy2723","""2024-11-12T19:02:01.623Z""","909","materials/imgs/D77.png","arrowright","","[""materials/imgs/D19.png"",""materials/imgs/D106.png""]","false","random","","",""
"","","","","","html-keyboard-response","379","81897941","0.0-19.0-0.2-0.15","uv1mfy2723","","uv1mfy2723","""2024-11-12T19:02:01.623Z""","null","+","null","","","","","","",""
"","","","","","image-keyboard-response","380","81898875","0.0-19.0-0.2-1.15","uv1mfy2723","","uv1mfy2723","""2024-11-12T19:02:01.623Z""","932","materials/imgs/D104.png","arrowleft","","[""materials/imgs/D24.png"",""materials/imgs/D35.png""]","false","random","","",""
"","","","","","html-keyboard-response","381","81899376","0.0-19.0-0.2-0.16","uv1mfy2723","","uv1mfy2723","""2024-11-12T19:02:01.623Z""","null","+","null","","","","","","",""
"","","","","","image-keyboard-response","382","81900875","0.0-19.0-0.2-1.16","uv1mfy2723","","uv1mfy2723","""2024-11-12T19:02:01.623Z""","1498","materials/imgs/D101.png","arrowleft","","[""materials/imgs/D22.png"",""materials/imgs/D76.png""]","false","random","","",""
"","","","","","html-keyboard-response","383","81901377","0.0-19.0-0.2-0.17","uv1mfy2723","","uv1mfy2723","""2024-11-12T19:02:01.623Z""","null","+","null","","","","","","",""
"","","","","","image-keyboard-response","384","81902208","0.0-19.0-0.2-1.17","uv1mfy2723","","uv1mfy2723","""2024-11-12T19:02:01.623Z""","830","materials/imgs/D103.png","arrowleft","","[""materials/imgs/D87.png"",""materials/imgs/D26.png""]","false","random","","",""
"","","","","","html-keyboard-response","385","81902710","0.0-19.0-0.2-0.18","uv1mfy2723","","uv1mfy2723","""2024-11-12T19:02:01.623Z""","null","+","null","","","","","","",""
"","","","","","image-keyboard-response","386","81904166","0.0-19.0-0.2-1.18","uv1mfy2723","","uv1mfy2723","""2024-11-12T19:02:01.623Z""","1454","materials/imgs/D8.png","arrowleft","","[""materials/imgs/D76.png"",""materials/imgs/D68.png""]","false","random","","",""
"","","","","","html-keyboard-response","387","81904667","0.0-19.0-0.2-0.19","uv1mfy2723","","uv1mfy2723","""2024-11-12T19:02:01.623Z""","null","+","null","","","","","","",""
"","","","","","image-keyboard-response","388","81905328","0.0-19.0-0.2-1.19","uv1mfy2723","","uv1mfy2723","""2024-11-12T19:02:01.623Z""","656","materials/imgs/D77.png","arrowright","","[""materials/imgs/D48.png"",""materials/imgs/D80.png""]","false","random","","",""
"","","","","","html-keyboard-response","389","81905830","0.0-19.0-0.2-0.20","uv1mfy2723","","uv1mfy2723","""2024-11-12T19:02:01.623Z""","null","+","null","","","","","","",""
"","","","","","image-keyboard-response","390","81906787","0.0-19.0-0.2-1.20","uv1mfy2723","","uv1mfy2723","""2024-11-12T19:02:01.623Z""","956","materials/imgs/D56.png","arrowleft","","[""materials/imgs/D16.png"",""materials/imgs/D17.png""]","false","random","","",""
"","","","","","html-keyboard-response","391","81907288","0.0-19.0-1.2-0.2","uv1mfy2723","","uv1mfy2723","""2024-11-12T19:02:01.623Z""","null","+","null","","","","","","",""
"","","","","","image-keyboard-response","392","81907834","0.0-19.0-1.2-1.2","uv1mfy2723","","uv1mfy2723","""2024-11-12T19:02:01.623Z""","544","materials/imgs/D26.png","arrowleft","","[""materials/imgs/D26.png"",""materials/imgs/D46.png""]","","check","materials/imgs/D26.png","0","true"
"","","","","","html-keyboard-response","393","81908335","0.0-19.0-2.2-0.4","uv1mfy2723","","uv1mfy2723","""2024-11-12T19:02:01.623Z""","null","+","null","","","","","","",""
"","","","","","image-keyboard-response","394","81909412","0.0-19.0-2.2-1.4","uv1mfy2723","","uv1mfy2723","""2024-11-12T19:02:01.623Z""","1075","materials/imgs/D103.png","arrowleft","","[""materials/imgs/D76.png"",""materials/imgs/D106.png""]","false","validation","","",""
"","","","","","html-keyboard-response","395","81909913","0.0-19.0-2.2-0.5","uv1mfy2723","","uv1mfy2723","""2024-11-12T19:02:01.623Z""","null","+","null","","","","","","",""
"","","","","","image-keyboard-response","396","81912463","0.0-19.0-2.2-1.5","uv1mfy2723","","uv1mfy2723","""2024-11-12T19:02:01.623Z""","2549","materials/imgs/D65.png","arrowright","","[""materials/imgs/D4.png"",""materials/imgs/D16.png""]","false","validation","","",""
"","","","","","html-keyboard-response","397","81912965","0.0-19.0-0.3-0.21","uv1mfy2723","","uv1mfy2723","""2024-11-12T19:02:01.623Z""","null","+","null","","","","","","",""
"","","","","","image-keyboard-response","398","81914422","0.0-19.0-0.3-1.21","uv1mfy2723","","uv1mfy2723","""2024-11-12T19:02:01.623Z""","1455","materials/imgs/D105.png","arrowright","","[""materials/imgs/D56.png"",""materials/imgs/D102.png""]","false","random","","",""
"","","","","","html-keyboard-response","399","81914923","0.0-19.0-0.3-0.22","uv1mfy2723","","uv1mfy2723","""2024-11-12T19:02:01.623Z""","null","+","null","","","","","","",""
"","","","","","image-keyboard-response","400","81915830","0.0-19.0-0.3-1.22","uv1mfy2723","","uv1mfy2723","""2024-11-12T19:02:01.623Z""","905","materials/imgs/D53.png","arrowright","","[""materials/imgs/D92.png"",""materials/imgs/D29.png""]","false","random","","",""
"","","","","","html-keyboard-response","401","81916332","0.0-19.0-0.3-0.23","uv1mfy2723","","uv1mfy2723","""2024-11-12T19:02:01.623Z""","null","+","null","","","","","","",""
"","","","","","image-keyboard-response","402","81917279","0.0-19.0-0.3-1.23","uv1mfy2723","","uv1mfy2723","""2024-11-12T19:02:01.623Z""","946","materials/imgs/D51.png","arrowright","","[""materials/imgs/D26.png"",""materials/imgs/D29.png""]","false","random","","",""
"","","","","","html-keyboard-response","403","81917780","0.0-19.0-0.3-0.24","uv1mfy2723","","uv1mfy2723","""2024-11-12T19:02:01.623Z""","null","+","null","","","","","","",""
"","","","","","image-keyboard-response","404","81918952","0.0-19.0-0.3-1.24","uv1mfy2723","","uv1mfy2723","""2024-11-12T19:02:01.623Z""","1170","materials/imgs/D53.png","arrowright","","[""materials/imgs/D1.png"",""materials/imgs/D47.png""]","false","random","","",""
"","","","","","html-keyboard-response","405","81919453","0.0-19.0-0.3-0.25","uv1mfy2723","","uv1mfy2723","""2024-11-12T19:02:01.623Z""","null","+","null","","","","","","",""
"","","","","","image-keyboard-response","406","81920096","0.0-19.0-0.3-1.25","uv1mfy2723","","uv1mfy2723","""2024-11-12T19:02:01.623Z""","642","materials/imgs/D87.png","arrowright","","[""materials/imgs/D74.png"",""materials/imgs/D24.png""]","false","random","","",""
"","","","","","html-keyboard-response","407","81920597","0.0-19.0-0.3-0.26","uv1mfy2723","","uv1mfy2723","""2024-11-12T19:02:01.623Z""","null","+","null","","","","","","",""
"","","","","","image-keyboard-response","408","81921683","0.0-19.0-0.3-1.26","uv1mfy2723","","uv1mfy2723","""2024-11-12T19:02:01.623Z""","1084","materials/imgs/D74.png","arrowright","","[""materials/imgs/D76.png"",""materials/imgs/D35.png""]","false","random","","",""
"","","","","","html-keyboard-response","409","81922185","0.0-19.0-0.3-0.27","uv1mfy2723","","uv1mfy2723","""2024-11-12T19:02:01.623Z""","null","+","null","","","","","","",""
"","","","","","image-keyboard-response","410","81922902","0.0-19.0-0.3-1.27","uv1mfy2723","","uv1mfy2723","""2024-11-12T19:02:01.623Z""","716","materials/imgs/D87.png","arrowright","","[""materials/imgs/D111.png"",""materials/imgs/D22.png""]","false","random","","",""
"","","","","","html-keyboard-response","411","81923403","0.0-19.0-1.3-0.3","uv1mfy2723","","uv1mfy2723","""2024-11-12T19:02:01.623Z""","null","+","null","","","","","","",""
"","","","","","image-keyboard-response","412","81924034","0.0-19.0-1.3-1.3","uv1mfy2723","","uv1mfy2723","""2024-11-12T19:02:01.623Z""","629","materials/imgs/D106.png","arrowleft","","[""materials/imgs/D106.png"",""materials/imgs/D101.png""]","","check","materials/imgs/D106.png","0","true"
"","","","","","html-keyboard-response","413","81924535","0.0-19.0-2.3-0.6","uv1mfy2723","","uv1mfy2723","""2024-11-12T19:02:01.623Z""","null","+","null","","","","","","",""
"","","","","","image-keyboard-response","414","81925342","0.0-19.0-2.3-1.6","uv1mfy2723","","uv1mfy2723","""2024-11-12T19:02:01.623Z""","805","materials/imgs/D24.png","arrowleft","","[""materials/imgs/D36.png"",""materials/imgs/D8.png""]","false","validation","","",""
"","","","","","html-keyboard-response","415","81925844","0.0-19.0-2.3-0.7","uv1mfy2723","","uv1mfy2723","""2024-11-12T19:02:01.623Z""","null","+","null","","","","","","",""
"","","","","","image-keyboard-response","416","81926634","0.0-19.0-2.3-1.7","uv1mfy2723","","uv1mfy2723","""2024-11-12T19:02:01.623Z""","788","materials/imgs/D76.png","arrowright","","[""materials/imgs/D83.png"",""materials/imgs/D6.png""]","false","validation","","",""
"","","","","","html-keyboard-response","417","81927135","0.0-19.0-0.4-0.28","uv1mfy2723","","uv1mfy2723","""2024-11-12T19:02:01.623Z""","null","+","null","","","","","","",""
"","","","","","image-keyboard-response","418","81927753","0.0-19.0-0.4-1.28","uv1mfy2723","","uv1mfy2723","""2024-11-12T19:02:01.623Z""","616","materials/imgs/D106.png","arrowright","","[""materials/imgs/D64.png"",""materials/imgs/D6.png""]","false","random","","",""
"","","","","","html-keyboard-response","419","81928255","0.0-19.0-0.4-0.29","uv1mfy2723","","uv1mfy2723","""2024-11-12T19:02:01.623Z""","null","+","null","","","","","","",""
"","","","","","image-keyboard-response","420","81929308","0.0-19.0-0.4-1.29","uv1mfy2723","","uv1mfy2723","""2024-11-12T19:02:01.623Z""","1051","materials/imgs/D64.png","arrowright","","[""materials/imgs/D76.png"",""materials/imgs/D66.png""]","false","random","","",""
"","","","","","html-keyboard-response","421","81929810","0.0-19.0-0.4-0.30","uv1mfy2723","","uv1mfy2723","""2024-11-12T19:02:01.623Z""","null","+","null","","","","","","",""
"","","","","","image-keyboard-response","422","81930413","0.0-19.0-0.4-1.30","uv1mfy2723","","uv1mfy2723","""2024-11-12T19:02:01.623Z""","601","materials/imgs/D92.png","arrowleft","","[""materials/imgs/D4.png"",""materials/imgs/D111.png""]","false","random","","",""
"","","","","","html-keyboard-response","423","81930914","0.0-19.0-0.4-0.31","uv1mfy2723","","uv1mfy2723","""2024-11-12T19:02:01.623Z""","null","+","null","","","","","","",""
"","","","","","image-keyboard-response","424","81931651","0.0-19.0-0.4-1.31","uv1mfy2723","","uv1mfy2723","""2024-11-12T19:02:01.623Z""","736","materials/imgs/D85.png","arrowright","","[""materials/imgs/D26.png"",""materials/imgs/D29.png""]","false","random","","",""
"","","","","","html-keyboard-response","425","81932152","0.0-19.0-0.4-0.32","uv1mfy2723","","uv1mfy2723","""2024-11-12T19:02:01.623Z""","null","+","null","","","","","","",""
"","","","","","image-keyboard-response","426","81932789","0.0-19.0-0.4-1.32","uv1mfy2723","","uv1mfy2723","""2024-11-12T19:02:01.623Z""","635","materials/imgs/D103.png","arrowright","","[""materials/imgs/D48.png"",""materials/imgs/D53.png""]","false","random","","",""
"","","","","","html-keyboard-response","427","81933290","0.0-19.0-0.4-0.33","uv1mfy2723","","uv1mfy2723","""2024-11-12T19:02:01.623Z""","null","+","null","","","","","","",""
"","","","","","image-keyboard-response","428","81934320","0.0-19.0-0.4-1.33","uv1mfy2723","","uv1mfy2723","""2024-11-12T19:02:01.623Z""","1028","materials/imgs/D26.png","arrowleft","","[""materials/imgs/D64.png"",""materials/imgs/D1.png""]","false","random","","",""
"","","","","","html-keyboard-response","429","81934821","0.0-19.0-0.4-0.34","uv1mfy2723","","uv1mfy2723","""2024-11-12T19:02:01.623Z""","null","+","null","","","","","","",""
"","","","","","image-keyboard-response","430","81936189","0.0-19.0-0.4-1.34","uv1mfy2723","","uv1mfy2723","""2024-11-12T19:02:01.623Z""","1366","materials/imgs/D82.png","arrowright","","[""materials/imgs/D77.png"",""materials/imgs/D35.png""]","false","random","","",""
"","","","","","html-keyboard-response","431","81936690","0.0-19.0-1.4-0.4","uv1mfy2723","","uv1mfy2723","""2024-11-12T19:02:01.623Z""","null","+","null","","","","","","",""
"","","","","","image-keyboard-response","432","81937386","0.0-19.0-1.4-1.4","uv1mfy2723","","uv1mfy2723","""2024-11-12T19:02:01.623Z""","694","materials/imgs/D18.png","arrowright","","[""materials/imgs/D8.png"",""materials/imgs/D18.png""]","","check","materials/imgs/D18.png","1","true"
"","","","","","html-keyboard-response","433","81937887","0.0-19.0-2.4-0.8","uv1mfy2723","","uv1mfy2723","""2024-11-12T19:02:01.623Z""","null","+","null","","","","","","",""
"","","","","","image-keyboard-response","434","81938741","0.0-19.0-2.4-1.8","uv1mfy2723","","uv1mfy2723","""2024-11-12T19:02:01.623Z""","852","materials/imgs/D4.png","arrowright","","[""materials/imgs/D52.png"",""materials/imgs/D83.png""]","false","validation","","",""
"","","","","","html-keyboard-response","435","81939242","0.0-19.0-2.4-0.9","uv1mfy2723","","uv1mfy2723","""2024-11-12T19:02:01.623Z""","null","+","null","","","","","","",""
