"success","timeout","failed_images","failed_audio","failed_video","trial_type","trial_index","time_elapsed","internal_node_id","subject_id","sona_id","subjectID","dateInfo","rt","stimulus","response","question_order","choices","speedy","sampleAlg","selected_image","selected_index","correct"
"true","false","[]","[]","[]","preload","0","224","0.0-0.0","vcpxfuftks","","vcpxfuftks","""2024-11-13T15:55:20.751Z""","","","","","","","","","",""
"true","","","","","fullscreen","1","3518","0.0-1.0","vcpxfuftks","","vcpxfuftks","""2024-11-13T15:55:20.751Z""","","","","","","","","","",""
"","","","","","html-keyboard-response","2","3530","0.0-2.0","vcpxfuftks","","vcpxfuftks","""2024-11-13T15:55:20.751Z""","null","","null","","","","","","",""
"","","","","","html-button-response","3","86089","0.0-3.0","vcpxfuftks","","vcpxfuftks","""2024-11-13T15:55:20.751Z""","82557","<div style='text-align:center; font-size:20px; line-height:25px; width: 1200px;'>
                Welcome to our experiment! <br>
                <br>At the bottom of this screen, you will see a button that says 'Begin Experiment.
                <br>Please only click that button when you are ready to complete the 25 minute experiment in one sitting. <br>
                <br> Once you click that button, it will not be possible to restart the experiment. <br><br>","0","","","","","","",""
"true","","","","","fullscreen","4","88650","0.0-4.0","vcpxfuftks","","vcpxfuftks","""2024-11-13T15:55:20.751Z""","","","","","","","","","",""
"","","","","","survey-multi-select","5","101010","0.0-5.0","vcpxfuftks","","vcpxfuftks","""2024-11-13T15:55:20.751Z""","12355","","{""Consent"":[""<strong>I consent</strong>""]}","[0]","","","","","",""
"","","","","","html-button-response","6","104570","0.0-6.0","vcpxfuftks","","vcpxfuftks","""2024-11-13T15:55:20.751Z""","3559","Welcome! <p> This experiment involves two parts: demographic information, followed by the experimental task.<p> It will take about 25 minutes to complete both parts.","0","","","","","","",""
"","","","","","survey-text","7","117390","0.0-7.0","vcpxfuftks","","vcpxfuftks","""2024-11-13T15:55:20.751Z""","12809","","{""Age"":""19"",""Gender"":""Male "",""Race/ethnicity"":""White/Caucasian""}","","","","","","",""
"","","","","","html-button-response","8","135231","0.0-8.0","vcpxfuftks","","vcpxfuftks","""2024-11-13T15:55:20.751Z""","17839","<div style='text-align: center;'>
      <p>In each trial of this task, you will see three texture images: one target item on top, and two choices beneath the target item.</p>
      <p><strong>Please select the item that is most like the target item.</strong></p>
      <p>To select the option on the <strong>LEFT</strong>, press the <strong>LEFT ARROW</strong> key. 
      To select the option on the <strong>RIGHT</strong>, press the <strong>RIGHT ARROW</strong> key.</p>
                  <!-- Target Image at the Top -->
      <div style='margin: 20px;'>
        <img src='materials/imgs/instruction_images/InstructionImg1D78.png' alt='Target Image' style='width:200px; height:auto;' />
        <p><em>Target Image</em></p>
      </div>

      <!-- Two Choice Images Below -->
      <div style='display: flex; justify-content: center;'>
        <div style='margin-right: 50px;'>
          <img src='materials/imgs/instruction_images/InstructionImg2D34.png' alt='Choice Image 1' style='width:150px; height:auto;' />
          <p><em><strong>LEFT ARROW</strong></em></p>
        </div>
        <div style='margin-left: 50px;'>
          <img src='materials/imgs/instruction_images/InstructionImg3D80.png' alt='Choice Image 2' style='width:150px; height:auto;' />
          <p><em><strong>RIGHT ARROW</strong></em></p>
        </div>
      </div>
    </div>

      <p>When you are ready to proceed, please click 'Continue' to begin practice.</p>","0","","","","","","",""
"","","","","","html-keyboard-response","9","137734","0.0-9.0","vcpxfuftks","","vcpxfuftks","""2024-11-13T15:55:20.751Z""","null","+","null","","","","","","",""
"","","","","","html-keyboard-response","10","138236","0.0-10.0-0.0-0.0","vcpxfuftks","","vcpxfuftks","""2024-11-13T15:55:20.751Z""","null","+","null","","","","","","",""
"","","","","","image-keyboard-response","11","139766","0.0-10.0-0.0-1.0","vcpxfuftks","","vcpxfuftks","""2024-11-13T15:55:20.751Z""","1517","materials/imgs/D104.png","arrowright","","[""materials/imgs/D16.png"",""materials/imgs/D87.png""]","false","random","","",""
"","","","","","html-keyboard-response","12","140270","0.0-10.0-0.0-0.1","vcpxfuftks","","vcpxfuftks","""2024-11-13T15:55:20.751Z""","null","+","null","","","","","","",""
"","","","","","image-keyboard-response","13","141985","0.0-10.0-0.0-1.1","vcpxfuftks","","vcpxfuftks","""2024-11-13T15:55:20.751Z""","1705","materials/imgs/D82.png","arrowright","","[""materials/imgs/D51.png"",""materials/imgs/D46.png""]","false","random","","",""
"","","","","","html-keyboard-response","14","142488","0.0-10.0-0.0-0.2","vcpxfuftks","","vcpxfuftks","""2024-11-13T15:55:20.751Z""","null","+","null","","","","","","",""
"","","","","","image-keyboard-response","15","143713","0.0-10.0-0.0-1.2","vcpxfuftks","","vcpxfuftks","""2024-11-13T15:55:20.751Z""","1215","materials/imgs/D66.png","arrowleft","","[""materials/imgs/D46.png"",""materials/imgs/D14.png""]","false","random","","",""
"","","","","","html-keyboard-response","16","144216","0.0-10.0-0.0-0.3","vcpxfuftks","","vcpxfuftks","""2024-11-13T15:55:20.751Z""","null","+","null","","","","","","",""
"","","","","","image-keyboard-response","17","145059","0.0-10.0-0.0-1.3","vcpxfuftks","","vcpxfuftks","""2024-11-13T15:55:20.751Z""","834","materials/imgs/D24.png","arrowright","","[""materials/imgs/D68.png"",""materials/imgs/D85.png""]","false","random","","",""
"","","","","","html-keyboard-response","18","145562","0.0-10.0-0.0-0.4","vcpxfuftks","","vcpxfuftks","""2024-11-13T15:55:20.751Z""","null","+","null","","","","","","",""
"","","","","","image-keyboard-response","19","147030","0.0-10.0-0.0-1.4","vcpxfuftks","","vcpxfuftks","""2024-11-13T15:55:20.751Z""","1460","materials/imgs/D79.png","arrowleft","","[""materials/imgs/D22.png"",""materials/imgs/D37.png""]","false","random","","",""
"","","","","","html-keyboard-response","20","147532","0.0-10.0-0.0-0.5","vcpxfuftks","","vcpxfuftks","""2024-11-13T15:55:20.751Z""","null","+","null","","","","","","",""
"","","","","","image-keyboard-response","21","148522","0.0-10.0-0.0-1.5","vcpxfuftks","","vcpxfuftks","""2024-11-13T15:55:20.751Z""","981","materials/imgs/D34.png","arrowright","","[""materials/imgs/D37.png"",""materials/imgs/D14.png""]","false","random","","",""
"","","","","","html-keyboard-response","22","149025","0.0-10.0-0.0-0.6","vcpxfuftks","","vcpxfuftks","""2024-11-13T15:55:20.751Z""","null","+","null","","","","","","",""
"","","","","","image-keyboard-response","23","150571","0.0-10.0-0.0-1.6","vcpxfuftks","","vcpxfuftks","""2024-11-13T15:55:20.751Z""","1538","materials/imgs/D29.png","arrowright","","[""materials/imgs/D68.png"",""materials/imgs/D52.png""]","false","random","","",""
"","","","","","html-keyboard-response","24","151074","0.0-10.0-0.0-0.7","vcpxfuftks","","vcpxfuftks","""2024-11-13T15:55:20.751Z""","null","+","null","","","","","","",""
"","","","","","image-keyboard-response","25","151770","0.0-10.0-0.0-1.7","vcpxfuftks","","vcpxfuftks","""2024-11-13T15:55:20.751Z""","686","materials/imgs/D35.png","arrowright","","[""materials/imgs/D3.png"",""materials/imgs/D20.png""]","false","random","","",""
"","","","","","html-keyboard-response","26","152272","0.0-10.0-0.0-0.8","vcpxfuftks","","vcpxfuftks","""2024-11-13T15:55:20.751Z""","null","+","null","","","","","","",""
"","","","","","image-keyboard-response","27","153637","0.0-10.0-0.0-1.8","vcpxfuftks","","vcpxfuftks","""2024-11-13T15:55:20.751Z""","1363","materials/imgs/D37.png","arrowleft","","[""materials/imgs/D24.png"",""materials/imgs/D111.png""]","false","random","","",""
"","","","","","html-keyboard-response","28","154139","0.0-10.0-0.0-0.9","vcpxfuftks","","vcpxfuftks","""2024-11-13T15:55:20.751Z""","null","+","null","","","","","","",""
"","","","","","image-keyboard-response","29","155948","0.0-10.0-0.0-1.9","vcpxfuftks","","vcpxfuftks","""2024-11-13T15:55:20.751Z""","1798","materials/imgs/D81.png","arrowleft","","[""materials/imgs/D80.png"",""materials/imgs/D82.png""]","false","random","","",""
"","","","","","html-button-response","30","161056","0.0-11.0","vcpxfuftks","","vcpxfuftks","""2024-11-13T15:55:20.751Z""","5106","<p>Great job!</p>
      <p>You are now ready to begin the experiment.</p>
      <p>There will be around 200 trials. You will have opportunities to take breaks at three stages of the trials.</p>
      <p>When you are ready to begin please click 'Continue'.</p>","0","","","","","","",""
"","","","","","html-keyboard-response","31","163559","0.0-12.0","vcpxfuftks","","vcpxfuftks","""2024-11-13T15:55:20.751Z""","null","+","null","","","","","","",""
"","","","","","html-keyboard-response","32","164062","0.0-13.0-0.0-0.0","vcpxfuftks","","vcpxfuftks","""2024-11-13T15:55:20.751Z""","null","+","null","","","","","","",""
"","","","","","image-keyboard-response","33","165231","0.0-13.0-0.0-1.0","vcpxfuftks","","vcpxfuftks","""2024-11-13T15:55:20.751Z""","1161","materials/imgs/D64.png","arrowleft","","[""materials/imgs/D83.png"",""materials/imgs/D37.png""]","false","random","","",""
"","","","","","html-keyboard-response","34","165734","0.0-13.0-0.0-0.1","vcpxfuftks","","vcpxfuftks","""2024-11-13T15:55:20.751Z""","null","+","null","","","","","","",""
"","","","","","image-keyboard-response","35","166344","0.0-13.0-0.0-1.1","vcpxfuftks","","vcpxfuftks","""2024-11-13T15:55:20.751Z""","601","materials/imgs/D47.png","arrowright","","[""materials/imgs/D36.png"",""materials/imgs/D94.png""]","false","random","","",""
"","","","","","html-keyboard-response","36","166846","0.0-13.0-0.0-0.2","vcpxfuftks","","vcpxfuftks","""2024-11-13T15:55:20.751Z""","null","+","null","","","","","","",""
"","","","","","image-keyboard-response","37","167428","0.0-13.0-0.0-1.2","vcpxfuftks","","vcpxfuftks","""2024-11-13T15:55:20.751Z""","580","materials/imgs/D85.png","arrowleft","","[""materials/imgs/D79.png"",""materials/imgs/D66.png""]","false","random","","",""
"","","","","","html-keyboard-response","38","167930","0.0-13.0-0.0-0.3","vcpxfuftks","","vcpxfuftks","""2024-11-13T15:55:20.751Z""","null","+","null","","","","","","",""
"","","","","","image-keyboard-response","39","168457","0.0-13.0-0.0-1.3","vcpxfuftks","","vcpxfuftks","""2024-11-13T15:55:20.751Z""","525","materials/imgs/D35.png","arrowright","","[""materials/imgs/D8.png"",""materials/imgs/D80.png""]","false","random","","",""
"","","","","","html-keyboard-response","40","168959","0.0-13.0-0.0-0.4","vcpxfuftks","","vcpxfuftks","""2024-11-13T15:55:20.751Z""","null","+","null","","","","","","",""
"","","","","","image-keyboard-response","41","169480","0.0-13.0-0.0-1.4","vcpxfuftks","","vcpxfuftks","""2024-11-13T15:55:20.751Z""","519","materials/imgs/D8.png","arrowright","","[""materials/imgs/D111.png"",""materials/imgs/D48.png""]","false","random","","",""
"","","","","","html-keyboard-response","42","169983","0.0-13.0-0.0-0.5","vcpxfuftks","","vcpxfuftks","""2024-11-13T15:55:20.751Z""","null","+","null","","","","","","",""
"","","","","","image-keyboard-response","43","170631","0.0-13.0-0.0-1.5","vcpxfuftks","","vcpxfuftks","""2024-11-13T15:55:20.751Z""","640","materials/imgs/D105.png","arrowleft","","[""materials/imgs/D66.png"",""materials/imgs/D9.png""]","false","random","","",""
"","","","","","html-keyboard-response","44","171134","0.0-13.0-0.0-0.6","vcpxfuftks","","vcpxfuftks","""2024-11-13T15:55:20.751Z""","null","+","null","","","","","","",""
"","","","","","image-keyboard-response","45","171996","0.0-13.0-0.0-1.6","vcpxfuftks","","vcpxfuftks","""2024-11-13T15:55:20.751Z""","860","materials/imgs/D9.png","arrowleft","","[""materials/imgs/D14.png"",""materials/imgs/D25.png""]","false","random","","",""
"","","","","","html-keyboard-response","46","172499","0.0-13.0-1.0-0.0","vcpxfuftks","","vcpxfuftks","""2024-11-13T15:55:20.751Z""","null","+","null","","","","","","",""
"","","","","","image-keyboard-response","47","173048","0.0-13.0-1.0-1.0","vcpxfuftks","","vcpxfuftks","""2024-11-13T15:55:20.751Z""","541","materials/imgs/D53.png","arrowright","","[""materials/imgs/D64.png"",""materials/imgs/D53.png""]","","check","materials/imgs/D53.png","1","true"
"","","","","","html-keyboard-response","48","173551","0.0-13.0-2.0-0.0","vcpxfuftks","","vcpxfuftks","""2024-11-13T15:55:20.751Z""","null","+","null","","","","","","",""
"","","","","","image-keyboard-response","49","174231","0.0-13.0-2.0-1.0","vcpxfuftks","","vcpxfuftks","""2024-11-13T15:55:20.751Z""","678","materials/imgs/D8.png","arrowleft","","[""materials/imgs/D101.png"",""materials/imgs/D52.png""]","false","validation","","",""
"","","","","","html-keyboard-response","50","174734","0.0-13.0-2.0-0.1","vcpxfuftks","","vcpxfuftks","""2024-11-13T15:55:20.751Z""","null","+","null","","","","","","",""
"","","","","","image-keyboard-response","51","175298","0.0-13.0-2.0-1.1","vcpxfuftks","","vcpxfuftks","""2024-11-13T15:55:20.751Z""","556","materials/imgs/D102.png","arrowright","","[""materials/imgs/D32.png"",""materials/imgs/D111.png""]","false","validation","","",""
"","","","","","html-keyboard-response","52","175801","0.0-13.0-0.1-0.7","vcpxfuftks","","vcpxfuftks","""2024-11-13T15:55:20.751Z""","null","+","null","","","","","","",""
"","","","","","image-keyboard-response","53","176751","0.0-13.0-0.1-1.7","vcpxfuftks","","vcpxfuftks","""2024-11-13T15:55:20.751Z""","947","materials/imgs/D102.png","arrowleft","","[""materials/imgs/D22.png"",""materials/imgs/D36.png""]","false","random","","",""
"","","","","","html-keyboard-response","54","177254","0.0-13.0-0.1-0.8","vcpxfuftks","","vcpxfuftks","""2024-11-13T15:55:20.751Z""","null","+","null","","","","","","",""
"","","","","","image-keyboard-response","55","178114","0.0-13.0-0.1-1.8","vcpxfuftks","","vcpxfuftks","""2024-11-13T15:55:20.751Z""","859","materials/imgs/D34.png","arrowright","","[""materials/imgs/D96.png"",""materials/imgs/D6.png""]","false","random","","",""
"","","","","","html-keyboard-response","56","178616","0.0-13.0-0.1-0.9","vcpxfuftks","","vcpxfuftks","""2024-11-13T15:55:20.751Z""","null","+","null","","","","","","",""
"","","","","","image-keyboard-response","57","179613","0.0-13.0-0.1-1.9","vcpxfuftks","","vcpxfuftks","""2024-11-13T15:55:20.751Z""","995","materials/imgs/D48.png","arrowright","","[""materials/imgs/D102.png"",""materials/imgs/D46.png""]","false","random","","",""
"","","","","","html-keyboard-response","58","180116","0.0-13.0-0.1-0.10","vcpxfuftks","","vcpxfuftks","""2024-11-13T15:55:20.751Z""","null","+","null","","","","","","",""
"","","","","","image-keyboard-response","59","181187","0.0-13.0-0.1-1.10","vcpxfuftks","","vcpxfuftks","""2024-11-13T15:55:20.751Z""","1069","materials/imgs/D14.png","arrowleft","","[""materials/imgs/D20.png"",""materials/imgs/D51.png""]","false","random","","",""
"","","","","","html-keyboard-response","60","181689","0.0-13.0-0.1-0.11","vcpxfuftks","","vcpxfuftks","""2024-11-13T15:55:20.751Z""","null","+","null","","","","","","",""
"","","","","","image-keyboard-response","61","182788","0.0-13.0-0.1-1.11","vcpxfuftks","","vcpxfuftks","""2024-11-13T15:55:20.751Z""","1098","materials/imgs/D9.png","arrowright","","[""materials/imgs/D22.png"",""materials/imgs/D75.png""]","false","random","","",""
"","","","","","html-keyboard-response","62","183290","0.0-13.0-0.1-0.12","vcpxfuftks","","vcpxfuftks","""2024-11-13T15:55:20.751Z""","null","+","null","","","","","","",""
"","","","","","image-keyboard-response","63","184308","0.0-13.0-0.1-1.12","vcpxfuftks","","vcpxfuftks","""2024-11-13T15:55:20.751Z""","1016","materials/imgs/D29.png","arrowright","","[""materials/imgs/D77.png"",""materials/imgs/D48.png""]","false","random","","",""
"","","","","","html-keyboard-response","64","184810","0.0-13.0-0.1-0.13","vcpxfuftks","","vcpxfuftks","""2024-11-13T15:55:20.751Z""","null","+","null","","","","","","",""
"","","","","","image-keyboard-response","65","186278","0.0-13.0-0.1-1.13","vcpxfuftks","","vcpxfuftks","""2024-11-13T15:55:20.751Z""","1460","materials/imgs/D57.png","arrowleft","","[""materials/imgs/D83.png"",""materials/imgs/D106.png""]","false","random","","",""
"","","","","","html-keyboard-response","66","186780","0.0-13.0-1.1-0.1","vcpxfuftks","","vcpxfuftks","""2024-11-13T15:55:20.751Z""","null","+","null","","","","","","",""
"","","","","","image-keyboard-response","67","187433","0.0-13.0-1.1-1.1","vcpxfuftks","","vcpxfuftks","""2024-11-13T15:55:20.751Z""","651","materials/imgs/D64.png","arrowleft","","[""materials/imgs/D64.png"",""materials/imgs/D53.png""]","","check","materials/imgs/D64.png","0","true"
"","","","","","html-keyboard-response","68","187935","0.0-13.0-2.1-0.2","vcpxfuftks","","vcpxfuftks","""2024-11-13T15:55:20.751Z""","null","+","null","","","","","","",""
"","","","","","image-keyboard-response","69","189329","0.0-13.0-2.1-1.2","vcpxfuftks","","vcpxfuftks","""2024-11-13T15:55:20.751Z""","1387","materials/imgs/D76.png","arrowleft","","[""materials/imgs/D83.png"",""materials/imgs/D6.png""]","false","validation","","",""
"","","","","","html-keyboard-response","70","189832","0.0-13.0-2.1-0.3","vcpxfuftks","","vcpxfuftks","""2024-11-13T15:55:20.751Z""","null","+","null","","","","","","",""
"","","","","","image-keyboard-response","71","190523","0.0-13.0-2.1-1.3","vcpxfuftks","","vcpxfuftks","""2024-11-13T15:55:20.751Z""","680","materials/imgs/D103.png","arrowright","","[""materials/imgs/D76.png"",""materials/imgs/D106.png""]","false","validation","","",""
"","","","","","html-keyboard-response","72","191027","0.0-13.0-0.2-0.14","vcpxfuftks","","vcpxfuftks","""2024-11-13T15:55:20.751Z""","null","+","null","","","","","","",""
"","","","","","image-keyboard-response","73","192276","0.0-13.0-0.2-1.14","vcpxfuftks","","vcpxfuftks","""2024-11-13T15:55:20.751Z""","1240","materials/imgs/D18.png","arrowright","","[""materials/imgs/D92.png"",""materials/imgs/D68.png""]","false","random","","",""
"","","","","","html-keyboard-response","74","192779","0.0-13.0-0.2-0.15","vcpxfuftks","","vcpxfuftks","""2024-11-13T15:55:20.751Z""","null","+","null","","","","","","",""
"","","","","","image-keyboard-response","75","194321","0.0-13.0-0.2-1.15","vcpxfuftks","","vcpxfuftks","""2024-11-13T15:55:20.751Z""","1539","materials/imgs/D14.png","arrowright","","[""materials/imgs/D11.png"",""materials/imgs/D92.png""]","false","random","","",""
"","","","","","html-keyboard-response","76","194823","0.0-13.0-0.2-0.16","vcpxfuftks","","vcpxfuftks","""2024-11-13T15:55:20.751Z""","null","+","null","","","","","","",""
"","","","","","image-keyboard-response","77","195458","0.0-13.0-0.2-1.16","vcpxfuftks","","vcpxfuftks","""2024-11-13T15:55:20.751Z""","624","materials/imgs/D78.png","arrowright","","[""materials/imgs/D75.png"",""materials/imgs/D103.png""]","false","random","","",""
"","","","","","html-keyboard-response","78","195960","0.0-13.0-0.2-0.17","vcpxfuftks","","vcpxfuftks","""2024-11-13T15:55:20.751Z""","null","+","null","","","","","","",""
"","","","","","image-keyboard-response","79","196864","0.0-13.0-0.2-1.17","vcpxfuftks","","vcpxfuftks","""2024-11-13T15:55:20.751Z""","900","materials/imgs/D6.png","arrowright","","[""materials/imgs/D4.png"",""materials/imgs/D79.png""]","false","random","","",""
"","","","","","html-keyboard-response","80","197366","0.0-13.0-0.2-0.18","vcpxfuftks","","vcpxfuftks","""2024-11-13T15:55:20.751Z""","null","+","null","","","","","","",""
"","","","","","image-keyboard-response","81","198101","0.0-13.0-0.2-1.18","vcpxfuftks","","vcpxfuftks","""2024-11-13T15:55:20.751Z""","733","materials/imgs/D92.png","arrowright","","[""materials/imgs/D6.png"",""materials/imgs/D66.png""]","false","random","","",""
"","","","","","html-keyboard-response","82","198603","0.0-13.0-0.2-0.19","vcpxfuftks","","vcpxfuftks","""2024-11-13T15:55:20.751Z""","null","+","null","","","","","","",""
"","","","","","image-keyboard-response","83","199446","0.0-13.0-0.2-1.19","vcpxfuftks","","vcpxfuftks","""2024-11-13T15:55:20.751Z""","841","materials/imgs/D18.png","arrowright","","[""materials/imgs/D17.png"",""materials/imgs/D103.png""]","false","random","","",""
"","","","","","html-keyboard-response","84","199948","0.0-13.0-0.2-0.20","vcpxfuftks","","vcpxfuftks","""2024-11-13T15:55:20.751Z""","null","+","null","","","","","","",""
"","","","","","image-keyboard-response","85","200551","0.0-13.0-0.2-1.20","vcpxfuftks","","vcpxfuftks","""2024-11-13T15:55:20.751Z""","601","materials/imgs/D87.png","arrowright","","[""materials/imgs/D21.png"",""materials/imgs/D20.png""]","false","random","","",""
"","","","","","html-keyboard-response","86","201054","0.0-13.0-1.2-0.2","vcpxfuftks","","vcpxfuftks","""2024-11-13T15:55:20.751Z""","null","+","null","","","","","","",""
"","","","","","image-keyboard-response","87","201609","0.0-13.0-1.2-1.2","vcpxfuftks","","vcpxfuftks","""2024-11-13T15:55:20.751Z""","553","materials/imgs/D8.png","arrowright","","[""materials/imgs/D18.png"",""materials/imgs/D8.png""]","","check","materials/imgs/D8.png","1","true"
"","","","","","html-keyboard-response","88","202112","0.0-13.0-2.2-0.4","vcpxfuftks","","vcpxfuftks","""2024-11-13T15:55:20.751Z""","null","+","null","","","","","","",""
"","","","","","image-keyboard-response","89","202877","0.0-13.0-2.2-1.4","vcpxfuftks","","vcpxfuftks","""2024-11-13T15:55:20.751Z""","763","materials/imgs/D47.png","arrowright","","[""materials/imgs/D1.png"",""materials/imgs/D52.png""]","false","validation","","",""
"","","","","","html-keyboard-response","90","203378","0.0-13.0-2.2-0.5","vcpxfuftks","","vcpxfuftks","""2024-11-13T15:55:20.751Z""","null","+","null","","","","","","",""
"","","","","","image-keyboard-response","91","204850","0.0-13.0-2.2-1.5","vcpxfuftks","","vcpxfuftks","""2024-11-13T15:55:20.751Z""","1460","materials/imgs/D56.png","arrowleft","","[""materials/imgs/D25.png"",""materials/imgs/D105.png""]","false","validation","","",""
"","","","","","html-keyboard-response","92","205353","0.0-13.0-0.3-0.21","vcpxfuftks","","vcpxfuftks","""2024-11-13T15:55:20.751Z""","null","+","null","","","","","","",""
"","","","","","image-keyboard-response","93","206202","0.0-13.0-0.3-1.21","vcpxfuftks","","vcpxfuftks","""2024-11-13T15:55:20.751Z""","846","materials/imgs/D75.png","arrowright","","[""materials/imgs/D64.png"",""materials/imgs/D3.png""]","false","random","","",""
"","","","","","html-keyboard-response","94","206705","0.0-13.0-0.3-0.22","vcpxfuftks","","vcpxfuftks","""2024-11-13T15:55:20.751Z""","null","+","null","","","","","","",""
"","","","","","image-keyboard-response","95","207709","0.0-13.0-0.3-1.22","vcpxfuftks","","vcpxfuftks","""2024-11-13T15:55:20.751Z""","1002","materials/imgs/D104.png","arrowright","","[""materials/imgs/D57.png"",""materials/imgs/D19.png""]","false","random","","",""
"","","","","","html-keyboard-response","96","208211","0.0-13.0-0.3-0.23","vcpxfuftks","","vcpxfuftks","""2024-11-13T15:55:20.751Z""","null","+","null","","","","","","",""
"","","","","","image-keyboard-response","97","209481","0.0-13.0-0.3-1.23","vcpxfuftks","","vcpxfuftks","""2024-11-13T15:55:20.751Z""","1268","materials/imgs/D4.png","arrowright","","[""materials/imgs/D94.png"",""materials/imgs/D83.png""]","false","random","","",""
"","","","","","html-keyboard-response","98","209983","0.0-13.0-0.3-0.24","vcpxfuftks","","vcpxfuftks","""2024-11-13T15:55:20.751Z""","null","+","null","","","","","","",""
"","","","","","image-keyboard-response","99","210767","0.0-13.0-0.3-1.24","vcpxfuftks","","vcpxfuftks","""2024-11-13T15:55:20.751Z""","782","materials/imgs/D87.png","arrowright","","[""materials/imgs/D55.png"",""materials/imgs/D14.png""]","false","random","","",""
"","","","","","html-keyboard-response","100","211269","0.0-13.0-0.3-0.25","vcpxfuftks","","vcpxfuftks","""2024-11-13T15:55:20.751Z""","null","+","null","","","","","","",""
"","","","","","image-keyboard-response","101","212285","0.0-13.0-0.3-1.25","vcpxfuftks","","vcpxfuftks","""2024-11-13T15:55:20.751Z""","1014","materials/imgs/D55.png","arrowleft","","[""materials/imgs/D78.png"",""materials/imgs/D80.png""]","false","random","","",""
"","","","","","html-keyboard-response","102","212788","0.0-13.0-0.3-0.26","vcpxfuftks","","vcpxfuftks","""2024-11-13T15:55:20.751Z""","null","+","null","","","","","","",""
"","","","","","image-keyboard-response","103","213882","0.0-13.0-0.3-1.26","vcpxfuftks","","vcpxfuftks","""2024-11-13T15:55:20.751Z""","1084","materials/imgs/D95.png","arrowleft","","[""materials/imgs/D56.png"",""materials/imgs/D77.png""]","false","random","","",""
"","","","","","html-keyboard-response","104","214385","0.0-13.0-0.3-0.27","vcpxfuftks","","vcpxfuftks","""2024-11-13T15:55:20.751Z""","null","+","null","","","","","","",""
"","","","","","image-keyboard-response","105","215219","0.0-13.0-0.3-1.27","vcpxfuftks","","vcpxfuftks","""2024-11-13T15:55:20.751Z""","832","materials/imgs/D104.png","arrowleft","","[""materials/imgs/D36.png"",""materials/imgs/D102.png""]","false","random","","",""
"","","","","","html-keyboard-response","106","215721","0.0-13.0-1.3-0.3","vcpxfuftks","","vcpxfuftks","""2024-11-13T15:55:20.751Z""","null","+","null","","","","","","",""
"","","","","","image-keyboard-response","107","216383","0.0-13.0-1.3-1.3","vcpxfuftks","","vcpxfuftks","""2024-11-13T15:55:20.751Z""","660","materials/imgs/D101.png","arrowright","","[""materials/imgs/D106.png"",""materials/imgs/D101.png""]","","check","materials/imgs/D101.png","1","true"
"","","","","","html-keyboard-response","108","216886","0.0-13.0-2.3-0.6","vcpxfuftks","","vcpxfuftks","""2024-11-13T15:55:20.751Z""","null","+","null","","","","","","",""
"","","","","","image-keyboard-response","109","217676","0.0-13.0-2.3-1.6","vcpxfuftks","","vcpxfuftks","""2024-11-13T15:55:20.751Z""","788","materials/imgs/D85.png","arrowleft","","[""materials/imgs/D6.png"",""materials/imgs/D111.png""]","false","validation","","",""
"","","","","","html-keyboard-response","110","218178","0.0-13.0-2.3-0.7","vcpxfuftks","","vcpxfuftks","""2024-11-13T15:55:20.751Z""","null","+","null","","","","","","",""
"","","","","","image-keyboard-response","111","218759","0.0-13.0-2.3-1.7","vcpxfuftks","","vcpxfuftks","""2024-11-13T15:55:20.751Z""","579","materials/imgs/D102.png","arrowright","","[""materials/imgs/D32.png"",""materials/imgs/D111.png""]","false","validation","","",""
"","","","","","html-keyboard-response","112","219261","0.0-13.0-0.4-0.28","vcpxfuftks","","vcpxfuftks","""2024-11-13T15:55:20.751Z""","null","+","null","","","","","","",""
"","","","","","image-keyboard-response","113","219825","0.0-13.0-0.4-1.28","vcpxfuftks","","vcpxfuftks","""2024-11-13T15:55:20.751Z""","556","materials/imgs/D26.png","arrowright","","[""materials/imgs/D18.png"",""materials/imgs/D94.png""]","false","random","","",""
"","","","","","html-keyboard-response","114","220327","0.0-13.0-0.4-0.29","vcpxfuftks","","vcpxfuftks","""2024-11-13T15:55:20.751Z""","null","+","null","","","","","","",""
"","","","","","image-keyboard-response","115","220808","0.0-13.0-0.4-1.29","vcpxfuftks","","vcpxfuftks","""2024-11-13T15:55:20.751Z""","479","materials/imgs/D3.png","arrowright","","[""materials/imgs/D81.png"",""materials/imgs/D6.png""]","true","random","","",""
"","","","","","html-keyboard-response","116","240939","0.0-13.0-0.4-2.29-0.29","vcpxfuftks","","vcpxfuftks","""2024-11-13T15:55:20.751Z""","20129","<p><strong>You're going too fast.</strong><p>Please slow down and assess each triplet.<p>Press 'y' to continue.</p></p>","y","","","","","","",""
"","","","","","html-keyboard-response","117","241441","0.0-13.0-0.4-0.30","vcpxfuftks","","vcpxfuftks","""2024-11-13T15:55:20.751Z""","null","+","null","","","","","","",""
"","","","","","image-keyboard-response","118","242772","0.0-13.0-0.4-1.30","vcpxfuftks","","vcpxfuftks","""2024-11-13T15:55:20.751Z""","1329","materials/imgs/D87.png","arrowright","","[""materials/imgs/D96.png"",""materials/imgs/D18.png""]","false","random","","",""
"","","","","","html-keyboard-response","119","243275","0.0-13.0-0.4-0.31","vcpxfuftks","","vcpxfuftks","""2024-11-13T15:55:20.751Z""","null","+","null","","","","","","",""
"","","","","","image-keyboard-response","120","244317","0.0-13.0-0.4-1.31","vcpxfuftks","","vcpxfuftks","""2024-11-13T15:55:20.751Z""","1040","materials/imgs/D37.png","arrowright","","[""materials/imgs/D104.png"",""materials/imgs/D21.png""]","false","random","","",""
"","","","","","html-keyboard-response","121","244819","0.0-13.0-0.4-0.32","vcpxfuftks","","vcpxfuftks","""2024-11-13T15:55:20.751Z""","null","+","null","","","","","","",""
"","","","","","image-keyboard-response","122","245494","0.0-13.0-0.4-1.32","vcpxfuftks","","vcpxfuftks","""2024-11-13T15:55:20.751Z""","672","materials/imgs/D9.png","arrowright","","[""materials/imgs/D47.png"",""materials/imgs/D24.png""]","false","random","","",""
"","","","","","html-keyboard-response","123","245997","0.0-13.0-0.4-0.33","vcpxfuftks","","vcpxfuftks","""2024-11-13T15:55:20.751Z""","null","+","null","","","","","","",""
"","","","","","image-keyboard-response","124","247435","0.0-13.0-0.4-1.33","vcpxfuftks","","vcpxfuftks","""2024-11-13T15:55:20.751Z""","1434","materials/imgs/D106.png","arrowright","","[""materials/imgs/D81.png"",""materials/imgs/D11.png""]","false","random","","",""
"","","","","","html-keyboard-response","125","247936","0.0-13.0-0.4-0.34","vcpxfuftks","","vcpxfuftks","""2024-11-13T15:55:20.751Z""","null","+","null","","","","","","",""
"","","","","","image-keyboard-response","126","249332","0.0-13.0-0.4-1.34","vcpxfuftks","","vcpxfuftks","""2024-11-13T15:55:20.751Z""","1392","materials/imgs/D46.png","arrowright","","[""materials/imgs/D106.png"",""materials/imgs/D25.png""]","false","random","","",""
"","","","","","html-keyboard-response","127","249835","0.0-13.0-1.4-0.4","vcpxfuftks","","vcpxfuftks","""2024-11-13T15:55:20.751Z""","null","+","null","","","","","","",""
"","","","","","image-keyboard-response","128","250609","0.0-13.0-1.4-1.4","vcpxfuftks","","vcpxfuftks","""2024-11-13T15:55:20.751Z""","772","materials/imgs/D46.png","arrowleft","","[""materials/imgs/D46.png"",""materials/imgs/D26.png""]","","check","materials/imgs/D46.png","0","true"
"","","","","","html-keyboard-response","129","251112","0.0-13.0-2.4-0.8","vcpxfuftks","","vcpxfuftks","""2024-11-13T15:55:20.751Z""","null","+","null","","","","","","",""
"","","","","","image-keyboard-response","130","253278","0.0-13.0-2.4-1.8","vcpxfuftks","","vcpxfuftks","""2024-11-13T15:55:20.751Z""","2164","materials/imgs/D96.png","arrowright","","[""materials/imgs/D46.png"",""materials/imgs/D18.png""]","false","validation","","",""
"","","","","","html-keyboard-response","131","253780","0.0-13.0-2.4-0.9","vcpxfuftks","","vcpxfuftks","""2024-11-13T15:55:20.751Z""","null","+","null","","","","","","",""
"","","","","","image-keyboard-response","132","255175","0.0-13.0-2.4-1.9","vcpxfuftks","","vcpxfuftks","""2024-11-13T15:55:20.751Z""","1385","materials/imgs/D84.png","arrowright","","[""materials/imgs/D106.png"",""materials/imgs/D37.png""]","false","validation","","",""
"","","","","","html-button-response","133","257313","0.0-14.0","vcpxfuftks","","vcpxfuftks","""2024-11-13T15:55:20.751Z""","2137","You have completed 25% of the trials. Please click 'Continue' when you are ready proceed.","0","","","","","","",""
"","","","","","html-keyboard-response","134","257814","0.0-15.0-0.0-0.0","vcpxfuftks","","vcpxfuftks","""2024-11-13T15:55:20.751Z""","null","+","null","","","","","","",""
"","","","","","image-keyboard-response","135","258889","0.0-15.0-0.0-1.0","vcpxfuftks","","vcpxfuftks","""2024-11-13T15:55:20.751Z""","1072","materials/imgs/D37.png","arrowleft","","[""materials/imgs/D52.png"",""materials/imgs/D111.png""]","false","random","","",""
"","","","","","html-keyboard-response","136","259391","0.0-15.0-0.0-0.1","vcpxfuftks","","vcpxfuftks","""2024-11-13T15:55:20.751Z""","null","+","null","","","","","","",""
"","","","","","image-keyboard-response","137","260019","0.0-15.0-0.0-1.1","vcpxfuftks","","vcpxfuftks","""2024-11-13T15:55:20.751Z""","624","materials/imgs/D87.png","arrowright","","[""materials/imgs/D52.png"",""materials/imgs/D29.png""]","false","random","","",""
"","","","","","html-keyboard-response","138","260521","0.0-15.0-0.0-0.2","vcpxfuftks","","vcpxfuftks","""2024-11-13T15:55:20.751Z""","null","+","null","","","","","","",""
"","","","","","image-keyboard-response","139","261281","0.0-15.0-0.0-1.2","vcpxfuftks","","vcpxfuftks","""2024-11-13T15:55:20.751Z""","756","materials/imgs/D25.png","arrowright","","[""materials/imgs/D48.png"",""materials/imgs/D92.png""]","false","random","","",""
"","","","","","html-keyboard-response","140","261783","0.0-15.0-0.0-0.3","vcpxfuftks","","vcpxfuftks","""2024-11-13T15:55:20.751Z""","null","+","null","","","","","","",""
"","","","","","image-keyboard-response","141","262471","0.0-15.0-0.0-1.3","vcpxfuftks","","vcpxfuftks","""2024-11-13T15:55:20.751Z""","686","materials/imgs/D52.png","arrowleft","","[""materials/imgs/D1.png"",""materials/imgs/D111.png""]","false","random","","",""
"","","","","","html-keyboard-response","142","262973","0.0-15.0-0.0-0.4","vcpxfuftks","","vcpxfuftks","""2024-11-13T15:55:20.751Z""","null","+","null","","","","","","",""
"","","","","","image-keyboard-response","143","263595","0.0-15.0-0.0-1.4","vcpxfuftks","","vcpxfuftks","""2024-11-13T15:55:20.751Z""","619","materials/imgs/D11.png","arrowright","","[""materials/imgs/D104.png"",""materials/imgs/D35.png""]","false","random","","",""
"","","","","","html-keyboard-response","144","264096","0.0-15.0-0.0-0.5","vcpxfuftks","","vcpxfuftks","""2024-11-13T15:55:20.751Z""","null","+","null","","","","","","",""
"","","","","","image-keyboard-response","145","264695","0.0-15.0-0.0-1.5","vcpxfuftks","","vcpxfuftks","""2024-11-13T15:55:20.751Z""","596","materials/imgs/D77.png","arrowright","","[""materials/imgs/D51.png"",""materials/imgs/D55.png""]","false","random","","",""
"","","","","","html-keyboard-response","146","265196","0.0-15.0-0.0-0.6","vcpxfuftks","","vcpxfuftks","""2024-11-13T15:55:20.751Z""","null","+","null","","","","","","",""
"","","","","","image-keyboard-response","147","266230","0.0-15.0-0.0-1.6","vcpxfuftks","","vcpxfuftks","""2024-11-13T15:55:20.751Z""","1032","materials/imgs/D48.png","arrowright","","[""materials/imgs/D76.png"",""materials/imgs/D66.png""]","false","random","","",""
"","","","","","html-keyboard-response","148","266733","0.0-15.0-1.0-0.0","vcpxfuftks","","vcpxfuftks","""2024-11-13T15:55:20.751Z""","null","+","null","","","","","","",""
"","","","","","image-keyboard-response","149","267209","0.0-15.0-1.0-1.0","vcpxfuftks","","vcpxfuftks","""2024-11-13T15:55:20.751Z""","475","materials/imgs/D101.png","arrowright","","[""materials/imgs/D106.png"",""materials/imgs/D101.png""]","","check","materials/imgs/D101.png","1","true"
"","","","","","html-keyboard-response","150","267712","0.0-15.0-2.0-0.0","vcpxfuftks","","vcpxfuftks","""2024-11-13T15:55:20.751Z""","null","+","null","","","","","","",""
"","","","","","image-keyboard-response","151","268429","0.0-15.0-2.0-1.0","vcpxfuftks","","vcpxfuftks","""2024-11-13T15:55:20.751Z""","715","materials/imgs/D83.png","arrowright","","[""materials/imgs/D24.png"",""materials/imgs/D8.png""]","false","validation","","",""
"","","","","","html-keyboard-response","152","268931","0.0-15.0-2.0-0.1","vcpxfuftks","","vcpxfuftks","""2024-11-13T15:55:20.751Z""","null","+","null","","","","","","",""
"","","","","","image-keyboard-response","153","270146","0.0-15.0-2.0-1.1","vcpxfuftks","","vcpxfuftks","""2024-11-13T15:55:20.751Z""","1212","materials/imgs/D101.png","arrowright","","[""materials/imgs/D76.png"",""materials/imgs/D47.png""]","false","validation","","",""
"","","","","","html-keyboard-response","154","270648","0.0-15.0-0.1-0.7","vcpxfuftks","","vcpxfuftks","""2024-11-13T15:55:20.751Z""","null","+","null","","","","","","",""
"","","","","","image-keyboard-response","155","272379","0.0-15.0-0.1-1.7","vcpxfuftks","","vcpxfuftks","""2024-11-13T15:55:20.751Z""","1729","materials/imgs/D68.png","arrowleft","","[""materials/imgs/D16.png"",""materials/imgs/D53.png""]","false","random","","",""
"","","","","","html-keyboard-response","156","272882","0.0-15.0-0.1-0.8","vcpxfuftks","","vcpxfuftks","""2024-11-13T15:55:20.751Z""","null","+","null","","","","","","",""
"","","","","","image-keyboard-response","157","274093","0.0-15.0-0.1-1.8","vcpxfuftks","","vcpxfuftks","""2024-11-13T15:55:20.751Z""","1210","materials/imgs/D17.png","arrowleft","","[""materials/imgs/D6.png"",""materials/imgs/D94.png""]","false","random","","",""
"","","","","","html-keyboard-response","158","274595","0.0-15.0-0.1-0.9","vcpxfuftks","","vcpxfuftks","""2024-11-13T15:55:20.751Z""","null","+","null","","","","","","",""
"","","","","","image-keyboard-response","159","275278","0.0-15.0-0.1-1.9","vcpxfuftks","","vcpxfuftks","""2024-11-13T15:55:20.751Z""","681","materials/imgs/D19.png","arrowright","","[""materials/imgs/D77.png"",""materials/imgs/D111.png""]","false","random","","",""
"","","","","","html-keyboard-response","160","275780","0.0-15.0-0.1-0.10","vcpxfuftks","","vcpxfuftks","""2024-11-13T15:55:20.751Z""","null","+","null","","","","","","",""
"","","","","","image-keyboard-response","161","278355","0.0-15.0-0.1-1.10","vcpxfuftks","","vcpxfuftks","""2024-11-13T15:55:20.751Z""","2563","materials/imgs/D49.png","arrowleft","","[""materials/imgs/D46.png"",""materials/imgs/D101.png""]","false","random","","",""
"","","","","","html-keyboard-response","162","278857","0.0-15.0-0.1-0.11","vcpxfuftks","","vcpxfuftks","""2024-11-13T15:55:20.751Z""","null","+","null","","","","","","",""
"","","","","","image-keyboard-response","163","280609","0.0-15.0-0.1-1.11","vcpxfuftks","","vcpxfuftks","""2024-11-13T15:55:20.751Z""","1750","materials/imgs/D35.png","arrowright","","[""materials/imgs/D95.png"",""materials/imgs/D101.png""]","false","random","","",""
"","","","","","html-keyboard-response","164","281112","0.0-15.0-0.1-0.12","vcpxfuftks","","vcpxfuftks","""2024-11-13T15:55:20.751Z""","null","+","null","","","","","","",""
"","","","","","image-keyboard-response","165","282492","0.0-15.0-0.1-1.12","vcpxfuftks","","vcpxfuftks","""2024-11-13T15:55:20.751Z""","1377","materials/imgs/D82.png","arrowright","","[""materials/imgs/D47.png"",""materials/imgs/D65.png""]","false","random","","",""
"","","","","","html-keyboard-response","166","282994","0.0-15.0-0.1-0.13","vcpxfuftks","","vcpxfuftks","""2024-11-13T15:55:20.751Z""","null","+","null","","","","","","",""
"","","","","","image-keyboard-response","167","284034","0.0-15.0-0.1-1.13","vcpxfuftks","","vcpxfuftks","""2024-11-13T15:55:20.751Z""","1038","materials/imgs/D81.png","arrowleft","","[""materials/imgs/D9.png"",""materials/imgs/D51.png""]","false","random","","",""
"","","","","","html-keyboard-response","168","284536","0.0-15.0-1.1-0.1","vcpxfuftks","","vcpxfuftks","""2024-11-13T15:55:20.751Z""","null","+","null","","","","","","",""
"","","","","","image-keyboard-response","169","285170","0.0-15.0-1.1-1.1","vcpxfuftks","","vcpxfuftks","""2024-11-13T15:55:20.751Z""","632","materials/imgs/D46.png","arrowleft","","[""materials/imgs/D46.png"",""materials/imgs/D26.png""]","","check","materials/imgs/D46.png","0","true"
"","","","","","html-keyboard-response","170","285672","0.0-15.0-2.1-0.2","vcpxfuftks","","vcpxfuftks","""2024-11-13T15:55:20.751Z""","null","+","null","","","","","","",""
"","","","","","image-keyboard-response","171","287022","0.0-15.0-2.1-1.2","vcpxfuftks","","vcpxfuftks","""2024-11-13T15:55:20.751Z""","1347","materials/imgs/D65.png","arrowright","","[""materials/imgs/D4.png"",""materials/imgs/D16.png""]","false","validation","","",""
"","","","","","html-keyboard-response","172","287524","0.0-15.0-2.1-0.3","vcpxfuftks","","vcpxfuftks","""2024-11-13T15:55:20.751Z""","null","+","null","","","","","","",""
"","","","","","image-keyboard-response","173","289413","0.0-15.0-2.1-1.3","vcpxfuftks","","vcpxfuftks","""2024-11-13T15:55:20.751Z""","1887","materials/imgs/D77.png","arrowright","","[""materials/imgs/D102.png"",""materials/imgs/D65.png""]","false","validation","","",""
"","","","","","html-keyboard-response","174","289916","0.0-15.0-0.2-0.14","vcpxfuftks","","vcpxfuftks","""2024-11-13T15:55:20.751Z""","null","+","null","","","","","","",""
"","","","","","image-keyboard-response","175","290674","0.0-15.0-0.2-1.14","vcpxfuftks","","vcpxfuftks","""2024-11-13T15:55:20.751Z""","756","materials/imgs/D57.png","arrowright","","[""materials/imgs/D48.png"",""materials/imgs/D9.png""]","false","random","","",""
"","","","","","html-keyboard-response","176","291176","0.0-15.0-0.2-0.15","vcpxfuftks","","vcpxfuftks","""2024-11-13T15:55:20.751Z""","null","+","null","","","","","","",""
"","","","","","image-keyboard-response","177","291816","0.0-15.0-0.2-1.15","vcpxfuftks","","vcpxfuftks","""2024-11-13T15:55:20.751Z""","637","materials/imgs/D111.png","arrowright","","[""materials/imgs/D14.png"",""materials/imgs/D75.png""]","false","random","","",""
"","","","","","html-keyboard-response","178","292318","0.0-15.0-0.2-0.16","vcpxfuftks","","vcpxfuftks","""2024-11-13T15:55:20.751Z""","null","+","null","","","","","","",""
"","","","","","image-keyboard-response","179","293124","0.0-15.0-0.2-1.16","vcpxfuftks","","vcpxfuftks","""2024-11-13T15:55:20.751Z""","805","materials/imgs/D66.png","arrowleft","","[""materials/imgs/D9.png"",""materials/imgs/D105.png""]","false","random","","",""
"","","","","","html-keyboard-response","180","293627","0.0-15.0-0.2-0.17","vcpxfuftks","","vcpxfuftks","""2024-11-13T15:55:20.751Z""","null","+","null","","","","","","",""
"","","","","","image-keyboard-response","181","294220","0.0-15.0-0.2-1.17","vcpxfuftks","","vcpxfuftks","""2024-11-13T15:55:20.751Z""","591","materials/imgs/D17.png","arrowright","","[""materials/imgs/D78.png"",""materials/imgs/D36.png""]","false","random","","",""
"","","","","","html-keyboard-response","182","294723","0.0-15.0-0.2-0.18","vcpxfuftks","","vcpxfuftks","""2024-11-13T15:55:20.751Z""","null","+","null","","","","","","",""
"","","","","","image-keyboard-response","183","295521","0.0-15.0-0.2-1.18","vcpxfuftks","","vcpxfuftks","""2024-11-13T15:55:20.751Z""","796","materials/imgs/D37.png","arrowright","","[""materials/imgs/D87.png"",""materials/imgs/D105.png""]","false","random","","",""
"","","","","","html-keyboard-response","184","296024","0.0-15.0-0.2-0.19","vcpxfuftks","","vcpxfuftks","""2024-11-13T15:55:20.751Z""","null","+","null","","","","","","",""
"","","","","","image-keyboard-response","185","297397","0.0-15.0-0.2-1.19","vcpxfuftks","","vcpxfuftks","""2024-11-13T15:55:20.751Z""","1370","materials/imgs/D53.png","arrowright","","[""materials/imgs/D46.png"",""materials/imgs/D106.png""]","false","random","","",""
"","","","","","html-keyboard-response","186","297899","0.0-15.0-0.2-0.20","vcpxfuftks","","vcpxfuftks","""2024-11-13T15:55:20.751Z""","null","+","null","","","","","","",""
"","","","","","image-keyboard-response","187","298584","0.0-15.0-0.2-1.20","vcpxfuftks","","vcpxfuftks","""2024-11-13T15:55:20.751Z""","682","materials/imgs/D9.png","arrowleft","","[""materials/imgs/D32.png"",""materials/imgs/D104.png""]","false","random","","",""
"","","","","","html-keyboard-response","188","299086","0.0-15.0-1.2-0.2","vcpxfuftks","","vcpxfuftks","""2024-11-13T15:55:20.751Z""","null","+","null","","","","","","",""
"","","","","","image-keyboard-response","189","299712","0.0-15.0-1.2-1.2","vcpxfuftks","","vcpxfuftks","""2024-11-13T15:55:20.751Z""","624","materials/imgs/D78.png","arrowright","","[""materials/imgs/D76.png"",""materials/imgs/D78.png""]","","check","materials/imgs/D78.png","1","true"
"","","","","","html-keyboard-response","190","300214","0.0-15.0-2.2-0.4","vcpxfuftks","","vcpxfuftks","""2024-11-13T15:55:20.751Z""","null","+","null","","","","","","",""
"","","","","","image-keyboard-response","191","301191","0.0-15.0-2.2-1.4","vcpxfuftks","","vcpxfuftks","""2024-11-13T15:55:20.751Z""","975","materials/imgs/D25.png","arrowright","","[""materials/imgs/D103.png"",""materials/imgs/D64.png""]","false","validation","","",""
"","","","","","html-keyboard-response","192","301693","0.0-15.0-2.2-0.5","vcpxfuftks","","vcpxfuftks","""2024-11-13T15:55:20.751Z""","null","+","null","","","","","","",""
"","","","","","image-keyboard-response","193","302749","0.0-15.0-2.2-1.5","vcpxfuftks","","vcpxfuftks","""2024-11-13T15:55:20.751Z""","1054","materials/imgs/D37.png","arrowleft","","[""materials/imgs/D84.png"",""materials/imgs/D111.png""]","false","validation","","",""
"","","","","","html-keyboard-response","194","303252","0.0-15.0-0.3-0.21","vcpxfuftks","","vcpxfuftks","""2024-11-13T15:55:20.751Z""","null","+","null","","","","","","",""
"","","","","","image-keyboard-response","195","304321","0.0-15.0-0.3-1.21","vcpxfuftks","","vcpxfuftks","""2024-11-13T15:55:20.751Z""","1067","materials/imgs/D4.png","arrowright","","[""materials/imgs/D35.png"",""materials/imgs/D66.png""]","false","random","","",""
"","","","","","html-keyboard-response","196","304824","0.0-15.0-0.3-0.22","vcpxfuftks","","vcpxfuftks","""2024-11-13T15:55:20.751Z""","null","+","null","","","","","","",""
"","","","","","image-keyboard-response","197","305741","0.0-15.0-0.3-1.22","vcpxfuftks","","vcpxfuftks","""2024-11-13T15:55:20.751Z""","915","materials/imgs/D32.png","arrowright","","[""materials/imgs/D96.png"",""materials/imgs/D78.png""]","false","random","","",""
"","","","","","html-keyboard-response","198","306243","0.0-15.0-0.3-0.23","vcpxfuftks","","vcpxfuftks","""2024-11-13T15:55:20.751Z""","null","+","null","","","","","","",""
"","","","","","image-keyboard-response","199","307027","0.0-15.0-0.3-1.23","vcpxfuftks","","vcpxfuftks","""2024-11-13T15:55:20.751Z""","782","materials/imgs/D26.png","arrowright","","[""materials/imgs/D14.png"",""materials/imgs/D64.png""]","false","random","","",""
"","","","","","html-keyboard-response","200","307529","0.0-15.0-0.3-0.24","vcpxfuftks","","vcpxfuftks","""2024-11-13T15:55:20.751Z""","null","+","null","","","","","","",""
"","","","","","image-keyboard-response","201","308739","0.0-15.0-0.3-1.24","vcpxfuftks","","vcpxfuftks","""2024-11-13T15:55:20.751Z""","1208","materials/imgs/D48.png","arrowleft","","[""materials/imgs/D35.png"",""materials/imgs/D49.png""]","false","random","","",""
"","","","","","html-keyboard-response","202","309241","0.0-15.0-0.3-0.25","vcpxfuftks","","vcpxfuftks","""2024-11-13T15:55:20.751Z""","null","+","null","","","","","","",""
"","","","","","image-keyboard-response","203","310593","0.0-15.0-0.3-1.25","vcpxfuftks","","vcpxfuftks","""2024-11-13T15:55:20.751Z""","1350","materials/imgs/D29.png","arrowleft","","[""materials/imgs/D104.png"",""materials/imgs/D46.png""]","false","random","","",""
"","","","","","html-keyboard-response","204","311096","0.0-15.0-0.3-0.26","vcpxfuftks","","vcpxfuftks","""2024-11-13T15:55:20.751Z""","null","+","null","","","","","","",""
"","","","","","image-keyboard-response","205","311735","0.0-15.0-0.3-1.26","vcpxfuftks","","vcpxfuftks","""2024-11-13T15:55:20.751Z""","636","materials/imgs/D35.png","arrowright","","[""materials/imgs/D83.png"",""materials/imgs/D29.png""]","false","random","","",""
"","","","","","html-keyboard-response","206","312237","0.0-15.0-0.3-0.27","vcpxfuftks","","vcpxfuftks","""2024-11-13T15:55:20.751Z""","null","+","null","","","","","","",""
"","","","","","image-keyboard-response","207","313423","0.0-15.0-0.3-1.27","vcpxfuftks","","vcpxfuftks","""2024-11-13T15:55:20.751Z""","1182","materials/imgs/D83.png","arrowright","","[""materials/imgs/D103.png"",""materials/imgs/D6.png""]","false","random","","",""
"","","","","","html-keyboard-response","208","313925","0.0-15.0-1.3-0.3","vcpxfuftks","","vcpxfuftks","""2024-11-13T15:55:20.751Z""","null","+","null","","","","","","",""
"","","","","","image-keyboard-response","209","314527","0.0-15.0-1.3-1.3","vcpxfuftks","","vcpxfuftks","""2024-11-13T15:55:20.751Z""","599","materials/imgs/D53.png","arrowright","","[""materials/imgs/D64.png"",""materials/imgs/D53.png""]","","check","materials/imgs/D53.png","1","true"
"","","","","","html-keyboard-response","210","315029","0.0-15.0-2.3-0.6","vcpxfuftks","","vcpxfuftks","""2024-11-13T15:55:20.751Z""","null","+","null","","","","","","",""
"","","","","","image-keyboard-response","211","316293","0.0-15.0-2.3-1.6","vcpxfuftks","","vcpxfuftks","""2024-11-13T15:55:20.751Z""","1262","materials/imgs/D111.png","arrowleft","","[""materials/imgs/D82.png"",""materials/imgs/D95.png""]","false","validation","","",""
"","","","","","html-keyboard-response","212","316796","0.0-15.0-2.3-0.7","vcpxfuftks","","vcpxfuftks","""2024-11-13T15:55:20.751Z""","null","+","null","","","","","","",""
"","","","","","image-keyboard-response","213","318040","0.0-15.0-2.3-1.7","vcpxfuftks","","vcpxfuftks","""2024-11-13T15:55:20.751Z""","1242","materials/imgs/D106.png","arrowleft","","[""materials/imgs/D57.png"",""materials/imgs/D18.png""]","false","validation","","",""
"","","","","","html-keyboard-response","214","318543","0.0-15.0-0.4-0.28","vcpxfuftks","","vcpxfuftks","""2024-11-13T15:55:20.751Z""","null","+","null","","","","","","",""
"","","","","","image-keyboard-response","215","319305","0.0-15.0-0.4-1.28","vcpxfuftks","","vcpxfuftks","""2024-11-13T15:55:20.751Z""","760","materials/imgs/D17.png","arrowleft","","[""materials/imgs/D78.png"",""materials/imgs/D111.png""]","false","random","","",""
"","","","","","html-keyboard-response","216","319807","0.0-15.0-0.4-0.29","vcpxfuftks","","vcpxfuftks","""2024-11-13T15:55:20.751Z""","null","+","null","","","","","","",""
"","","","","","image-keyboard-response","217","320652","0.0-15.0-0.4-1.29","vcpxfuftks","","vcpxfuftks","""2024-11-13T15:55:20.751Z""","842","materials/imgs/D102.png","arrowright","","[""materials/imgs/D74.png"",""materials/imgs/D11.png""]","false","random","","",""
"","","","","","html-keyboard-response","218","321154","0.0-15.0-0.4-0.30","vcpxfuftks","","vcpxfuftks","""2024-11-13T15:55:20.751Z""","null","+","null","","","","","","",""
"","","","","","image-keyboard-response","219","322063","0.0-15.0-0.4-1.30","vcpxfuftks","","vcpxfuftks","""2024-11-13T15:55:20.751Z""","906","materials/imgs/D4.png","arrowright","","[""materials/imgs/D56.png"",""materials/imgs/D80.png""]","false","random","","",""
"","","","","","html-keyboard-response","220","322565","0.0-15.0-0.4-0.31","vcpxfuftks","","vcpxfuftks","""2024-11-13T15:55:20.751Z""","null","+","null","","","","","","",""
"","","","","","image-keyboard-response","221","323129","0.0-15.0-0.4-1.31","vcpxfuftks","","vcpxfuftks","""2024-11-13T15:55:20.751Z""","563","materials/imgs/D83.png","arrowright","","[""materials/imgs/D81.png"",""materials/imgs/D105.png""]","false","random","","",""
"","","","","","html-keyboard-response","222","323631","0.0-15.0-0.4-0.32","vcpxfuftks","","vcpxfuftks","""2024-11-13T15:55:20.751Z""","null","+","null","","","","","","",""
"","","","","","image-keyboard-response","223","324434","0.0-15.0-0.4-1.32","vcpxfuftks","","vcpxfuftks","""2024-11-13T15:55:20.751Z""","800","materials/imgs/D101.png","arrowright","","[""materials/imgs/D1.png"",""materials/imgs/D102.png""]","false","random","","",""
"","","","","","html-keyboard-response","224","324936","0.0-15.0-0.4-0.33","vcpxfuftks","","vcpxfuftks","""2024-11-13T15:55:20.751Z""","null","+","null","","","","","","",""
"","","","","","image-keyboard-response","225","326029","0.0-15.0-0.4-1.33","vcpxfuftks","","vcpxfuftks","""2024-11-13T15:55:20.751Z""","1090","materials/imgs/D14.png","arrowright","","[""materials/imgs/D26.png"",""materials/imgs/D101.png""]","false","random","","",""
"","","","","","html-keyboard-response","226","326531","0.0-15.0-0.4-0.34","vcpxfuftks","","vcpxfuftks","""2024-11-13T15:55:20.751Z""","null","+","null","","","","","","",""
"","","","","","image-keyboard-response","227","327893","0.0-15.0-0.4-1.34","vcpxfuftks","","vcpxfuftks","""2024-11-13T15:55:20.751Z""","1359","materials/imgs/D68.png","arrowleft","","[""materials/imgs/D14.png"",""materials/imgs/D20.png""]","false","random","","",""
"","","","","","html-keyboard-response","228","328395","0.0-15.0-1.4-0.4","vcpxfuftks","","vcpxfuftks","""2024-11-13T15:55:20.751Z""","null","+","null","","","","","","",""
"","","","","","image-keyboard-response","229","329036","0.0-15.0-1.4-1.4","vcpxfuftks","","vcpxfuftks","""2024-11-13T15:55:20.751Z""","639","materials/imgs/D46.png","arrowleft","","[""materials/imgs/D46.png"",""materials/imgs/D26.png""]","","check","materials/imgs/D46.png","0","true"
"","","","","","html-keyboard-response","230","329538","0.0-15.0-2.4-0.8","vcpxfuftks","","vcpxfuftks","""2024-11-13T15:55:20.751Z""","null","+","null","","","","","","",""
"","","","","","image-keyboard-response","231","330833","0.0-15.0-2.4-1.8","vcpxfuftks","","vcpxfuftks","""2024-11-13T15:55:20.751Z""","1293","materials/imgs/D101.png","arrowleft","","[""materials/imgs/D76.png"",""materials/imgs/D47.png""]","false","validation","","",""
"","","","","","html-keyboard-response","232","331336","0.0-15.0-2.4-0.9","vcpxfuftks","","vcpxfuftks","""2024-11-13T15:55:20.751Z""","null","+","null","","","","","","",""
"","","","","","image-keyboard-response","233","332034","0.0-15.0-2.4-1.9","vcpxfuftks","","vcpxfuftks","""2024-11-13T15:55:20.751Z""","696","materials/imgs/D83.png","arrowright","","[""materials/imgs/D24.png"",""materials/imgs/D8.png""]","false","validation","","",""
"","","","","","html-button-response","234","333987","0.0-16.0","vcpxfuftks","","vcpxfuftks","""2024-11-13T15:55:20.751Z""","1952","You have completed 50% of the trials. Please click 'Continue' when you are ready proceed.","0","","","","","","",""
"","","","","","html-keyboard-response","235","334488","0.0-17.0-0.0-0.0","vcpxfuftks","","vcpxfuftks","""2024-11-13T15:55:20.751Z""","null","+","null","","","","","","",""
"","","","","","image-keyboard-response","236","335150","0.0-17.0-0.0-1.0","vcpxfuftks","","vcpxfuftks","""2024-11-13T15:55:20.751Z""","660","materials/imgs/D53.png","arrowright","","[""materials/imgs/D29.png"",""materials/imgs/D65.png""]","false","random","","",""
"","","","","","html-keyboard-response","237","335652","0.0-17.0-0.0-0.1","vcpxfuftks","","vcpxfuftks","""2024-11-13T15:55:20.751Z""","null","+","null","","","","","","",""
"","","","","","image-keyboard-response","238","336193","0.0-17.0-0.0-1.1","vcpxfuftks","","vcpxfuftks","""2024-11-13T15:55:20.751Z""","538","materials/imgs/D57.png","arrowright","","[""materials/imgs/D8.png"",""materials/imgs/D52.png""]","false","random","","",""
"","","","","","html-keyboard-response","239","336695","0.0-17.0-0.0-0.2","vcpxfuftks","","vcpxfuftks","""2024-11-13T15:55:20.751Z""","null","+","null","","","","","","",""
"","","","","","image-keyboard-response","240","337189","0.0-17.0-0.0-1.2","vcpxfuftks","","vcpxfuftks","""2024-11-13T15:55:20.751Z""","492","materials/imgs/D32.png","arrowright","","[""materials/imgs/D103.png"",""materials/imgs/D36.png""]","true","random","","",""
"","","","","","html-keyboard-response","241","339828","0.0-17.0-0.0-2.2-0.2","vcpxfuftks","","vcpxfuftks","""2024-11-13T15:55:20.751Z""","2637","<p><strong>You're going too fast.</strong><p>Please slow down and assess each triplet.<p>Press 'y' to continue.</p></p>","y","","","","","","",""
"","","","","","html-keyboard-response","242","340330","0.0-17.0-0.0-0.3","vcpxfuftks","","vcpxfuftks","""2024-11-13T15:55:20.751Z""","null","+","null","","","","","","",""
"","","","","","image-keyboard-response","243","341022","0.0-17.0-0.0-1.3","vcpxfuftks","","vcpxfuftks","""2024-11-13T15:55:20.751Z""","691","materials/imgs/D18.png","arrowleft","","[""materials/imgs/D66.png"",""materials/imgs/D22.png""]","false","random","","",""
"","","","","","html-keyboard-response","244","341525","0.0-17.0-0.0-0.4","vcpxfuftks","","vcpxfuftks","""2024-11-13T15:55:20.751Z""","null","+","null","","","","","","",""
"","","","","","image-keyboard-response","245","342275","0.0-17.0-0.0-1.4","vcpxfuftks","","vcpxfuftks","""2024-11-13T15:55:20.751Z""","748","materials/imgs/D102.png","arrowleft","","[""materials/imgs/D35.png"",""materials/imgs/D77.png""]","false","random","","",""
"","","","","","html-keyboard-response","246","342777","0.0-17.0-0.0-0.5","vcpxfuftks","","vcpxfuftks","""2024-11-13T15:55:20.751Z""","null","+","null","","","","","","",""
"","","","","","image-keyboard-response","247","343627","0.0-17.0-0.0-1.5","vcpxfuftks","","vcpxfuftks","""2024-11-13T15:55:20.751Z""","847","materials/imgs/D6.png","arrowleft","","[""materials/imgs/D105.png"",""materials/imgs/D26.png""]","false","random","","",""
"","","","","","html-keyboard-response","248","344129","0.0-17.0-0.0-0.6","vcpxfuftks","","vcpxfuftks","""2024-11-13T15:55:20.751Z""","null","+","null","","","","","","",""
"","","","","","image-keyboard-response","249","344920","0.0-17.0-0.0-1.6","vcpxfuftks","","vcpxfuftks","""2024-11-13T15:55:20.751Z""","790","materials/imgs/D106.png","arrowright","","[""materials/imgs/D26.png"",""materials/imgs/D84.png""]","false","random","","",""
"","","","","","html-keyboard-response","250","345423","0.0-17.0-1.0-0.0","vcpxfuftks","","vcpxfuftks","""2024-11-13T15:55:20.751Z""","null","+","null","","","","","","",""
"","","","","","image-keyboard-response","251","346004","0.0-17.0-1.0-1.0","vcpxfuftks","","vcpxfuftks","""2024-11-13T15:55:20.751Z""","579","materials/imgs/D101.png","arrowright","","[""materials/imgs/D106.png"",""materials/imgs/D101.png""]","","check","materials/imgs/D101.png","1","true"
"","","","","","html-keyboard-response","252","346506","0.0-17.0-2.0-0.0","vcpxfuftks","","vcpxfuftks","""2024-11-13T15:55:20.751Z""","null","+","null","","","","","","",""
"","","","","","image-keyboard-response","253","347107","0.0-17.0-2.0-1.0","vcpxfuftks","","vcpxfuftks","""2024-11-13T15:55:20.751Z""","599","materials/imgs/D105.png","arrowleft","","[""materials/imgs/D106.png"",""materials/imgs/D52.png""]","false","validation","","",""
"","","","","","html-keyboard-response","254","347609","0.0-17.0-2.0-0.1","vcpxfuftks","","vcpxfuftks","""2024-11-13T15:55:20.751Z""","null","+","null","","","","","","",""
"","","","","","image-keyboard-response","255","349053","0.0-17.0-2.0-1.1","vcpxfuftks","","vcpxfuftks","""2024-11-13T15:55:20.751Z""","1441","materials/imgs/D22.png","arrowleft","","[""materials/imgs/D4.png"",""materials/imgs/D25.png""]","false","validation","","",""
"","","","","","html-keyboard-response","256","349555","0.0-17.0-0.1-0.7","vcpxfuftks","","vcpxfuftks","""2024-11-13T15:55:20.751Z""","null","+","null","","","","","","",""
"","","","","","image-keyboard-response","257","351449","0.0-17.0-0.1-1.7","vcpxfuftks","","vcpxfuftks","""2024-11-13T15:55:20.751Z""","1893","materials/imgs/D56.png","arrowright","","[""materials/imgs/D21.png"",""materials/imgs/D79.png""]","false","random","","",""
"","","","","","html-keyboard-response","258","351952","0.0-17.0-0.1-0.8","vcpxfuftks","","vcpxfuftks","""2024-11-13T15:55:20.751Z""","null","+","null","","","","","","",""
"","","","","","image-keyboard-response","259","353496","0.0-17.0-0.1-1.8","vcpxfuftks","","vcpxfuftks","""2024-11-13T15:55:20.751Z""","1542","materials/imgs/D57.png","arrowright","","[""materials/imgs/D64.png"",""materials/imgs/D56.png""]","false","random","","",""
"","","","","","html-keyboard-response","260","353999","0.0-17.0-0.1-0.9","vcpxfuftks","","vcpxfuftks","""2024-11-13T15:55:20.751Z""","null","+","null","","","","","","",""
"","","","","","image-keyboard-response","261","355083","0.0-17.0-0.1-1.9","vcpxfuftks","","vcpxfuftks","""2024-11-13T15:55:20.751Z""","1083","materials/imgs/D83.png","arrowleft","","[""materials/imgs/D85.png"",""materials/imgs/D51.png""]","false","random","","",""
"","","","","","html-keyboard-response","262","355586","0.0-17.0-0.1-0.10","vcpxfuftks","","vcpxfuftks","""2024-11-13T15:55:20.751Z""","null","+","null","","","","","","",""
"","","","","","image-keyboard-response","263","357083","0.0-17.0-0.1-1.10","vcpxfuftks","","vcpxfuftks","""2024-11-13T15:55:20.751Z""","1496","materials/imgs/D75.png","arrowright","","[""materials/imgs/D95.png"",""materials/imgs/D4.png""]","false","random","","",""
"","","","","","html-keyboard-response","264","357585","0.0-17.0-0.1-0.11","vcpxfuftks","","vcpxfuftks","""2024-11-13T15:55:20.751Z""","null","+","null","","","","","","",""
"","","","","","image-keyboard-response","265","358547","0.0-17.0-0.1-1.11","vcpxfuftks","","vcpxfuftks","""2024-11-13T15:55:20.751Z""","961","materials/imgs/D76.png","arrowright","","[""materials/imgs/D94.png"",""materials/imgs/D37.png""]","false","random","","",""
"","","","","","html-keyboard-response","266","359049","0.0-17.0-0.1-0.12","vcpxfuftks","","vcpxfuftks","""2024-11-13T15:55:20.751Z""","null","+","null","","","","","","",""
"","","","","","image-keyboard-response","267","359903","0.0-17.0-0.1-1.12","vcpxfuftks","","vcpxfuftks","""2024-11-13T15:55:20.751Z""","852","materials/imgs/D20.png","arrowright","","[""materials/imgs/D101.png"",""materials/imgs/D95.png""]","false","random","","",""
"","","","","","html-keyboard-response","268","360405","0.0-17.0-0.1-0.13","vcpxfuftks","","vcpxfuftks","""2024-11-13T15:55:20.751Z""","null","+","null","","","","","","",""
"","","","","","image-keyboard-response","269","361965","0.0-17.0-0.1-1.13","vcpxfuftks","","vcpxfuftks","""2024-11-13T15:55:20.751Z""","1558","materials/imgs/D81.png","arrowleft","","[""materials/imgs/D8.png"",""materials/imgs/D75.png""]","false","random","","",""
"","","","","","html-keyboard-response","270","362467","0.0-17.0-1.1-0.1","vcpxfuftks","","vcpxfuftks","""2024-11-13T15:55:20.751Z""","null","+","null","","","","","","",""
"","","","","","image-keyboard-response","271","363157","0.0-17.0-1.1-1.1","vcpxfuftks","","vcpxfuftks","""2024-11-13T15:55:20.751Z""","688","materials/imgs/D76.png","arrowleft","","[""materials/imgs/D76.png"",""materials/imgs/D78.png""]","","check","materials/imgs/D76.png","0","true"
"","","","","","html-keyboard-response","272","363659","0.0-17.0-2.1-0.2","vcpxfuftks","","vcpxfuftks","""2024-11-13T15:55:20.751Z""","null","+","null","","","","","","",""
"","","","","","image-keyboard-response","273","365340","0.0-17.0-2.1-1.2","vcpxfuftks","","vcpxfuftks","""2024-11-13T15:55:20.751Z""","1679","materials/imgs/D82.png","arrowright","","[""materials/imgs/D83.png"",""materials/imgs/D22.png""]","false","validation","","",""
"","","","","","html-keyboard-response","274","365843","0.0-17.0-2.1-0.3","vcpxfuftks","","vcpxfuftks","""2024-11-13T15:55:20.751Z""","null","+","null","","","","","","",""
"","","","","","image-keyboard-response","275","366968","0.0-17.0-2.1-1.3","vcpxfuftks","","vcpxfuftks","""2024-11-13T15:55:20.751Z""","1123","materials/imgs/D4.png","arrowright","","[""materials/imgs/D52.png"",""materials/imgs/D83.png""]","false","validation","","",""
"","","","","","html-keyboard-response","276","367470","0.0-17.0-0.2-0.14","vcpxfuftks","","vcpxfuftks","""2024-11-13T15:55:20.751Z""","null","+","null","","","","","","",""
"","","","","","image-keyboard-response","277","368032","0.0-17.0-0.2-1.14","vcpxfuftks","","vcpxfuftks","""2024-11-13T15:55:20.751Z""","560","materials/imgs/D55.png","arrowright","","[""materials/imgs/D87.png"",""materials/imgs/D36.png""]","false","random","","",""
"","","","","","html-keyboard-response","278","368534","0.0-17.0-0.2-0.15","vcpxfuftks","","vcpxfuftks","""2024-11-13T15:55:20.751Z""","null","+","null","","","","","","",""
"","","","","","image-keyboard-response","279","369247","0.0-17.0-0.2-1.15","vcpxfuftks","","vcpxfuftks","""2024-11-13T15:55:20.751Z""","710","materials/imgs/D57.png","arrowright","","[""materials/imgs/D78.png"",""materials/imgs/D76.png""]","false","random","","",""
"","","","","","html-keyboard-response","280","369749","0.0-17.0-0.2-0.16","vcpxfuftks","","vcpxfuftks","""2024-11-13T15:55:20.751Z""","null","+","null","","","","","","",""
"","","","","","image-keyboard-response","281","370779","0.0-17.0-0.2-1.16","vcpxfuftks","","vcpxfuftks","""2024-11-13T15:55:20.751Z""","1029","materials/imgs/D34.png","arrowright","","[""materials/imgs/D77.png"",""materials/imgs/D103.png""]","false","random","","",""
"","","","","","html-keyboard-response","282","371281","0.0-17.0-0.2-0.17","vcpxfuftks","","vcpxfuftks","""2024-11-13T15:55:20.751Z""","null","+","null","","","","","","",""
"","","","","","image-keyboard-response","283","372015","0.0-17.0-0.2-1.17","vcpxfuftks","","vcpxfuftks","""2024-11-13T15:55:20.751Z""","730","materials/imgs/D34.png","arrowright","","[""materials/imgs/D49.png"",""materials/imgs/D24.png""]","false","random","","",""
"","","","","","html-keyboard-response","284","372518","0.0-17.0-0.2-0.18","vcpxfuftks","","vcpxfuftks","""2024-11-13T15:55:20.751Z""","null","+","null","","","","","","",""
"","","","","","image-keyboard-response","285","373135","0.0-17.0-0.2-1.18","vcpxfuftks","","vcpxfuftks","""2024-11-13T15:55:20.751Z""","614","materials/imgs/D76.png","arrowright","","[""materials/imgs/D74.png"",""materials/imgs/D53.png""]","false","random","","",""
"","","","","","html-keyboard-response","286","373638","0.0-17.0-0.2-0.19","vcpxfuftks","","vcpxfuftks","""2024-11-13T15:55:20.751Z""","null","+","null","","","","","","",""
"","","","","","image-keyboard-response","287","374929","0.0-17.0-0.2-1.19","vcpxfuftks","","vcpxfuftks","""2024-11-13T15:55:20.751Z""","1289","materials/imgs/D18.png","arrowright","","[""materials/imgs/D36.png"",""materials/imgs/D47.png""]","false","random","","",""
"","","","","","html-keyboard-response","288","375432","0.0-17.0-0.2-0.20","vcpxfuftks","","vcpxfuftks","""2024-11-13T15:55:20.751Z""","null","+","null","","","","","","",""
"","","","","","image-keyboard-response","289","377129","0.0-17.0-0.2-1.20","vcpxfuftks","","vcpxfuftks","""2024-11-13T15:55:20.751Z""","1694","materials/imgs/D6.png","arrowleft","","[""materials/imgs/D47.png"",""materials/imgs/D74.png""]","false","random","","",""
"","","","","","html-keyboard-response","290","377631","0.0-17.0-1.2-0.2","vcpxfuftks","","vcpxfuftks","""2024-11-13T15:55:20.751Z""","null","+","null","","","","","","",""
"","","","","","image-keyboard-response","291","378276","0.0-17.0-1.2-1.2","vcpxfuftks","","vcpxfuftks","""2024-11-13T15:55:20.751Z""","642","materials/imgs/D78.png","arrowright","","[""materials/imgs/D76.png"",""materials/imgs/D78.png""]","","check","materials/imgs/D78.png","1","true"
"","","","","","html-keyboard-response","292","378778","0.0-17.0-2.2-0.4","vcpxfuftks","","vcpxfuftks","""2024-11-13T15:55:20.751Z""","null","+","null","","","","","","",""
"","","","","","image-keyboard-response","293","380032","0.0-17.0-2.2-1.4","vcpxfuftks","","vcpxfuftks","""2024-11-13T15:55:20.751Z""","1252","materials/imgs/D66.png","arrowright","","[""materials/imgs/D85.png"",""materials/imgs/D25.png""]","false","validation","","",""
"","","","","","html-keyboard-response","294","380535","0.0-17.0-2.2-0.5","vcpxfuftks","","vcpxfuftks","""2024-11-13T15:55:20.751Z""","null","+","null","","","","","","",""
"","","","","","image-keyboard-response","295","381469","0.0-17.0-2.2-1.5","vcpxfuftks","","vcpxfuftks","""2024-11-13T15:55:20.751Z""","932","materials/imgs/D77.png","arrowright","","[""materials/imgs/D102.png"",""materials/imgs/D65.png""]","false","validation","","",""
"","","","","","html-keyboard-response","296","381971","0.0-17.0-0.3-0.21","vcpxfuftks","","vcpxfuftks","""2024-11-13T15:55:20.751Z""","null","+","null","","","","","","",""
"","","","","","image-keyboard-response","297","382503","0.0-17.0-0.3-1.21","vcpxfuftks","","vcpxfuftks","""2024-11-13T15:55:20.751Z""","528","materials/imgs/D77.png","arrowright","","[""materials/imgs/D111.png"",""materials/imgs/D95.png""]","false","random","","",""
"","","","","","html-keyboard-response","298","383005","0.0-17.0-0.3-0.22","vcpxfuftks","","vcpxfuftks","""2024-11-13T15:55:20.751Z""","null","+","null","","","","","","",""
"","","","","","image-keyboard-response","299","383527","0.0-17.0-0.3-1.22","vcpxfuftks","","vcpxfuftks","""2024-11-13T15:55:20.751Z""","519","materials/imgs/D78.png","arrowright","","[""materials/imgs/D82.png"",""materials/imgs/D6.png""]","false","random","","",""
"","","","","","html-keyboard-response","300","384028","0.0-17.0-0.3-0.23","vcpxfuftks","","vcpxfuftks","""2024-11-13T15:55:20.751Z""","null","+","null","","","","","","",""
"","","","","","image-keyboard-response","301","385504","0.0-17.0-0.3-1.23","vcpxfuftks","","vcpxfuftks","""2024-11-13T15:55:20.751Z""","1473","materials/imgs/D64.png","arrowright","","[""materials/imgs/D57.png"",""materials/imgs/D36.png""]","false","random","","",""
"","","","","","html-keyboard-response","302","386006","0.0-17.0-0.3-0.24","vcpxfuftks","","vcpxfuftks","""2024-11-13T15:55:20.751Z""","null","+","null","","","","","","",""
"","","","","","image-keyboard-response","303","387645","0.0-17.0-0.3-1.24","vcpxfuftks","","vcpxfuftks","""2024-11-13T15:55:20.751Z""","1638","materials/imgs/D29.png","arrowleft","","[""materials/imgs/D57.png"",""materials/imgs/D16.png""]","false","random","","",""
"","","","","","html-keyboard-response","304","388148","0.0-17.0-0.3-0.25","vcpxfuftks","","vcpxfuftks","""2024-11-13T15:55:20.751Z""","null","+","null","","","","","","",""
"","","","","","image-keyboard-response","305","389511","0.0-17.0-0.3-1.25","vcpxfuftks","","vcpxfuftks","""2024-11-13T15:55:20.751Z""","1362","materials/imgs/D95.png","arrowleft","","[""materials/imgs/D101.png"",""materials/imgs/D6.png""]","false","random","","",""
"","","","","","html-keyboard-response","306","390013","0.0-17.0-0.3-0.26","vcpxfuftks","","vcpxfuftks","""2024-11-13T15:55:20.751Z""","null","+","null","","","","","","",""
"","","","","","image-keyboard-response","307","391175","0.0-17.0-0.3-1.26","vcpxfuftks","","vcpxfuftks","""2024-11-13T15:55:20.751Z""","1159","materials/imgs/D105.png","arrowright","","[""materials/imgs/D20.png"",""materials/imgs/D35.png""]","false","random","","",""
"","","","","","html-keyboard-response","308","391677","0.0-17.0-0.3-0.27","vcpxfuftks","","vcpxfuftks","""2024-11-13T15:55:20.751Z""","null","+","null","","","","","","",""
"","","","","","image-keyboard-response","309","393515","0.0-17.0-0.3-1.27","vcpxfuftks","","vcpxfuftks","""2024-11-13T15:55:20.751Z""","1837","materials/imgs/D35.png","arrowleft","","[""materials/imgs/D18.png"",""materials/imgs/D56.png""]","false","random","","",""
"","","","","","html-keyboard-response","310","394017","0.0-17.0-1.3-0.3","vcpxfuftks","","vcpxfuftks","""2024-11-13T15:55:20.751Z""","null","+","null","","","","","","",""
"","","","","","image-keyboard-response","311","394659","0.0-17.0-1.3-1.3","vcpxfuftks","","vcpxfuftks","""2024-11-13T15:55:20.751Z""","640","materials/imgs/D8.png","arrowright","","[""materials/imgs/D18.png"",""materials/imgs/D8.png""]","","check","materials/imgs/D8.png","1","true"
"","","","","","html-keyboard-response","312","395161","0.0-17.0-2.3-0.6","vcpxfuftks","","vcpxfuftks","""2024-11-13T15:55:20.751Z""","null","+","null","","","","","","",""
"","","","","","image-keyboard-response","313","396312","0.0-17.0-2.3-1.6","vcpxfuftks","","vcpxfuftks","""2024-11-13T15:55:20.751Z""","1149","materials/imgs/D85.png","arrowleft","","[""materials/imgs/D6.png"",""materials/imgs/D111.png""]","false","validation","","",""
"","","","","","html-keyboard-response","314","396813","0.0-17.0-2.3-0.7","vcpxfuftks","","vcpxfuftks","""2024-11-13T15:55:20.751Z""","null","+","null","","","","","","",""
"","","","","","image-keyboard-response","315","398816","0.0-17.0-2.3-1.7","vcpxfuftks","","vcpxfuftks","""2024-11-13T15:55:20.751Z""","2000","materials/imgs/D47.png","arrowleft","","[""materials/imgs/D1.png"",""materials/imgs/D52.png""]","false","validation","","",""
"","","","","","html-keyboard-response","316","399318","0.0-17.0-0.4-0.28","vcpxfuftks","","vcpxfuftks","""2024-11-13T15:55:20.751Z""","null","+","null","","","","","","",""
"","","","","","image-keyboard-response","317","400664","0.0-17.0-0.4-1.28","vcpxfuftks","","vcpxfuftks","""2024-11-13T15:55:20.751Z""","1343","materials/imgs/D6.png","arrowright","","[""materials/imgs/D81.png"",""materials/imgs/D19.png""]","false","random","","",""
"","","","","","html-keyboard-response","318","401166","0.0-17.0-0.4-0.29","vcpxfuftks","","vcpxfuftks","""2024-11-13T15:55:20.751Z""","null","+","null","","","","","","",""
"","","","","","image-keyboard-response","319","402750","0.0-17.0-0.4-1.29","vcpxfuftks","","vcpxfuftks","""2024-11-13T15:55:20.751Z""","1581","materials/imgs/D74.png","arrowright","","[""materials/imgs/D106.png"",""materials/imgs/D51.png""]","false","random","","",""
"","","","","","html-keyboard-response","320","403252","0.0-17.0-0.4-0.30","vcpxfuftks","","vcpxfuftks","""2024-11-13T15:55:20.751Z""","null","+","null","","","","","","",""
"","","","","","image-keyboard-response","321","404157","0.0-17.0-0.4-1.30","vcpxfuftks","","vcpxfuftks","""2024-11-13T15:55:20.751Z""","903","materials/imgs/D21.png","arrowright","","[""materials/imgs/D4.png"",""materials/imgs/D92.png""]","false","random","","",""
"","","","","","html-keyboard-response","322","404659","0.0-17.0-0.4-0.31","vcpxfuftks","","vcpxfuftks","""2024-11-13T15:55:20.751Z""","null","+","null","","","","","","",""
"","","","","","image-keyboard-response","323","406182","0.0-17.0-0.4-1.31","vcpxfuftks","","vcpxfuftks","""2024-11-13T15:55:20.751Z""","1521","materials/imgs/D76.png","arrowleft","","[""materials/imgs/D47.png"",""materials/imgs/D21.png""]","false","random","","",""
"","","","","","html-keyboard-response","324","406685","0.0-17.0-0.4-0.32","vcpxfuftks","","vcpxfuftks","""2024-11-13T15:55:20.751Z""","null","+","null","","","","","","",""
"","","","","","image-keyboard-response","325","407302","0.0-17.0-0.4-1.32","vcpxfuftks","","vcpxfuftks","""2024-11-13T15:55:20.751Z""","616","materials/imgs/D57.png","arrowright","","[""materials/imgs/D75.png"",""materials/imgs/D36.png""]","false","random","","",""
"","","","","","html-keyboard-response","326","407804","0.0-17.0-0.4-0.33","vcpxfuftks","","vcpxfuftks","""2024-11-13T15:55:20.751Z""","null","+","null","","","","","","",""
"","","","","","image-keyboard-response","327","408653","0.0-17.0-0.4-1.33","vcpxfuftks","","vcpxfuftks","""2024-11-13T15:55:20.751Z""","847","materials/imgs/D79.png","arrowright","","[""materials/imgs/D57.png"",""materials/imgs/D92.png""]","false","random","","",""
"","","","","","html-keyboard-response","328","409156","0.0-17.0-0.4-0.34","vcpxfuftks","","vcpxfuftks","""2024-11-13T15:55:20.751Z""","null","+","null","","","","","","",""
"","","","","","image-keyboard-response","329","410040","0.0-17.0-0.4-1.34","vcpxfuftks","","vcpxfuftks","""2024-11-13T15:55:20.751Z""","882","materials/imgs/D75.png","arrowright","","[""materials/imgs/D87.png"",""materials/imgs/D52.png""]","false","random","","",""
"","","","","","html-keyboard-response","330","410543","0.0-17.0-1.4-0.4","vcpxfuftks","","vcpxfuftks","""2024-11-13T15:55:20.751Z""","null","+","null","","","","","","",""
"","","","","","image-keyboard-response","331","411133","0.0-17.0-1.4-1.4","vcpxfuftks","","vcpxfuftks","""2024-11-13T15:55:20.751Z""","589","materials/imgs/D18.png","arrowright","","[""materials/imgs/D8.png"",""materials/imgs/D18.png""]","","check","materials/imgs/D18.png","1","true"
"","","","","","html-keyboard-response","332","411635","0.0-17.0-2.4-0.8","vcpxfuftks","","vcpxfuftks","""2024-11-13T15:55:20.751Z""","null","+","null","","","","","","",""
"","","","","","image-keyboard-response","333","413356","0.0-17.0-2.4-1.8","vcpxfuftks","","vcpxfuftks","""2024-11-13T15:55:20.751Z""","1718","materials/imgs/D84.png","arrowright","","[""materials/imgs/D106.png"",""materials/imgs/D37.png""]","false","validation","","",""
"","","","","","html-keyboard-response","334","413858","0.0-17.0-2.4-0.9","vcpxfuftks","","vcpxfuftks","""2024-11-13T15:55:20.751Z""","null","+","null","","","","","","",""
"","","","","","image-keyboard-response","335","415344","0.0-17.0-2.4-1.9","vcpxfuftks","","vcpxfuftks","""2024-11-13T15:55:20.751Z""","1485","materials/imgs/D35.png","arrowright","","[""materials/imgs/D83.png"",""materials/imgs/D24.png""]","false","validation","","",""
"","","","","","html-button-response","336","417268","0.0-18.0","vcpxfuftks","","vcpxfuftks","""2024-11-13T15:55:20.751Z""","1922","You have completed 75% of the trials. Please click 'Continue' when you are ready proceed.","0","","","","","","",""
"","","","","","html-keyboard-response","337","417768","0.0-19.0-0.0-0.0","vcpxfuftks","","vcpxfuftks","""2024-11-13T15:55:20.751Z""","null","+","null","","","","","","",""
"","","","","","image-keyboard-response","338","418698","0.0-19.0-0.0-1.0","vcpxfuftks","","vcpxfuftks","""2024-11-13T15:55:20.751Z""","928","materials/imgs/D3.png","arrowleft","","[""materials/imgs/D56.png"",""materials/imgs/D1.png""]","false","random","","",""
"","","","","","html-keyboard-response","339","419200","0.0-19.0-0.0-0.1","vcpxfuftks","","vcpxfuftks","""2024-11-13T15:55:20.751Z""","null","+","null","","","","","","",""
"","","","","","image-keyboard-response","340","419706","0.0-19.0-0.0-1.1","vcpxfuftks","","vcpxfuftks","""2024-11-13T15:55:20.751Z""","504","materials/imgs/D8.png","arrowright","","[""materials/imgs/D9.png"",""materials/imgs/D1.png""]","false","random","","",""
"","","","","","html-keyboard-response","341","420208","0.0-19.0-0.0-0.2","vcpxfuftks","","vcpxfuftks","""2024-11-13T15:55:20.751Z""","null","+","null","","","","","","",""
"","","","","","image-keyboard-response","342","420886","0.0-19.0-0.0-1.2","vcpxfuftks","","vcpxfuftks","""2024-11-13T15:55:20.751Z""","676","materials/imgs/D84.png","arrowleft","","[""materials/imgs/D22.png"",""materials/imgs/D20.png""]","false","random","","",""
"","","","","","html-keyboard-response","343","421388","0.0-19.0-0.0-0.3","vcpxfuftks","","vcpxfuftks","""2024-11-13T15:55:20.751Z""","null","+","null","","","","","","",""
"","","","","","image-keyboard-response","344","423546","0.0-19.0-0.0-1.3","vcpxfuftks","","vcpxfuftks","""2024-11-13T15:55:20.751Z""","2156","materials/imgs/D48.png","arrowright","","[""materials/imgs/D76.png"",""materials/imgs/D106.png""]","false","random","","",""
"","","","","","html-keyboard-response","345","424048","0.0-19.0-0.0-0.4","vcpxfuftks","","vcpxfuftks","""2024-11-13T15:55:20.751Z""","null","+","null","","","","","","",""
"","","","","","image-keyboard-response","346","424627","0.0-19.0-0.0-1.4","vcpxfuftks","","vcpxfuftks","""2024-11-13T15:55:20.751Z""","577","materials/imgs/D78.png","arrowright","","[""materials/imgs/D26.png"",""materials/imgs/D106.png""]","false","random","","",""
"","","","","","html-keyboard-response","347","425129","0.0-19.0-0.0-0.5","vcpxfuftks","","vcpxfuftks","""2024-11-13T15:55:20.751Z""","null","+","null","","","","","","",""
"","","","","","image-keyboard-response","348","425641","0.0-19.0-0.0-1.5","vcpxfuftks","","vcpxfuftks","""2024-11-13T15:55:20.751Z""","509","materials/imgs/D56.png","arrowright","","[""materials/imgs/D96.png"",""materials/imgs/D65.png""]","false","random","","",""
"","","","","","html-keyboard-response","349","426143","0.0-19.0-0.0-0.6","vcpxfuftks","","vcpxfuftks","""2024-11-13T15:55:20.751Z""","null","+","null","","","","","","",""
"","","","","","image-keyboard-response","350","427132","0.0-19.0-0.0-1.6","vcpxfuftks","","vcpxfuftks","""2024-11-13T15:55:20.751Z""","986","materials/imgs/D96.png","arrowright","","[""materials/imgs/D78.png"",""materials/imgs/D106.png""]","false","random","","",""
"","","","","","html-keyboard-response","351","427634","0.0-19.0-1.0-0.0","vcpxfuftks","","vcpxfuftks","""2024-11-13T15:55:20.751Z""","null","+","null","","","","","","",""
"","","","","","image-keyboard-response","352","428234","0.0-19.0-1.0-1.0","vcpxfuftks","","vcpxfuftks","""2024-11-13T15:55:20.751Z""","598","materials/imgs/D8.png","arrowright","","[""materials/imgs/D18.png"",""materials/imgs/D8.png""]","","check","materials/imgs/D8.png","1","true"
"","","","","","html-keyboard-response","353","428736","0.0-19.0-2.0-0.0","vcpxfuftks","","vcpxfuftks","""2024-11-13T15:55:20.751Z""","null","+","null","","","","","","",""
"","","","","","image-keyboard-response","354","429649","0.0-19.0-2.0-1.0","vcpxfuftks","","vcpxfuftks","""2024-11-13T15:55:20.751Z""","911","materials/imgs/D66.png","arrowright","","[""materials/imgs/D85.png"",""materials/imgs/D25.png""]","false","validation","","",""
"","","","","","html-keyboard-response","355","430151","0.0-19.0-2.0-0.1","vcpxfuftks","","vcpxfuftks","""2024-11-13T15:55:20.751Z""","null","+","null","","","","","","",""
"","","","","","image-keyboard-response","356","430775","0.0-19.0-2.0-1.1","vcpxfuftks","","vcpxfuftks","""2024-11-13T15:55:20.751Z""","622","materials/imgs/D26.png","arrowright","","[""materials/imgs/D36.png"",""materials/imgs/D92.png""]","false","validation","","",""
"","","","","","html-keyboard-response","357","431277","0.0-19.0-0.1-0.7","vcpxfuftks","","vcpxfuftks","""2024-11-13T15:55:20.751Z""","null","+","null","","","","","","",""
"","","","","","image-keyboard-response","358","433002","0.0-19.0-0.1-1.7","vcpxfuftks","","vcpxfuftks","""2024-11-13T15:55:20.751Z""","1723","materials/imgs/D87.png","arrowleft","","[""materials/imgs/D17.png"",""materials/imgs/D9.png""]","false","random","","",""
"","","","","","html-keyboard-response","359","433504","0.0-19.0-0.1-0.8","vcpxfuftks","","vcpxfuftks","""2024-11-13T15:55:20.751Z""","null","+","null","","","","","","",""
"","","","","","image-keyboard-response","360","434329","0.0-19.0-0.1-1.8","vcpxfuftks","","vcpxfuftks","""2024-11-13T15:55:20.751Z""","823","materials/imgs/D84.png","arrowright","","[""materials/imgs/D49.png"",""materials/imgs/D24.png""]","false","random","","",""
"","","","","","html-keyboard-response","361","434832","0.0-19.0-0.1-0.9","vcpxfuftks","","vcpxfuftks","""2024-11-13T15:55:20.751Z""","null","+","null","","","","","","",""
"","","","","","image-keyboard-response","362","436168","0.0-19.0-0.1-1.9","vcpxfuftks","","vcpxfuftks","""2024-11-13T15:55:20.751Z""","1332","materials/imgs/D92.png","arrowleft","","[""materials/imgs/D80.png"",""materials/imgs/D81.png""]","false","random","","",""
"","","","","","html-keyboard-response","363","436671","0.0-19.0-0.1-0.10","vcpxfuftks","","vcpxfuftks","""2024-11-13T15:55:20.751Z""","null","+","null","","","","","","",""
"","","","","","image-keyboard-response","364","438547","0.0-19.0-0.1-1.10","vcpxfuftks","","vcpxfuftks","""2024-11-13T15:55:20.751Z""","1873","materials/imgs/D75.png","arrowleft","","[""materials/imgs/D32.png"",""materials/imgs/D103.png""]","false","random","","",""
"","","","","","html-keyboard-response","365","439049","0.0-19.0-0.1-0.11","vcpxfuftks","","vcpxfuftks","""2024-11-13T15:55:20.751Z""","null","+","null","","","","","","",""
"","","","","","image-keyboard-response","366","440064","0.0-19.0-0.1-1.11","vcpxfuftks","","vcpxfuftks","""2024-11-13T15:55:20.751Z""","1011","materials/imgs/D25.png","arrowright","","[""materials/imgs/D78.png"",""materials/imgs/D94.png""]","false","random","","",""
"","","","","","html-keyboard-response","367","440566","0.0-19.0-0.1-0.12","vcpxfuftks","","vcpxfuftks","""2024-11-13T15:55:20.751Z""","null","+","null","","","","","","",""
"","","","","","image-keyboard-response","368","441654","0.0-19.0-0.1-1.12","vcpxfuftks","","vcpxfuftks","""2024-11-13T15:55:20.751Z""","1085","materials/imgs/D84.png","arrowleft","","[""materials/imgs/D51.png"",""materials/imgs/D56.png""]","false","random","","",""
"","","","","","html-keyboard-response","369","442156","0.0-19.0-0.1-0.13","vcpxfuftks","","vcpxfuftks","""2024-11-13T15:55:20.751Z""","null","+","null","","","","","","",""
"","","","","","image-keyboard-response","370","443579","0.0-19.0-0.1-1.13","vcpxfuftks","","vcpxfuftks","""2024-11-13T15:55:20.751Z""","1421","materials/imgs/D82.png","arrowleft","","[""materials/imgs/D79.png"",""materials/imgs/D4.png""]","false","random","","",""
"","","","","","html-keyboard-response","371","444082","0.0-19.0-1.1-0.1","vcpxfuftks","","vcpxfuftks","""2024-11-13T15:55:20.751Z""","null","+","null","","","","","","",""
"","","","","","image-keyboard-response","372","444741","0.0-19.0-1.1-1.1","vcpxfuftks","","vcpxfuftks","""2024-11-13T15:55:20.751Z""","657","materials/imgs/D18.png","arrowright","","[""materials/imgs/D8.png"",""materials/imgs/D18.png""]","","check","materials/imgs/D18.png","1","true"
"","","","","","html-keyboard-response","373","445244","0.0-19.0-2.1-0.2","vcpxfuftks","","vcpxfuftks","""2024-11-13T15:55:20.751Z""","null","+","null","","","","","","",""
"","","","","","image-keyboard-response","374","446237","0.0-19.0-2.1-1.2","vcpxfuftks","","vcpxfuftks","""2024-11-13T15:55:20.751Z""","991","materials/imgs/D106.png","arrowleft","","[""materials/imgs/D57.png"",""materials/imgs/D18.png""]","false","validation","","",""
"","","","","","html-keyboard-response","375","446740","0.0-19.0-2.1-0.3","vcpxfuftks","","vcpxfuftks","""2024-11-13T15:55:20.751Z""","null","+","null","","","","","","",""
"","","","","","image-keyboard-response","376","447777","0.0-19.0-2.1-1.3","vcpxfuftks","","vcpxfuftks","""2024-11-13T15:55:20.751Z""","1034","materials/imgs/D3.png","arrowleft","","[""materials/imgs/D79.png"",""materials/imgs/D48.png""]","false","validation","","",""
"","","","","","html-keyboard-response","377","448280","0.0-19.0-0.2-0.14","vcpxfuftks","","vcpxfuftks","""2024-11-13T15:55:20.751Z""","null","+","null","","","","","","",""
"","","","","","image-keyboard-response","378","449363","0.0-19.0-0.2-1.14","vcpxfuftks","","vcpxfuftks","""2024-11-13T15:55:20.751Z""","1081","materials/imgs/D11.png","arrowright","","[""materials/imgs/D32.png"",""materials/imgs/D105.png""]","false","random","","",""
"","","","","","html-keyboard-response","379","449865","0.0-19.0-0.2-0.15","vcpxfuftks","","vcpxfuftks","""2024-11-13T15:55:20.751Z""","null","+","null","","","","","","",""
"","","","","","image-keyboard-response","380","451001","0.0-19.0-0.2-1.15","vcpxfuftks","","vcpxfuftks","""2024-11-13T15:55:20.751Z""","1133","materials/imgs/D20.png","arrowright","","[""materials/imgs/D57.png"",""materials/imgs/D1.png""]","false","random","","",""
"","","","","","html-keyboard-response","381","451504","0.0-19.0-0.2-0.16","vcpxfuftks","","vcpxfuftks","""2024-11-13T15:55:20.751Z""","null","+","null","","","","","","",""
"","","","","","image-keyboard-response","382","453397","0.0-19.0-0.2-1.16","vcpxfuftks","","vcpxfuftks","""2024-11-13T15:55:20.751Z""","1891","materials/imgs/D29.png","arrowleft","","[""materials/imgs/D77.png"",""materials/imgs/D51.png""]","false","random","","",""
"","","","","","html-keyboard-response","383","453899","0.0-19.0-0.2-0.17","vcpxfuftks","","vcpxfuftks","""2024-11-13T15:55:20.751Z""","null","+","null","","","","","","",""
"","","","","","image-keyboard-response","384","455437","0.0-19.0-0.2-1.17","vcpxfuftks","","vcpxfuftks","""2024-11-13T15:55:20.751Z""","1536","materials/imgs/D65.png","arrowright","","[""materials/imgs/D34.png"",""materials/imgs/D19.png""]","false","random","","",""
"","","","","","html-keyboard-response","385","455939","0.0-19.0-0.2-0.18","vcpxfuftks","","vcpxfuftks","""2024-11-13T15:55:20.751Z""","null","+","null","","","","","","",""
"","","","","","image-keyboard-response","386","457843","0.0-19.0-0.2-1.18","vcpxfuftks","","vcpxfuftks","""2024-11-13T15:55:20.751Z""","1902","materials/imgs/D95.png","arrowright","","[""materials/imgs/D78.png"",""materials/imgs/D18.png""]","false","random","","",""
"","","","","","html-keyboard-response","387","458345","0.0-19.0-0.2-0.19","vcpxfuftks","","vcpxfuftks","""2024-11-13T15:55:20.751Z""","null","+","null","","","","","","",""
"","","","","","image-keyboard-response","388","459922","0.0-19.0-0.2-1.19","vcpxfuftks","","vcpxfuftks","""2024-11-13T15:55:20.751Z""","1574","materials/imgs/D36.png","arrowright","","[""materials/imgs/D76.png"",""materials/imgs/D18.png""]","false","random","","",""
"","","","","","html-keyboard-response","389","460424","0.0-19.0-0.2-0.20","vcpxfuftks","","vcpxfuftks","""2024-11-13T15:55:20.751Z""","null","+","null","","","","","","",""
"","","","","","image-keyboard-response","390","461162","0.0-19.0-0.2-1.20","vcpxfuftks","","vcpxfuftks","""2024-11-13T15:55:20.751Z""","735","materials/imgs/D53.png","arrowleft","","[""materials/imgs/D6.png"",""materials/imgs/D19.png""]","false","random","","",""
"","","","","","html-keyboard-response","391","461664","0.0-19.0-1.2-0.2","vcpxfuftks","","vcpxfuftks","""2024-11-13T15:55:20.751Z""","null","+","null","","","","","","",""
"","","","","","image-keyboard-response","392","462205","0.0-19.0-1.2-1.2","vcpxfuftks","","vcpxfuftks","""2024-11-13T15:55:20.751Z""","539","materials/imgs/D18.png","arrowright","","[""materials/imgs/D8.png"",""materials/imgs/D18.png""]","","check","materials/imgs/D18.png","1","true"
"","","","","","html-keyboard-response","393","462707","0.0-19.0-2.2-0.4","vcpxfuftks","","vcpxfuftks","""2024-11-13T15:55:20.751Z""","null","+","null","","","","","","",""
"","","","","","image-keyboard-response","394","463621","0.0-19.0-2.2-1.4","vcpxfuftks","","vcpxfuftks","""2024-11-13T15:55:20.751Z""","911","materials/imgs/D6.png","arrowright","","[""materials/imgs/D26.png"",""materials/imgs/D76.png""]","false","validation","","",""
"","","","","","html-keyboard-response","395","464124","0.0-19.0-2.2-0.5","vcpxfuftks","","vcpxfuftks","""2024-11-13T15:55:20.751Z""","null","+","null","","","","","","",""
"","","","","","image-keyboard-response","396","464855","0.0-19.0-2.2-1.5","vcpxfuftks","","vcpxfuftks","""2024-11-13T15:55:20.751Z""","729","materials/imgs/D53.png","arrowleft","","[""materials/imgs/D77.png"",""materials/imgs/D75.png""]","false","validation","","",""
"","","","","","html-keyboard-response","397","465357","0.0-19.0-0.3-0.21","vcpxfuftks","","vcpxfuftks","""2024-11-13T15:55:20.751Z""","null","+","null","","","","","","",""
"","","","","","image-keyboard-response","398","466605","0.0-19.0-0.3-1.21","vcpxfuftks","","vcpxfuftks","""2024-11-13T15:55:20.751Z""","1245","materials/imgs/D66.png","arrowright","","[""materials/imgs/D53.png"",""materials/imgs/D47.png""]","false","random","","",""
"","","","","","html-keyboard-response","399","467107","0.0-19.0-0.3-0.22","vcpxfuftks","","vcpxfuftks","""2024-11-13T15:55:20.751Z""","null","+","null","","","","","","",""
"","","","","","image-keyboard-response","400","467941","0.0-19.0-0.3-1.22","vcpxfuftks","","vcpxfuftks","""2024-11-13T15:55:20.751Z""","831","materials/imgs/D56.png","arrowright","","[""materials/imgs/D77.png"",""materials/imgs/D75.png""]","false","random","","",""
"","","","","","html-keyboard-response","401","468443","0.0-19.0-0.3-0.23","vcpxfuftks","","vcpxfuftks","""2024-11-13T15:55:20.751Z""","null","+","null","","","","","","",""
"","","","","","image-keyboard-response","402","469110","0.0-19.0-0.3-1.23","vcpxfuftks","","vcpxfuftks","""2024-11-13T15:55:20.751Z""","666","materials/imgs/D85.png","arrowright","","[""materials/imgs/D106.png"",""materials/imgs/D55.png""]","false","random","","",""
"","","","","","html-keyboard-response","403","469612","0.0-19.0-0.3-0.24","vcpxfuftks","","vcpxfuftks","""2024-11-13T15:55:20.751Z""","null","+","null","","","","","","",""
"","","","","","image-keyboard-response","404","471228","0.0-19.0-0.3-1.24","vcpxfuftks","","vcpxfuftks","""2024-11-13T15:55:20.751Z""","1613","materials/imgs/D66.png","arrowleft","","[""materials/imgs/D80.png"",""materials/imgs/D78.png""]","false","random","","",""
"","","","","","html-keyboard-response","405","471730","0.0-19.0-0.3-0.25","vcpxfuftks","","vcpxfuftks","""2024-11-13T15:55:20.751Z""","null","+","null","","","","","","",""
"","","","","","image-keyboard-response","406","473695","0.0-19.0-0.3-1.25","vcpxfuftks","","vcpxfuftks","""2024-11-13T15:55:20.751Z""","1963","materials/imgs/D76.png","arrowleft","","[""materials/imgs/D81.png"",""materials/imgs/D47.png""]","false","random","","",""
"","","","","","html-keyboard-response","407","474197","0.0-19.0-0.3-0.26","vcpxfuftks","","vcpxfuftks","""2024-11-13T15:55:20.751Z""","null","+","null","","","","","","",""
"","","","","","image-keyboard-response","408","476123","0.0-19.0-0.3-1.26","vcpxfuftks","","vcpxfuftks","""2024-11-13T15:55:20.751Z""","1924","materials/imgs/D21.png","arrowleft","","[""materials/imgs/D106.png"",""materials/imgs/D74.png""]","false","random","","",""
"","","","","","html-keyboard-response","409","476626","0.0-19.0-0.3-0.27","vcpxfuftks","","vcpxfuftks","""2024-11-13T15:55:20.751Z""","null","+","null","","","","","","",""
"","","","","","image-keyboard-response","410","477351","0.0-19.0-0.3-1.27","vcpxfuftks","","vcpxfuftks","""2024-11-13T15:55:20.751Z""","724","materials/imgs/D68.png","arrowright","","[""materials/imgs/D76.png"",""materials/imgs/D80.png""]","false","random","","",""
"","","","","","html-keyboard-response","411","477854","0.0-19.0-1.3-0.3","vcpxfuftks","","vcpxfuftks","""2024-11-13T15:55:20.751Z""","null","+","null","","","","","","",""
"","","","","","image-keyboard-response","412","478436","0.0-19.0-1.3-1.3","vcpxfuftks","","vcpxfuftks","""2024-11-13T15:55:20.751Z""","580","materials/imgs/D53.png","arrowright","","[""materials/imgs/D64.png"",""materials/imgs/D53.png""]","","check","materials/imgs/D53.png","1","true"
"","","","","","html-keyboard-response","413","478938","0.0-19.0-2.3-0.6","vcpxfuftks","","vcpxfuftks","""2024-11-13T15:55:20.751Z""","null","+","null","","","","","","",""
"","","","","","image-keyboard-response","414","480713","0.0-19.0-2.3-1.6","vcpxfuftks","","vcpxfuftks","""2024-11-13T15:55:20.751Z""","1773","materials/imgs/D49.png","arrowright","","[""materials/imgs/D8.png"",""materials/imgs/D101.png""]","false","validation","","",""
"","","","","","html-keyboard-response","415","481214","0.0-19.0-2.3-0.7","vcpxfuftks","","vcpxfuftks","""2024-11-13T15:55:20.751Z""","null","+","null","","","","","","",""
"","","","","","image-keyboard-response","416","482496","0.0-19.0-2.3-1.7","vcpxfuftks","","vcpxfuftks","""2024-11-13T15:55:20.751Z""","1280","materials/imgs/D48.png","arrowright","","[""materials/imgs/D4.png"",""materials/imgs/D37.png""]","false","validation","","",""
"","","","","","html-keyboard-response","417","482998","0.0-19.0-0.4-0.28","vcpxfuftks","","vcpxfuftks","""2024-11-13T15:55:20.751Z""","null","+","null","","","","","","",""
"","","","","","image-keyboard-response","418","484170","0.0-19.0-0.4-1.28","vcpxfuftks","","vcpxfuftks","""2024-11-13T15:55:20.751Z""","1170","materials/imgs/D8.png","arrowright","","[""materials/imgs/D74.png"",""materials/imgs/D87.png""]","false","random","","",""
"","","","","","html-keyboard-response","419","484673","0.0-19.0-0.4-0.29","vcpxfuftks","","vcpxfuftks","""2024-11-13T15:55:20.751Z""","null","+","null","","","","","","",""
"","","","","","image-keyboard-response","420","485390","0.0-19.0-0.4-1.29","vcpxfuftks","","vcpxfuftks","""2024-11-13T15:55:20.751Z""","715","materials/imgs/D49.png","arrowright","","[""materials/imgs/D76.png"",""materials/imgs/D55.png""]","false","random","","",""
"","","","","","html-keyboard-response","421","485892","0.0-19.0-0.4-0.30","vcpxfuftks","","vcpxfuftks","""2024-11-13T15:55:20.751Z""","null","+","null","","","","","","",""
"","","","","","image-keyboard-response","422","486534","0.0-19.0-0.4-1.30","vcpxfuftks","","vcpxfuftks","""2024-11-13T15:55:20.751Z""","639","materials/imgs/D104.png","arrowright","","[""materials/imgs/D92.png"",""materials/imgs/D14.png""]","false","random","","",""
"","","","","","html-keyboard-response","423","487036","0.0-19.0-0.4-0.31","vcpxfuftks","","vcpxfuftks","""2024-11-13T15:55:20.751Z""","null","+","null","","","","","","",""
"","","","","","image-keyboard-response","424","488268","0.0-19.0-0.4-1.31","vcpxfuftks","","vcpxfuftks","""2024-11-13T15:55:20.751Z""","1230","materials/imgs/D80.png","arrowleft","","[""materials/imgs/D29.png"",""materials/imgs/D53.png""]","false","random","","",""
"","","","","","html-keyboard-response","425","488771","0.0-19.0-0.4-0.32","vcpxfuftks","","vcpxfuftks","""2024-11-13T15:55:20.751Z""","null","+","null","","","","","","",""
"","","","","","image-keyboard-response","426","489759","0.0-19.0-0.4-1.32","vcpxfuftks","","vcpxfuftks","""2024-11-13T15:55:20.751Z""","986","materials/imgs/D25.png","arrowright","","[""materials/imgs/D21.png"",""materials/imgs/D32.png""]","false","random","","",""
"","","","","","html-keyboard-response","427","490260","0.0-19.0-0.4-0.33","vcpxfuftks","","vcpxfuftks","""2024-11-13T15:55:20.751Z""","null","+","null","","","","","","",""
"","","","","","image-keyboard-response","428","491002","0.0-19.0-0.4-1.33","vcpxfuftks","","vcpxfuftks","""2024-11-13T15:55:20.751Z""","739","materials/imgs/D20.png","arrowleft","","[""materials/imgs/D64.png"",""materials/imgs/D104.png""]","false","random","","",""
"","","","","","html-keyboard-response","429","491504","0.0-19.0-0.4-0.34","vcpxfuftks","","vcpxfuftks","""2024-11-13T15:55:20.751Z""","null","+","null","","","","","","",""
"","","","","","image-keyboard-response","430","493109","0.0-19.0-0.4-1.34","vcpxfuftks","","vcpxfuftks","""2024-11-13T15:55:20.751Z""","1603","materials/imgs/D17.png","arrowleft","","[""materials/imgs/D105.png"",""materials/imgs/D22.png""]","false","random","","",""
"","","","","","html-keyboard-response","431","493612","0.0-19.0-1.4-0.4","vcpxfuftks","","vcpxfuftks","""2024-11-13T15:55:20.751Z""","null","+","null","","","","","","",""
"","","","","","image-keyboard-response","432","494147","0.0-19.0-1.4-1.4","vcpxfuftks","","vcpxfuftks","""2024-11-13T15:55:20.751Z""","533","materials/imgs/D101.png","arrowright","","[""materials/imgs/D106.png"",""materials/imgs/D101.png""]","","check","materials/imgs/D101.png","1","true"
"","","","","","html-keyboard-response","433","494649","0.0-19.0-2.4-0.8","vcpxfuftks","","vcpxfuftks","""2024-11-13T15:55:20.751Z""","null","+","null","","","","","","",""
"","","","","","image-keyboard-response","434","495689","0.0-19.0-2.4-1.8","vcpxfuftks","","vcpxfuftks","""2024-11-13T15:55:20.751Z""","1039","materials/imgs/D18.png","arrowright","","[""materials/imgs/D32.png"",""materials/imgs/D57.png""]","false","validation","","",""
"","","","","","html-keyboard-response","435","496192","0.0-19.0-2.4-0.9","vcpxfuftks","","vcpxfuftks","""2024-11-13T15:55:20.751Z""","null","+","null","","","","","","",""
"","","","","","image-keyboard-response","436","497105","0.0-19.0-2.4-1.9","vcpxfuftks","","vcpxfuftks","""2024-11-13T15:55:20.751Z""","912","materials/imgs/D22.png","arrowleft","","[""materials/imgs/D4.png"",""materials/imgs/D25.png""]","false","validation","","",""
