"success","timeout","failed_images","failed_audio","failed_video","trial_type","trial_index","time_elapsed","internal_node_id","subject_id","sona_id","subjectID","dateInfo","rt","stimulus","response","question_order","choices","speedy","sampleAlg","selected_image","selected_index","correct"
"true","false","[]","[]","[]","preload","0","254","0.0-0.0","vk6od3yv1h","","vk6od3yv1h","""2024-11-14T20:30:54.291Z""","","","","","","","","","",""
"true","","","","","fullscreen","1","2280","0.0-1.0","vk6od3yv1h","","vk6od3yv1h","""2024-11-14T20:30:54.291Z""","","","","","","","","","",""
"","","","","","html-keyboard-response","2","2294","0.0-2.0","vk6od3yv1h","","vk6od3yv1h","""2024-11-14T20:30:54.291Z""","null","","null","","","","","","",""
"","","","","","html-button-response","3","5180","0.0-3.0","vk6od3yv1h","","vk6od3yv1h","""2024-11-14T20:30:54.291Z""","2885","<div style='text-align:center; font-size:20px; line-height:25px; width: 1200px;'>
                Welcome to our experiment! <br>
                <br>At the bottom of this screen, you will see a button that says 'Begin Experiment.
                <br>Please only click that button when you are ready to complete the 25 minute experiment in one sitting. <br>
                <br> Once you click that button, it will not be possible to restart the experiment. <br><br>","0","","","","","","",""
"true","","","","","fullscreen","4","7148","0.0-4.0","vk6od3yv1h","","vk6od3yv1h","""2024-11-14T20:30:54.291Z""","","","","","","","","","",""
"","","","","","survey-multi-select","5","14879","0.0-5.0","vk6od3yv1h","","vk6od3yv1h","""2024-11-14T20:30:54.291Z""","7728","","{""Consent"":[""<strong>I consent</strong>""]}","[0]","","","","","",""
"","","","","","html-button-response","6","16563","0.0-6.0","vk6od3yv1h","","vk6od3yv1h","""2024-11-14T20:30:54.291Z""","1681","Welcome! <p> This experiment involves two parts: demographic information, followed by the experimental task.<p> It will take about 25 minutes to complete both parts.","0","","","","","","",""
"","","","","","survey-text","7","21401","0.0-7.0","vk6od3yv1h","","vk6od3yv1h","""2024-11-14T20:30:54.291Z""","4836","","{""Age"":""20"",""Gender"":""Female"",""Race/ethnicity"":""White""}","","","","","","",""
"","","","","","html-button-response","8","33682","0.0-8.0","vk6od3yv1h","","vk6od3yv1h","""2024-11-14T20:30:54.291Z""","12280","<div style='text-align: center;'>
      <p>In each trial of this task, you will see three texture images: one target item on top, and two choices beneath the target item.</p>
      <p><strong>Please select the item that is most like the target item.</strong></p>
      <p>To select the option on the <strong>LEFT</strong>, press the <strong>LEFT ARROW</strong> key. 
      To select the option on the <strong>RIGHT</strong>, press the <strong>RIGHT ARROW</strong> key.</p>
                  <!-- Target Image at the Top -->
      <div style='margin: 20px;'>
        <img src='materials/imgs/instruction_images/InstructionImg1D78.png' alt='Target Image' style='width:200px; height:auto;' />
        <p><em>Target Image</em></p>
      </div>

      <!-- Two Choice Images Below -->
      <div style='display: flex; justify-content: center;'>
        <div style='margin-right: 50px;'>
          <img src='materials/imgs/instruction_images/InstructionImg2D34.png' alt='Choice Image 1' style='width:150px; height:auto;' />
          <p><em><strong>LEFT ARROW</strong></em></p>
        </div>
        <div style='margin-left: 50px;'>
          <img src='materials/imgs/instruction_images/InstructionImg3D80.png' alt='Choice Image 2' style='width:150px; height:auto;' />
          <p><em><strong>RIGHT ARROW</strong></em></p>
        </div>
      </div>
    </div>

      <p>When you are ready to proceed, please click 'Continue' to begin practice.</p>","0","","","","","","",""
"","","","","","html-keyboard-response","9","36187","0.0-9.0","vk6od3yv1h","","vk6od3yv1h","""2024-11-14T20:30:54.291Z""","null","+","null","","","","","","",""
"","","","","","html-keyboard-response","10","36689","0.0-10.0-0.0-0.0","vk6od3yv1h","","vk6od3yv1h","""2024-11-14T20:30:54.291Z""","null","+","null","","","","","","",""
"","","","","","image-keyboard-response","11","39279","0.0-10.0-0.0-1.0","vk6od3yv1h","","vk6od3yv1h","""2024-11-14T20:30:54.291Z""","2583","materials/imgs/D18.png","arrowright","","[""materials/imgs/D26.png"",""materials/imgs/D105.png""]","false","random","","",""
"","","","","","html-keyboard-response","12","39782","0.0-10.0-0.0-0.1","vk6od3yv1h","","vk6od3yv1h","""2024-11-14T20:30:54.291Z""","null","+","null","","","","","","",""
"","","","","","image-keyboard-response","13","41787","0.0-10.0-0.0-1.1","vk6od3yv1h","","vk6od3yv1h","""2024-11-14T20:30:54.291Z""","2003","materials/imgs/D92.png","arrowleft","","[""materials/imgs/D20.png"",""materials/imgs/D48.png""]","false","random","","",""
"","","","","","html-keyboard-response","14","42288","0.0-10.0-0.0-0.2","vk6od3yv1h","","vk6od3yv1h","""2024-11-14T20:30:54.291Z""","null","+","null","","","","","","",""
"","","","","","image-keyboard-response","15","44505","0.0-10.0-0.0-1.2","vk6od3yv1h","","vk6od3yv1h","""2024-11-14T20:30:54.291Z""","2214","materials/imgs/D102.png","arrowleft","","[""materials/imgs/D64.png"",""materials/imgs/D32.png""]","false","random","","",""
"","","","","","html-keyboard-response","16","45006","0.0-10.0-0.0-0.3","vk6od3yv1h","","vk6od3yv1h","""2024-11-14T20:30:54.291Z""","null","+","null","","","","","","",""
"","","","","","image-keyboard-response","17","46981","0.0-10.0-0.0-1.3","vk6od3yv1h","","vk6od3yv1h","""2024-11-14T20:30:54.291Z""","1973","materials/imgs/D32.png","arrowleft","","[""materials/imgs/D53.png"",""materials/imgs/D49.png""]","false","random","","",""
"","","","","","html-keyboard-response","18","47482","0.0-10.0-0.0-0.4","vk6od3yv1h","","vk6od3yv1h","""2024-11-14T20:30:54.291Z""","null","+","null","","","","","","",""
"","","","","","image-keyboard-response","19","48866","0.0-10.0-0.0-1.4","vk6od3yv1h","","vk6od3yv1h","""2024-11-14T20:30:54.291Z""","1382","materials/imgs/D48.png","arrowleft","","[""materials/imgs/D66.png"",""materials/imgs/D96.png""]","false","random","","",""
"","","","","","html-keyboard-response","20","49367","0.0-10.0-0.0-0.5","vk6od3yv1h","","vk6od3yv1h","""2024-11-14T20:30:54.291Z""","null","+","null","","","","","","",""
"","","","","","image-keyboard-response","21","51718","0.0-10.0-0.0-1.5","vk6od3yv1h","","vk6od3yv1h","""2024-11-14T20:30:54.291Z""","2349","materials/imgs/D76.png","arrowleft","","[""materials/imgs/D9.png"",""materials/imgs/D92.png""]","false","random","","",""
"","","","","","html-keyboard-response","22","52219","0.0-10.0-0.0-0.6","vk6od3yv1h","","vk6od3yv1h","""2024-11-14T20:30:54.291Z""","null","+","null","","","","","","",""
"","","","","","image-keyboard-response","23","54187","0.0-10.0-0.0-1.6","vk6od3yv1h","","vk6od3yv1h","""2024-11-14T20:30:54.291Z""","1965","materials/imgs/D81.png","arrowright","","[""materials/imgs/D106.png"",""materials/imgs/D21.png""]","false","random","","",""
"","","","","","html-keyboard-response","24","54688","0.0-10.0-0.0-0.7","vk6od3yv1h","","vk6od3yv1h","""2024-11-14T20:30:54.291Z""","null","+","null","","","","","","",""
"","","","","","image-keyboard-response","25","55846","0.0-10.0-0.0-1.7","vk6od3yv1h","","vk6od3yv1h","""2024-11-14T20:30:54.291Z""","1155","materials/imgs/D46.png","arrowright","","[""materials/imgs/D29.png"",""materials/imgs/D19.png""]","false","random","","",""
"","","","","","html-keyboard-response","26","56346","0.0-10.0-0.0-0.8","vk6od3yv1h","","vk6od3yv1h","""2024-11-14T20:30:54.291Z""","null","+","null","","","","","","",""
"","","","","","image-keyboard-response","27","57871","0.0-10.0-0.0-1.8","vk6od3yv1h","","vk6od3yv1h","""2024-11-14T20:30:54.291Z""","1522","materials/imgs/D46.png","arrowleft","","[""materials/imgs/D101.png"",""materials/imgs/D68.png""]","false","random","","",""
"","","","","","html-keyboard-response","28","58372","0.0-10.0-0.0-0.9","vk6od3yv1h","","vk6od3yv1h","""2024-11-14T20:30:54.291Z""","null","+","null","","","","","","",""
"","","","","","image-keyboard-response","29","60146","0.0-10.0-0.0-1.9","vk6od3yv1h","","vk6od3yv1h","""2024-11-14T20:30:54.291Z""","1773","materials/imgs/D46.png","arrowright","","[""materials/imgs/D36.png"",""materials/imgs/D48.png""]","false","random","","",""
"","","","","","html-button-response","30","64431","0.0-11.0","vk6od3yv1h","","vk6od3yv1h","""2024-11-14T20:30:54.291Z""","4285","<p>Great job!</p>
      <p>You are now ready to begin the experiment.</p>
      <p>There will be around 200 trials. You will have opportunities to take breaks at three stages of the trials.</p>
      <p>When you are ready to begin please click 'Continue'.</p>","0","","","","","","",""
"","","","","","html-keyboard-response","31","66935","0.0-12.0","vk6od3yv1h","","vk6od3yv1h","""2024-11-14T20:30:54.291Z""","null","+","null","","","","","","",""
"","","","","","html-keyboard-response","32","67438","0.0-13.0-0.0-0.0","vk6od3yv1h","","vk6od3yv1h","""2024-11-14T20:30:54.291Z""","null","+","null","","","","","","",""
"","","","","","image-keyboard-response","33","68519","0.0-13.0-0.0-1.0","vk6od3yv1h","","vk6od3yv1h","""2024-11-14T20:30:54.291Z""","1078","materials/imgs/D18.png","arrowleft","","[""materials/imgs/D74.png"",""materials/imgs/D25.png""]","false","random","","",""
"","","","","","html-keyboard-response","34","69025","0.0-13.0-0.0-0.1","vk6od3yv1h","","vk6od3yv1h","""2024-11-14T20:30:54.291Z""","null","+","null","","","","","","",""
"","","","","","image-keyboard-response","35","69963","0.0-13.0-0.0-1.1","vk6od3yv1h","","vk6od3yv1h","""2024-11-14T20:30:54.291Z""","936","materials/imgs/D49.png","arrowleft","","[""materials/imgs/D79.png"",""materials/imgs/D22.png""]","false","random","","",""
"","","","","","html-keyboard-response","36","70464","0.0-13.0-0.0-0.2","vk6od3yv1h","","vk6od3yv1h","""2024-11-14T20:30:54.291Z""","null","+","null","","","","","","",""
"","","","","","image-keyboard-response","37","71249","0.0-13.0-0.0-1.2","vk6od3yv1h","","vk6od3yv1h","""2024-11-14T20:30:54.291Z""","783","materials/imgs/D19.png","arrowright","","[""materials/imgs/D94.png"",""materials/imgs/D29.png""]","false","random","","",""
"","","","","","html-keyboard-response","38","71750","0.0-13.0-0.0-0.3","vk6od3yv1h","","vk6od3yv1h","""2024-11-14T20:30:54.291Z""","null","+","null","","","","","","",""
"","","","","","image-keyboard-response","39","73358","0.0-13.0-0.0-1.3","vk6od3yv1h","","vk6od3yv1h","""2024-11-14T20:30:54.291Z""","1606","materials/imgs/D103.png","arrowleft","","[""materials/imgs/D85.png"",""materials/imgs/D106.png""]","false","random","","",""
"","","","","","html-keyboard-response","40","73860","0.0-13.0-0.0-0.4","vk6od3yv1h","","vk6od3yv1h","""2024-11-14T20:30:54.291Z""","null","+","null","","","","","","",""
"","","","","","image-keyboard-response","41","75379","0.0-13.0-0.0-1.4","vk6od3yv1h","","vk6od3yv1h","""2024-11-14T20:30:54.291Z""","1518","materials/imgs/D32.png","arrowleft","","[""materials/imgs/D3.png"",""materials/imgs/D26.png""]","false","random","","",""
"","","","","","html-keyboard-response","42","75881","0.0-13.0-0.0-0.5","vk6od3yv1h","","vk6od3yv1h","""2024-11-14T20:30:54.291Z""","null","+","null","","","","","","",""
"","","","","","image-keyboard-response","43","76956","0.0-13.0-0.0-1.5","vk6od3yv1h","","vk6od3yv1h","""2024-11-14T20:30:54.291Z""","1074","materials/imgs/D75.png","arrowright","","[""materials/imgs/D81.png"",""materials/imgs/D48.png""]","false","random","","",""
"","","","","","html-keyboard-response","44","77458","0.0-13.0-0.0-0.6","vk6od3yv1h","","vk6od3yv1h","""2024-11-14T20:30:54.291Z""","null","+","null","","","","","","",""
"","","","","","image-keyboard-response","45","78282","0.0-13.0-0.0-1.6","vk6od3yv1h","","vk6od3yv1h","""2024-11-14T20:30:54.291Z""","822","materials/imgs/D111.png","arrowleft","","[""materials/imgs/D19.png"",""materials/imgs/D105.png""]","false","random","","",""
"","","","","","html-keyboard-response","46","78783","0.0-13.0-1.0-0.0","vk6od3yv1h","","vk6od3yv1h","""2024-11-14T20:30:54.291Z""","null","+","null","","","","","","",""
"","","","","","image-keyboard-response","47","79594","0.0-13.0-1.0-1.0","vk6od3yv1h","","vk6od3yv1h","""2024-11-14T20:30:54.291Z""","809","materials/imgs/D46.png","arrowleft","","[""materials/imgs/D46.png"",""materials/imgs/D26.png""]","","check","materials/imgs/D46.png","0","true"
"","","","","","html-keyboard-response","48","80096","0.0-13.0-2.0-0.0","vk6od3yv1h","","vk6od3yv1h","""2024-11-14T20:30:54.291Z""","null","+","null","","","","","","",""
"","","","","","image-keyboard-response","49","81283","0.0-13.0-2.0-1.0","vk6od3yv1h","","vk6od3yv1h","""2024-11-14T20:30:54.291Z""","1186","materials/imgs/D85.png","arrowleft","","[""materials/imgs/D6.png"",""materials/imgs/D111.png""]","false","validation","","",""
"","","","","","html-keyboard-response","50","81785","0.0-13.0-2.0-0.1","vk6od3yv1h","","vk6od3yv1h","""2024-11-14T20:30:54.291Z""","null","+","null","","","","","","",""
"","","","","","image-keyboard-response","51","82623","0.0-13.0-2.0-1.1","vk6od3yv1h","","vk6od3yv1h","""2024-11-14T20:30:54.291Z""","837","materials/imgs/D56.png","arrowleft","","[""materials/imgs/D25.png"",""materials/imgs/D105.png""]","false","validation","","",""
"","","","","","html-keyboard-response","52","83125","0.0-13.0-0.1-0.7","vk6od3yv1h","","vk6od3yv1h","""2024-11-14T20:30:54.291Z""","null","+","null","","","","","","",""
"","","","","","image-keyboard-response","53","83852","0.0-13.0-0.1-1.7","vk6od3yv1h","","vk6od3yv1h","""2024-11-14T20:30:54.291Z""","725","materials/imgs/D25.png","arrowright","","[""materials/imgs/D77.png"",""materials/imgs/D82.png""]","false","random","","",""
"","","","","","html-keyboard-response","54","84354","0.0-13.0-0.1-0.8","vk6od3yv1h","","vk6od3yv1h","""2024-11-14T20:30:54.291Z""","null","+","null","","","","","","",""
"","","","","","image-keyboard-response","55","85332","0.0-13.0-0.1-1.8","vk6od3yv1h","","vk6od3yv1h","""2024-11-14T20:30:54.291Z""","976","materials/imgs/D77.png","arrowright","","[""materials/imgs/D74.png"",""materials/imgs/D47.png""]","false","random","","",""
"","","","","","html-keyboard-response","56","85834","0.0-13.0-0.1-0.9","vk6od3yv1h","","vk6od3yv1h","""2024-11-14T20:30:54.291Z""","null","+","null","","","","","","",""
"","","","","","image-keyboard-response","57","86565","0.0-13.0-0.1-1.9","vk6od3yv1h","","vk6od3yv1h","""2024-11-14T20:30:54.291Z""","729","materials/imgs/D14.png","arrowleft","","[""materials/imgs/D16.png"",""materials/imgs/D57.png""]","false","random","","",""
"","","","","","html-keyboard-response","58","87067","0.0-13.0-0.1-0.10","vk6od3yv1h","","vk6od3yv1h","""2024-11-14T20:30:54.291Z""","null","+","null","","","","","","",""
"","","","","","image-keyboard-response","59","87910","0.0-13.0-0.1-1.10","vk6od3yv1h","","vk6od3yv1h","""2024-11-14T20:30:54.291Z""","841","materials/imgs/D81.png","arrowright","","[""materials/imgs/D52.png"",""materials/imgs/D111.png""]","false","random","","",""
"","","","","","html-keyboard-response","60","88411","0.0-13.0-0.1-0.11","vk6od3yv1h","","vk6od3yv1h","""2024-11-14T20:30:54.291Z""","null","+","null","","","","","","",""
"","","","","","image-keyboard-response","61","89363","0.0-13.0-0.1-1.11","vk6od3yv1h","","vk6od3yv1h","""2024-11-14T20:30:54.291Z""","950","materials/imgs/D11.png","arrowleft","","[""materials/imgs/D4.png"",""materials/imgs/D55.png""]","false","random","","",""
"","","","","","html-keyboard-response","62","89864","0.0-13.0-0.1-0.12","vk6od3yv1h","","vk6od3yv1h","""2024-11-14T20:30:54.291Z""","null","+","null","","","","","","",""
"","","","","","image-keyboard-response","63","90577","0.0-13.0-0.1-1.12","vk6od3yv1h","","vk6od3yv1h","""2024-11-14T20:30:54.291Z""","711","materials/imgs/D19.png","arrowright","","[""materials/imgs/D55.png"",""materials/imgs/D34.png""]","false","random","","",""
"","","","","","html-keyboard-response","64","91078","0.0-13.0-0.1-0.13","vk6od3yv1h","","vk6od3yv1h","""2024-11-14T20:30:54.291Z""","null","+","null","","","","","","",""
"","","","","","image-keyboard-response","65","91694","0.0-13.0-0.1-1.13","vk6od3yv1h","","vk6od3yv1h","""2024-11-14T20:30:54.291Z""","614","materials/imgs/D56.png","arrowleft","","[""materials/imgs/D32.png"",""materials/imgs/D48.png""]","false","random","","",""
"","","","","","html-keyboard-response","66","92195","0.0-13.0-1.1-0.1","vk6od3yv1h","","vk6od3yv1h","""2024-11-14T20:30:54.291Z""","null","+","null","","","","","","",""
"","","","","","image-keyboard-response","67","92739","0.0-13.0-1.1-1.1","vk6od3yv1h","","vk6od3yv1h","""2024-11-14T20:30:54.291Z""","542","materials/imgs/D46.png","arrowleft","","[""materials/imgs/D46.png"",""materials/imgs/D26.png""]","","check","materials/imgs/D46.png","0","true"
"","","","","","html-keyboard-response","68","93240","0.0-13.0-2.1-0.2","vk6od3yv1h","","vk6od3yv1h","""2024-11-14T20:30:54.291Z""","null","+","null","","","","","","",""
"","","","","","image-keyboard-response","69","94038","0.0-13.0-2.1-1.2","vk6od3yv1h","","vk6od3yv1h","""2024-11-14T20:30:54.291Z""","796","materials/imgs/D51.png","arrowleft","","[""materials/imgs/D92.png"",""materials/imgs/D20.png""]","false","validation","","",""
"","","","","","html-keyboard-response","70","94540","0.0-13.0-2.1-0.3","vk6od3yv1h","","vk6od3yv1h","""2024-11-14T20:30:54.291Z""","null","+","null","","","","","","",""
"","","","","","image-keyboard-response","71","95396","0.0-13.0-2.1-1.3","vk6od3yv1h","","vk6od3yv1h","""2024-11-14T20:30:54.291Z""","854","materials/imgs/D24.png","arrowright","","[""materials/imgs/D36.png"",""materials/imgs/D8.png""]","false","validation","","",""
"","","","","","html-keyboard-response","72","95897","0.0-13.0-0.2-0.14","vk6od3yv1h","","vk6od3yv1h","""2024-11-14T20:30:54.291Z""","null","+","null","","","","","","",""
"","","","","","image-keyboard-response","73","96475","0.0-13.0-0.2-1.14","vk6od3yv1h","","vk6od3yv1h","""2024-11-14T20:30:54.291Z""","576","materials/imgs/D49.png","arrowleft","","[""materials/imgs/D106.png"",""materials/imgs/D103.png""]","false","random","","",""
"","","","","","html-keyboard-response","74","96977","0.0-13.0-0.2-0.15","vk6od3yv1h","","vk6od3yv1h","""2024-11-14T20:30:54.291Z""","null","+","null","","","","","","",""
"","","","","","image-keyboard-response","75","98003","0.0-13.0-0.2-1.15","vk6od3yv1h","","vk6od3yv1h","""2024-11-14T20:30:54.291Z""","1024","materials/imgs/D4.png","arrowleft","","[""materials/imgs/D77.png"",""materials/imgs/D20.png""]","false","random","","",""
"","","","","","html-keyboard-response","76","98504","0.0-13.0-0.2-0.16","vk6od3yv1h","","vk6od3yv1h","""2024-11-14T20:30:54.291Z""","null","+","null","","","","","","",""
"","","","","","image-keyboard-response","77","99356","0.0-13.0-0.2-1.16","vk6od3yv1h","","vk6od3yv1h","""2024-11-14T20:30:54.291Z""","850","materials/imgs/D92.png","arrowleft","","[""materials/imgs/D65.png"",""materials/imgs/D52.png""]","false","random","","",""
"","","","","","html-keyboard-response","78","99857","0.0-13.0-0.2-0.17","vk6od3yv1h","","vk6od3yv1h","""2024-11-14T20:30:54.291Z""","null","+","null","","","","","","",""
"","","","","","image-keyboard-response","79","100728","0.0-13.0-0.2-1.17","vk6od3yv1h","","vk6od3yv1h","""2024-11-14T20:30:54.291Z""","869","materials/imgs/D68.png","arrowright","","[""materials/imgs/D51.png"",""materials/imgs/D57.png""]","false","random","","",""
"","","","","","html-keyboard-response","80","101230","0.0-13.0-0.2-0.18","vk6od3yv1h","","vk6od3yv1h","""2024-11-14T20:30:54.291Z""","null","+","null","","","","","","",""
"","","","","","image-keyboard-response","81","102012","0.0-13.0-0.2-1.18","vk6od3yv1h","","vk6od3yv1h","""2024-11-14T20:30:54.291Z""","780","materials/imgs/D19.png","arrowright","","[""materials/imgs/D75.png"",""materials/imgs/D85.png""]","false","random","","",""
"","","","","","html-keyboard-response","82","102513","0.0-13.0-0.2-0.19","vk6od3yv1h","","vk6od3yv1h","""2024-11-14T20:30:54.291Z""","null","+","null","","","","","","",""
"","","","","","image-keyboard-response","83","103169","0.0-13.0-0.2-1.19","vk6od3yv1h","","vk6od3yv1h","""2024-11-14T20:30:54.291Z""","654","materials/imgs/D55.png","arrowright","","[""materials/imgs/D94.png"",""materials/imgs/D36.png""]","false","random","","",""
"","","","","","html-keyboard-response","84","103670","0.0-13.0-0.2-0.20","vk6od3yv1h","","vk6od3yv1h","""2024-11-14T20:30:54.291Z""","null","+","null","","","","","","",""
"","","","","","image-keyboard-response","85","104799","0.0-13.0-0.2-1.20","vk6od3yv1h","","vk6od3yv1h","""2024-11-14T20:30:54.291Z""","1126","materials/imgs/D94.png","arrowright","","[""materials/imgs/D14.png"",""materials/imgs/D65.png""]","false","random","","",""
"","","","","","html-keyboard-response","86","105300","0.0-13.0-1.2-0.2","vk6od3yv1h","","vk6od3yv1h","""2024-11-14T20:30:54.291Z""","null","+","null","","","","","","",""
"","","","","","image-keyboard-response","87","105908","0.0-13.0-1.2-1.2","vk6od3yv1h","","vk6od3yv1h","""2024-11-14T20:30:54.291Z""","606","materials/imgs/D18.png","arrowright","","[""materials/imgs/D8.png"",""materials/imgs/D18.png""]","","check","materials/imgs/D18.png","1","true"
"","","","","","html-keyboard-response","88","106409","0.0-13.0-2.2-0.4","vk6od3yv1h","","vk6od3yv1h","""2024-11-14T20:30:54.291Z""","null","+","null","","","","","","",""
"","","","","","image-keyboard-response","89","107117","0.0-13.0-2.2-1.4","vk6od3yv1h","","vk6od3yv1h","""2024-11-14T20:30:54.291Z""","706","materials/imgs/D3.png","arrowleft","","[""materials/imgs/D79.png"",""materials/imgs/D48.png""]","false","validation","","",""
"","","","","","html-keyboard-response","90","107619","0.0-13.0-2.2-0.5","vk6od3yv1h","","vk6od3yv1h","""2024-11-14T20:30:54.291Z""","null","+","null","","","","","","",""
"","","","","","image-keyboard-response","91","108364","0.0-13.0-2.2-1.5","vk6od3yv1h","","vk6od3yv1h","""2024-11-14T20:30:54.291Z""","743","materials/imgs/D49.png","arrowright","","[""materials/imgs/D8.png"",""materials/imgs/D101.png""]","false","validation","","",""
"","","","","","html-keyboard-response","92","108866","0.0-13.0-0.3-0.21","vk6od3yv1h","","vk6od3yv1h","""2024-11-14T20:30:54.291Z""","null","+","null","","","","","","",""
"","","","","","image-keyboard-response","93","110009","0.0-13.0-0.3-1.21","vk6od3yv1h","","vk6od3yv1h","""2024-11-14T20:30:54.291Z""","1141","materials/imgs/D75.png","arrowleft","","[""materials/imgs/D1.png"",""materials/imgs/D56.png""]","false","random","","",""
"","","","","","html-keyboard-response","94","110510","0.0-13.0-0.3-0.22","vk6od3yv1h","","vk6od3yv1h","""2024-11-14T20:30:54.291Z""","null","+","null","","","","","","",""
"","","","","","image-keyboard-response","95","111402","0.0-13.0-0.3-1.22","vk6od3yv1h","","vk6od3yv1h","""2024-11-14T20:30:54.291Z""","890","materials/imgs/D101.png","arrowleft","","[""materials/imgs/D46.png"",""materials/imgs/D8.png""]","false","random","","",""
"","","","","","html-keyboard-response","96","111903","0.0-13.0-0.3-0.23","vk6od3yv1h","","vk6od3yv1h","""2024-11-14T20:30:54.291Z""","null","+","null","","","","","","",""
"","","","","","image-keyboard-response","97","112556","0.0-13.0-0.3-1.23","vk6od3yv1h","","vk6od3yv1h","""2024-11-14T20:30:54.291Z""","650","materials/imgs/D9.png","arrowleft","","[""materials/imgs/D4.png"",""materials/imgs/D68.png""]","false","random","","",""
"","","","","","html-keyboard-response","98","113058","0.0-13.0-0.3-0.24","vk6od3yv1h","","vk6od3yv1h","""2024-11-14T20:30:54.291Z""","null","+","null","","","","","","",""
"","","","","","image-keyboard-response","99","114076","0.0-13.0-0.3-1.24","vk6od3yv1h","","vk6od3yv1h","""2024-11-14T20:30:54.291Z""","1017","materials/imgs/D37.png","arrowleft","","[""materials/imgs/D11.png"",""materials/imgs/D79.png""]","false","random","","",""
"","","","","","html-keyboard-response","100","114577","0.0-13.0-0.3-0.25","vk6od3yv1h","","vk6od3yv1h","""2024-11-14T20:30:54.291Z""","null","+","null","","","","","","",""
"","","","","","image-keyboard-response","101","115239","0.0-13.0-0.3-1.25","vk6od3yv1h","","vk6od3yv1h","""2024-11-14T20:30:54.291Z""","660","materials/imgs/D111.png","arrowright","","[""materials/imgs/D25.png"",""materials/imgs/D34.png""]","false","random","","",""
"","","","","","html-keyboard-response","102","115740","0.0-13.0-0.3-0.26","vk6od3yv1h","","vk6od3yv1h","""2024-11-14T20:30:54.291Z""","null","+","null","","","","","","",""
"","","","","","image-keyboard-response","103","116733","0.0-13.0-0.3-1.26","vk6od3yv1h","","vk6od3yv1h","""2024-11-14T20:30:54.291Z""","990","materials/imgs/D53.png","arrowright","","[""materials/imgs/D105.png"",""materials/imgs/D37.png""]","false","random","","",""
"","","","","","html-keyboard-response","104","117235","0.0-13.0-0.3-0.27","vk6od3yv1h","","vk6od3yv1h","""2024-11-14T20:30:54.291Z""","null","+","null","","","","","","",""
"","","","","","image-keyboard-response","105","118311","0.0-13.0-0.3-1.27","vk6od3yv1h","","vk6od3yv1h","""2024-11-14T20:30:54.291Z""","1073","materials/imgs/D4.png","arrowleft","","[""materials/imgs/D11.png"",""materials/imgs/D96.png""]","false","random","","",""
"","","","","","html-keyboard-response","106","118811","0.0-13.0-1.3-0.3","vk6od3yv1h","","vk6od3yv1h","""2024-11-14T20:30:54.291Z""","null","+","null","","","","","","",""
"","","","","","image-keyboard-response","107","119306","0.0-13.0-1.3-1.3","vk6od3yv1h","","vk6od3yv1h","""2024-11-14T20:30:54.291Z""","493","materials/imgs/D76.png","arrowleft","","[""materials/imgs/D76.png"",""materials/imgs/D78.png""]","","check","materials/imgs/D76.png","0","true"
"","","","","","html-keyboard-response","108","119807","0.0-13.0-2.3-0.6","vk6od3yv1h","","vk6od3yv1h","""2024-11-14T20:30:54.291Z""","null","+","null","","","","","","",""
"","","","","","image-keyboard-response","109","123732","0.0-13.0-2.3-1.6","vk6od3yv1h","","vk6od3yv1h","""2024-11-14T20:30:54.291Z""","3923","materials/imgs/D52.png","arrowright","","[""materials/imgs/D9.png"",""materials/imgs/D19.png""]","false","validation","","",""
"","","","","","html-keyboard-response","110","124233","0.0-13.0-2.3-0.7","vk6od3yv1h","","vk6od3yv1h","""2024-11-14T20:30:54.291Z""","null","+","null","","","","","","",""
"","","","","","image-keyboard-response","111","125038","0.0-13.0-2.3-1.7","vk6od3yv1h","","vk6od3yv1h","""2024-11-14T20:30:54.291Z""","803","materials/imgs/D35.png","arrowright","","[""materials/imgs/D83.png"",""materials/imgs/D24.png""]","false","validation","","",""
"","","","","","html-keyboard-response","112","125540","0.0-13.0-0.4-0.28","vk6od3yv1h","","vk6od3yv1h","""2024-11-14T20:30:54.291Z""","null","+","null","","","","","","",""
"","","","","","image-keyboard-response","113","127023","0.0-13.0-0.4-1.28","vk6od3yv1h","","vk6od3yv1h","""2024-11-14T20:30:54.291Z""","1481","materials/imgs/D78.png","arrowleft","","[""materials/imgs/D87.png"",""materials/imgs/D18.png""]","false","random","","",""
"","","","","","html-keyboard-response","114","127524","0.0-13.0-0.4-0.29","vk6od3yv1h","","vk6od3yv1h","""2024-11-14T20:30:54.291Z""","null","+","null","","","","","","",""
"","","","","","image-keyboard-response","115","128385","0.0-13.0-0.4-1.29","vk6od3yv1h","","vk6od3yv1h","""2024-11-14T20:30:54.291Z""","859","materials/imgs/D64.png","arrowleft","","[""materials/imgs/D26.png"",""materials/imgs/D3.png""]","false","random","","",""
"","","","","","html-keyboard-response","116","128887","0.0-13.0-0.4-0.30","vk6od3yv1h","","vk6od3yv1h","""2024-11-14T20:30:54.291Z""","null","+","null","","","","","","",""
"","","","","","image-keyboard-response","117","130400","0.0-13.0-0.4-1.30","vk6od3yv1h","","vk6od3yv1h","""2024-11-14T20:30:54.291Z""","1511","materials/imgs/D4.png","arrowright","","[""materials/imgs/D17.png"",""materials/imgs/D106.png""]","false","random","","",""
"","","","","","html-keyboard-response","118","130902","0.0-13.0-0.4-0.31","vk6od3yv1h","","vk6od3yv1h","""2024-11-14T20:30:54.291Z""","null","+","null","","","","","","",""
"","","","","","image-keyboard-response","119","131730","0.0-13.0-0.4-1.31","vk6od3yv1h","","vk6od3yv1h","""2024-11-14T20:30:54.291Z""","827","materials/imgs/D56.png","arrowright","","[""materials/imgs/D80.png"",""materials/imgs/D95.png""]","false","random","","",""
"","","","","","html-keyboard-response","120","132232","0.0-13.0-0.4-0.32","vk6od3yv1h","","vk6od3yv1h","""2024-11-14T20:30:54.291Z""","null","+","null","","","","","","",""
"","","","","","image-keyboard-response","121","132992","0.0-13.0-0.4-1.32","vk6od3yv1h","","vk6od3yv1h","""2024-11-14T20:30:54.291Z""","759","materials/imgs/D9.png","arrowright","","[""materials/imgs/D68.png"",""materials/imgs/D4.png""]","false","random","","",""
"","","","","","html-keyboard-response","122","133493","0.0-13.0-0.4-0.33","vk6od3yv1h","","vk6od3yv1h","""2024-11-14T20:30:54.291Z""","null","+","null","","","","","","",""
"","","","","","image-keyboard-response","123","134484","0.0-13.0-0.4-1.33","vk6od3yv1h","","vk6od3yv1h","""2024-11-14T20:30:54.291Z""","989","materials/imgs/D1.png","arrowright","","[""materials/imgs/D79.png"",""materials/imgs/D103.png""]","false","random","","",""
"","","","","","html-keyboard-response","124","134986","0.0-13.0-0.4-0.34","vk6od3yv1h","","vk6od3yv1h","""2024-11-14T20:30:54.291Z""","null","+","null","","","","","","",""
"","","","","","image-keyboard-response","125","135860","0.0-13.0-0.4-1.34","vk6od3yv1h","","vk6od3yv1h","""2024-11-14T20:30:54.291Z""","873","materials/imgs/D68.png","arrowright","","[""materials/imgs/D64.png"",""materials/imgs/D81.png""]","false","random","","",""
"","","","","","html-keyboard-response","126","136362","0.0-13.0-1.4-0.4","vk6od3yv1h","","vk6od3yv1h","""2024-11-14T20:30:54.291Z""","null","+","null","","","","","","",""
"","","","","","image-keyboard-response","127","136929","0.0-13.0-1.4-1.4","vk6od3yv1h","","vk6od3yv1h","""2024-11-14T20:30:54.291Z""","565","materials/imgs/D101.png","arrowright","","[""materials/imgs/D106.png"",""materials/imgs/D101.png""]","","check","materials/imgs/D101.png","1","true"
"","","","","","html-keyboard-response","128","137430","0.0-13.0-2.4-0.8","vk6od3yv1h","","vk6od3yv1h","""2024-11-14T20:30:54.291Z""","null","+","null","","","","","","",""
"","","","","","image-keyboard-response","129","138912","0.0-13.0-2.4-1.8","vk6od3yv1h","","vk6od3yv1h","""2024-11-14T20:30:54.291Z""","1480","materials/imgs/D95.png","arrowleft","","[""materials/imgs/D36.png"",""materials/imgs/D4.png""]","false","validation","","",""
"","","","","","html-keyboard-response","130","139413","0.0-13.0-2.4-0.9","vk6od3yv1h","","vk6od3yv1h","""2024-11-14T20:30:54.291Z""","null","+","null","","","","","","",""
"","","","","","image-keyboard-response","131","139952","0.0-13.0-2.4-1.9","vk6od3yv1h","","vk6od3yv1h","""2024-11-14T20:30:54.291Z""","537","materials/imgs/D105.png","arrowleft","","[""materials/imgs/D106.png"",""materials/imgs/D52.png""]","false","validation","","",""
"","","","","","html-button-response","132","141479","0.0-14.0","vk6od3yv1h","","vk6od3yv1h","""2024-11-14T20:30:54.291Z""","1526","You have completed 25% of the trials. Please click 'Continue' when you are ready proceed.","0","","","","","","",""
"","","","","","html-keyboard-response","133","141980","0.0-15.0-0.0-0.0","vk6od3yv1h","","vk6od3yv1h","""2024-11-14T20:30:54.291Z""","null","+","null","","","","","","",""
"","","","","","image-keyboard-response","134","145736","0.0-15.0-0.0-1.0","vk6od3yv1h","","vk6od3yv1h","""2024-11-14T20:30:54.291Z""","3755","materials/imgs/D92.png","arrowright","","[""materials/imgs/D6.png"",""materials/imgs/D81.png""]","false","random","","",""
"","","","","","html-keyboard-response","135","146237","0.0-15.0-0.0-0.1","vk6od3yv1h","","vk6od3yv1h","""2024-11-14T20:30:54.291Z""","null","+","null","","","","","","",""
"","","","","","image-keyboard-response","136","146898","0.0-15.0-0.0-1.1","vk6od3yv1h","","vk6od3yv1h","""2024-11-14T20:30:54.291Z""","658","materials/imgs/D96.png","arrowright","","[""materials/imgs/D20.png"",""materials/imgs/D18.png""]","false","random","","",""
"","","","","","html-keyboard-response","137","147399","0.0-15.0-0.0-0.2","vk6od3yv1h","","vk6od3yv1h","""2024-11-14T20:30:54.291Z""","null","+","null","","","","","","",""
"","","","","","image-keyboard-response","138","148076","0.0-15.0-0.0-1.2","vk6od3yv1h","","vk6od3yv1h","""2024-11-14T20:30:54.291Z""","666","materials/imgs/D6.png","arrowleft","","[""materials/imgs/D82.png"",""materials/imgs/D46.png""]","false","random","","",""
"","","","","","html-keyboard-response","139","148577","0.0-15.0-0.0-0.3","vk6od3yv1h","","vk6od3yv1h","""2024-11-14T20:30:54.291Z""","null","+","null","","","","","","",""
"","","","","","image-keyboard-response","140","149646","0.0-15.0-0.0-1.3","vk6od3yv1h","","vk6od3yv1h","""2024-11-14T20:30:54.291Z""","1068","materials/imgs/D75.png","arrowleft","","[""materials/imgs/D53.png"",""materials/imgs/D17.png""]","false","random","","",""
"","","","","","html-keyboard-response","141","150147","0.0-15.0-0.0-0.4","vk6od3yv1h","","vk6od3yv1h","""2024-11-14T20:30:54.291Z""","null","+","null","","","","","","",""
"","","","","","image-keyboard-response","142","151191","0.0-15.0-0.0-1.4","vk6od3yv1h","","vk6od3yv1h","""2024-11-14T20:30:54.291Z""","1043","materials/imgs/D8.png","arrowleft","","[""materials/imgs/D106.png"",""materials/imgs/D6.png""]","false","random","","",""
"","","","","","html-keyboard-response","143","151693","0.0-15.0-0.0-0.5","vk6od3yv1h","","vk6od3yv1h","""2024-11-14T20:30:54.291Z""","null","+","null","","","","","","",""
"","","","","","image-keyboard-response","144","152563","0.0-15.0-0.0-1.5","vk6od3yv1h","","vk6od3yv1h","""2024-11-14T20:30:54.291Z""","869","materials/imgs/D84.png","arrowleft","","[""materials/imgs/D75.png"",""materials/imgs/D35.png""]","false","random","","",""
"","","","","","html-keyboard-response","145","153065","0.0-15.0-0.0-0.6","vk6od3yv1h","","vk6od3yv1h","""2024-11-14T20:30:54.291Z""","null","+","null","","","","","","",""
"","","","","","image-keyboard-response","146","153575","0.0-15.0-0.0-1.6","vk6od3yv1h","","vk6od3yv1h","""2024-11-14T20:30:54.291Z""","508","materials/imgs/D56.png","arrowleft","","[""materials/imgs/D47.png"",""materials/imgs/D16.png""]","false","random","","",""
"","","","","","html-keyboard-response","147","154076","0.0-15.0-1.0-0.0","vk6od3yv1h","","vk6od3yv1h","""2024-11-14T20:30:54.291Z""","null","+","null","","","","","","",""
"","","","","","image-keyboard-response","148","154562","0.0-15.0-1.0-1.0","vk6od3yv1h","","vk6od3yv1h","""2024-11-14T20:30:54.291Z""","485","materials/imgs/D18.png","arrowright","","[""materials/imgs/D8.png"",""materials/imgs/D18.png""]","","check","materials/imgs/D18.png","1","true"
"","","","","","html-keyboard-response","149","155063","0.0-15.0-2.0-0.0","vk6od3yv1h","","vk6od3yv1h","""2024-11-14T20:30:54.291Z""","null","+","null","","","","","","",""
"","","","","","image-keyboard-response","150","156366","0.0-15.0-2.0-1.0","vk6od3yv1h","","vk6od3yv1h","""2024-11-14T20:30:54.291Z""","1302","materials/imgs/D16.png","arrowleft","","[""materials/imgs/D52.png"",""materials/imgs/D25.png""]","false","validation","","",""
"","","","","","html-keyboard-response","151","156868","0.0-15.0-2.0-0.1","vk6od3yv1h","","vk6od3yv1h","""2024-11-14T20:30:54.291Z""","null","+","null","","","","","","",""
"","","","","","image-keyboard-response","152","157982","0.0-15.0-2.0-1.1","vk6od3yv1h","","vk6od3yv1h","""2024-11-14T20:30:54.291Z""","1113","materials/imgs/D6.png","arrowright","","[""materials/imgs/D26.png"",""materials/imgs/D76.png""]","false","validation","","",""
"","","","","","html-keyboard-response","153","158483","0.0-15.0-0.1-0.7","vk6od3yv1h","","vk6od3yv1h","""2024-11-14T20:30:54.291Z""","null","+","null","","","","","","",""
"","","","","","image-keyboard-response","154","159511","0.0-15.0-0.1-1.7","vk6od3yv1h","","vk6od3yv1h","""2024-11-14T20:30:54.291Z""","1026","materials/imgs/D19.png","arrowright","","[""materials/imgs/D14.png"",""materials/imgs/D24.png""]","false","random","","",""
"","","","","","html-keyboard-response","155","160012","0.0-15.0-0.1-0.8","vk6od3yv1h","","vk6od3yv1h","""2024-11-14T20:30:54.291Z""","null","+","null","","","","","","",""
"","","","","","image-keyboard-response","156","160604","0.0-15.0-0.1-1.8","vk6od3yv1h","","vk6od3yv1h","""2024-11-14T20:30:54.291Z""","590","materials/imgs/D83.png","arrowleft","","[""materials/imgs/D84.png"",""materials/imgs/D101.png""]","false","random","","",""
"","","","","","html-keyboard-response","157","161105","0.0-15.0-0.1-0.9","vk6od3yv1h","","vk6od3yv1h","""2024-11-14T20:30:54.291Z""","null","+","null","","","","","","",""
"","","","","","image-keyboard-response","158","162397","0.0-15.0-0.1-1.9","vk6od3yv1h","","vk6od3yv1h","""2024-11-14T20:30:54.291Z""","1289","materials/imgs/D11.png","arrowright","","[""materials/imgs/D48.png"",""materials/imgs/D6.png""]","false","random","","",""
"","","","","","html-keyboard-response","159","162898","0.0-15.0-0.1-0.10","vk6od3yv1h","","vk6od3yv1h","""2024-11-14T20:30:54.291Z""","null","+","null","","","","","","",""
"","","","","","image-keyboard-response","160","163859","0.0-15.0-0.1-1.10","vk6od3yv1h","","vk6od3yv1h","""2024-11-14T20:30:54.291Z""","959","materials/imgs/D32.png","arrowleft","","[""materials/imgs/D6.png"",""materials/imgs/D25.png""]","false","random","","",""
"","","","","","html-keyboard-response","161","164360","0.0-15.0-0.1-0.11","vk6od3yv1h","","vk6od3yv1h","""2024-11-14T20:30:54.291Z""","null","+","null","","","","","","",""
"","","","","","image-keyboard-response","162","165707","0.0-15.0-0.1-1.11","vk6od3yv1h","","vk6od3yv1h","""2024-11-14T20:30:54.291Z""","1345","materials/imgs/D78.png","arrowright","","[""materials/imgs/D65.png"",""materials/imgs/D66.png""]","false","random","","",""
"","","","","","html-keyboard-response","163","166208","0.0-15.0-0.1-0.12","vk6od3yv1h","","vk6od3yv1h","""2024-11-14T20:30:54.291Z""","null","+","null","","","","","","",""
"","","","","","image-keyboard-response","164","167359","0.0-15.0-0.1-1.12","vk6od3yv1h","","vk6od3yv1h","""2024-11-14T20:30:54.291Z""","1148","materials/imgs/D34.png","arrowright","","[""materials/imgs/D78.png"",""materials/imgs/D66.png""]","false","random","","",""
"","","","","","html-keyboard-response","165","167860","0.0-15.0-0.1-0.13","vk6od3yv1h","","vk6od3yv1h","""2024-11-14T20:30:54.291Z""","null","+","null","","","","","","",""
"","","","","","image-keyboard-response","166","168749","0.0-15.0-0.1-1.13","vk6od3yv1h","","vk6od3yv1h","""2024-11-14T20:30:54.291Z""","887","materials/imgs/D111.png","arrowleft","","[""materials/imgs/D74.png"",""materials/imgs/D84.png""]","false","random","","",""
"","","","","","html-keyboard-response","167","169250","0.0-15.0-1.1-0.1","vk6od3yv1h","","vk6od3yv1h","""2024-11-14T20:30:54.291Z""","null","+","null","","","","","","",""
"","","","","","image-keyboard-response","168","169775","0.0-15.0-1.1-1.1","vk6od3yv1h","","vk6od3yv1h","""2024-11-14T20:30:54.291Z""","523","materials/imgs/D64.png","arrowleft","","[""materials/imgs/D64.png"",""materials/imgs/D53.png""]","","check","materials/imgs/D64.png","0","true"
"","","","","","html-keyboard-response","169","170277","0.0-15.0-2.1-0.2","vk6od3yv1h","","vk6od3yv1h","""2024-11-14T20:30:54.291Z""","null","+","null","","","","","","",""
"","","","","","image-keyboard-response","170","171279","0.0-15.0-2.1-1.2","vk6od3yv1h","","vk6od3yv1h","""2024-11-14T20:30:54.291Z""","1000","materials/imgs/D95.png","arrowleft","","[""materials/imgs/D36.png"",""materials/imgs/D4.png""]","false","validation","","",""
"","","","","","html-keyboard-response","171","171781","0.0-15.0-2.1-0.3","vk6od3yv1h","","vk6od3yv1h","""2024-11-14T20:30:54.291Z""","null","+","null","","","","","","",""
"","","","","","image-keyboard-response","172","173062","0.0-15.0-2.1-1.3","vk6od3yv1h","","vk6od3yv1h","""2024-11-14T20:30:54.291Z""","1280","materials/imgs/D51.png","arrowleft","","[""materials/imgs/D92.png"",""materials/imgs/D20.png""]","false","validation","","",""
"","","","","","html-keyboard-response","173","173563","0.0-15.0-0.2-0.14","vk6od3yv1h","","vk6od3yv1h","""2024-11-14T20:30:54.291Z""","null","+","null","","","","","","",""
"","","","","","image-keyboard-response","174","174424","0.0-15.0-0.2-1.14","vk6od3yv1h","","vk6od3yv1h","""2024-11-14T20:30:54.291Z""","859","materials/imgs/D74.png","arrowleft","","[""materials/imgs/D101.png"",""materials/imgs/D68.png""]","false","random","","",""
"","","","","","html-keyboard-response","175","174925","0.0-15.0-0.2-0.15","vk6od3yv1h","","vk6od3yv1h","""2024-11-14T20:30:54.291Z""","null","+","null","","","","","","",""
"","","","","","image-keyboard-response","176","175860","0.0-15.0-0.2-1.15","vk6od3yv1h","","vk6od3yv1h","""2024-11-14T20:30:54.291Z""","933","materials/imgs/D57.png","arrowleft","","[""materials/imgs/D6.png"",""materials/imgs/D20.png""]","false","random","","",""
"","","","","","html-keyboard-response","177","176362","0.0-15.0-0.2-0.16","vk6od3yv1h","","vk6od3yv1h","""2024-11-14T20:30:54.291Z""","null","+","null","","","","","","",""
"","","","","","image-keyboard-response","178","177465","0.0-15.0-0.2-1.16","vk6od3yv1h","","vk6od3yv1h","""2024-11-14T20:30:54.291Z""","1101","materials/imgs/D20.png","arrowright","","[""materials/imgs/D19.png"",""materials/imgs/D53.png""]","false","random","","",""
"","","","","","html-keyboard-response","179","177966","0.0-15.0-0.2-0.17","vk6od3yv1h","","vk6od3yv1h","""2024-11-14T20:30:54.291Z""","null","+","null","","","","","","",""
"","","","","","image-keyboard-response","180","179229","0.0-15.0-0.2-1.17","vk6od3yv1h","","vk6od3yv1h","""2024-11-14T20:30:54.291Z""","1261","materials/imgs/D57.png","arrowleft","","[""materials/imgs/D36.png"",""materials/imgs/D96.png""]","false","random","","",""
"","","","","","html-keyboard-response","181","179730","0.0-15.0-0.2-0.18","vk6od3yv1h","","vk6od3yv1h","""2024-11-14T20:30:54.291Z""","null","+","null","","","","","","",""
"","","","","","image-keyboard-response","182","180427","0.0-15.0-0.2-1.18","vk6od3yv1h","","vk6od3yv1h","""2024-11-14T20:30:54.291Z""","695","materials/imgs/D21.png","arrowleft","","[""materials/imgs/D14.png"",""materials/imgs/D48.png""]","false","random","","",""
"","","","","","html-keyboard-response","183","180928","0.0-15.0-0.2-0.19","vk6od3yv1h","","vk6od3yv1h","""2024-11-14T20:30:54.291Z""","null","+","null","","","","","","",""
"","","","","","image-keyboard-response","184","181702","0.0-15.0-0.2-1.19","vk6od3yv1h","","vk6od3yv1h","""2024-11-14T20:30:54.291Z""","773","materials/imgs/D74.png","arrowright","","[""materials/imgs/D55.png"",""materials/imgs/D46.png""]","false","random","","",""
"","","","","","html-keyboard-response","185","182204","0.0-15.0-0.2-0.20","vk6od3yv1h","","vk6od3yv1h","""2024-11-14T20:30:54.291Z""","null","+","null","","","","","","",""
"","","","","","image-keyboard-response","186","183515","0.0-15.0-0.2-1.20","vk6od3yv1h","","vk6od3yv1h","""2024-11-14T20:30:54.291Z""","1309","materials/imgs/D16.png","arrowleft","","[""materials/imgs/D4.png"",""materials/imgs/D24.png""]","false","random","","",""
"","","","","","html-keyboard-response","187","184017","0.0-15.0-1.2-0.2","vk6od3yv1h","","vk6od3yv1h","""2024-11-14T20:30:54.291Z""","null","+","null","","","","","","",""
"","","","","","image-keyboard-response","188","184675","0.0-15.0-1.2-1.2","vk6od3yv1h","","vk6od3yv1h","""2024-11-14T20:30:54.291Z""","657","materials/imgs/D53.png","arrowright","","[""materials/imgs/D64.png"",""materials/imgs/D53.png""]","","check","materials/imgs/D53.png","1","true"
"","","","","","html-keyboard-response","189","185177","0.0-15.0-2.2-0.4","vk6od3yv1h","","vk6od3yv1h","""2024-11-14T20:30:54.291Z""","null","+","null","","","","","","",""
"","","","","","image-keyboard-response","190","186093","0.0-15.0-2.2-1.4","vk6od3yv1h","","vk6od3yv1h","""2024-11-14T20:30:54.291Z""","915","materials/imgs/D8.png","arrowleft","","[""materials/imgs/D101.png"",""materials/imgs/D52.png""]","false","validation","","",""
"","","","","","html-keyboard-response","191","186594","0.0-15.0-2.2-0.5","vk6od3yv1h","","vk6od3yv1h","""2024-11-14T20:30:54.291Z""","null","+","null","","","","","","",""
"","","","","","image-keyboard-response","192","187497","0.0-15.0-2.2-1.5","vk6od3yv1h","","vk6od3yv1h","""2024-11-14T20:30:54.291Z""","901","materials/imgs/D66.png","arrowright","","[""materials/imgs/D85.png"",""materials/imgs/D25.png""]","false","validation","","",""
"","","","","","html-keyboard-response","193","187999","0.0-15.0-0.3-0.21","vk6od3yv1h","","vk6od3yv1h","""2024-11-14T20:30:54.291Z""","null","+","null","","","","","","",""
"","","","","","image-keyboard-response","194","188957","0.0-15.0-0.3-1.21","vk6od3yv1h","","vk6od3yv1h","""2024-11-14T20:30:54.291Z""","956","materials/imgs/D47.png","arrowleft","","[""materials/imgs/D9.png"",""materials/imgs/D29.png""]","false","random","","",""
"","","","","","html-keyboard-response","195","189458","0.0-15.0-0.3-0.22","vk6od3yv1h","","vk6od3yv1h","""2024-11-14T20:30:54.291Z""","null","+","null","","","","","","",""
"","","","","","image-keyboard-response","196","190452","0.0-15.0-0.3-1.22","vk6od3yv1h","","vk6od3yv1h","""2024-11-14T20:30:54.291Z""","992","materials/imgs/D6.png","arrowright","","[""materials/imgs/D101.png"",""materials/imgs/D32.png""]","false","random","","",""
"","","","","","html-keyboard-response","197","190954","0.0-15.0-0.3-0.23","vk6od3yv1h","","vk6od3yv1h","""2024-11-14T20:30:54.291Z""","null","+","null","","","","","","",""
"","","","","","image-keyboard-response","198","191832","0.0-15.0-0.3-1.23","vk6od3yv1h","","vk6od3yv1h","""2024-11-14T20:30:54.291Z""","876","materials/imgs/D101.png","arrowleft","","[""materials/imgs/D48.png"",""materials/imgs/D19.png""]","false","random","","",""
"","","","","","html-keyboard-response","199","192333","0.0-15.0-0.3-0.24","vk6od3yv1h","","vk6od3yv1h","""2024-11-14T20:30:54.291Z""","null","+","null","","","","","","",""
"","","","","","image-keyboard-response","200","194443","0.0-15.0-0.3-1.24","vk6od3yv1h","","vk6od3yv1h","""2024-11-14T20:30:54.291Z""","2108","materials/imgs/D20.png","arrowleft","","[""materials/imgs/D47.png"",""materials/imgs/D18.png""]","false","random","","",""
"","","","","","html-keyboard-response","201","194944","0.0-15.0-0.3-0.25","vk6od3yv1h","","vk6od3yv1h","""2024-11-14T20:30:54.291Z""","null","+","null","","","","","","",""
"","","","","","image-keyboard-response","202","195865","0.0-15.0-0.3-1.25","vk6od3yv1h","","vk6od3yv1h","""2024-11-14T20:30:54.291Z""","919","materials/imgs/D6.png","arrowright","","[""materials/imgs/D16.png"",""materials/imgs/D80.png""]","false","random","","",""
"","","","","","html-keyboard-response","203","196367","0.0-15.0-0.3-0.26","vk6od3yv1h","","vk6od3yv1h","""2024-11-14T20:30:54.291Z""","null","+","null","","","","","","",""
"","","","","","image-keyboard-response","204","197533","0.0-15.0-0.3-1.26","vk6od3yv1h","","vk6od3yv1h","""2024-11-14T20:30:54.291Z""","1165","materials/imgs/D95.png","arrowleft","","[""materials/imgs/D68.png"",""materials/imgs/D79.png""]","false","random","","",""
"","","","","","html-keyboard-response","205","198035","0.0-15.0-0.3-0.27","vk6od3yv1h","","vk6od3yv1h","""2024-11-14T20:30:54.291Z""","null","+","null","","","","","","",""
"","","","","","image-keyboard-response","206","198688","0.0-15.0-0.3-1.27","vk6od3yv1h","","vk6od3yv1h","""2024-11-14T20:30:54.291Z""","651","materials/imgs/D6.png","arrowright","","[""materials/imgs/D26.png"",""materials/imgs/D55.png""]","false","random","","",""
"","","","","","html-keyboard-response","207","199189","0.0-15.0-1.3-0.3","vk6od3yv1h","","vk6od3yv1h","""2024-11-14T20:30:54.291Z""","null","+","null","","","","","","",""
"","","","","","image-keyboard-response","208","199671","0.0-15.0-1.3-1.3","vk6od3yv1h","","vk6od3yv1h","""2024-11-14T20:30:54.291Z""","481","materials/imgs/D46.png","arrowleft","","[""materials/imgs/D46.png"",""materials/imgs/D26.png""]","","check","materials/imgs/D46.png","0","true"
"","","","","","html-keyboard-response","209","200173","0.0-15.0-2.3-0.6","vk6od3yv1h","","vk6od3yv1h","""2024-11-14T20:30:54.291Z""","null","+","null","","","","","","",""
"","","","","","image-keyboard-response","210","200694","0.0-15.0-2.3-1.6","vk6od3yv1h","","vk6od3yv1h","""2024-11-14T20:30:54.291Z""","519","materials/imgs/D81.png","arrowright","","[""materials/imgs/D105.png"",""materials/imgs/D24.png""]","false","validation","","",""
"","","","","","html-keyboard-response","211","201196","0.0-15.0-2.3-0.7","vk6od3yv1h","","vk6od3yv1h","""2024-11-14T20:30:54.291Z""","null","+","null","","","","","","",""
"","","","","","image-keyboard-response","212","201873","0.0-15.0-2.3-1.7","vk6od3yv1h","","vk6od3yv1h","""2024-11-14T20:30:54.291Z""","676","materials/imgs/D76.png","arrowleft","","[""materials/imgs/D83.png"",""materials/imgs/D6.png""]","false","validation","","",""
"","","","","","html-keyboard-response","213","202374","0.0-15.0-0.4-0.28","vk6od3yv1h","","vk6od3yv1h","""2024-11-14T20:30:54.291Z""","null","+","null","","","","","","",""
"","","","","","image-keyboard-response","214","202867","0.0-15.0-0.4-1.28","vk6od3yv1h","","vk6od3yv1h","""2024-11-14T20:30:54.291Z""","491","materials/imgs/D87.png","arrowright","","[""materials/imgs/D49.png"",""materials/imgs/D80.png""]","true","random","","",""
"","","","","","html-keyboard-response","215","206953","0.0-15.0-0.4-2.28-0.28","vk6od3yv1h","","vk6od3yv1h","""2024-11-14T20:30:54.291Z""","4085","<p><strong>You're going too fast.</strong><p>Please slow down and assess each triplet.<p>Press 'y' to continue.</p></p>","y","","","","","","",""
"","","","","","html-keyboard-response","216","207454","0.0-15.0-0.4-0.29","vk6od3yv1h","","vk6od3yv1h","""2024-11-14T20:30:54.291Z""","null","+","null","","","","","","",""
"","","","","","image-keyboard-response","217","210092","0.0-15.0-0.4-1.29","vk6od3yv1h","","vk6od3yv1h","""2024-11-14T20:30:54.291Z""","2636","materials/imgs/D49.png","arrowleft","","[""materials/imgs/D24.png"",""materials/imgs/D68.png""]","false","random","","",""
"","","","","","html-keyboard-response","218","210593","0.0-15.0-0.4-0.30","vk6od3yv1h","","vk6od3yv1h","""2024-11-14T20:30:54.291Z""","null","+","null","","","","","","",""
"","","","","","image-keyboard-response","219","211642","0.0-15.0-0.4-1.30","vk6od3yv1h","","vk6od3yv1h","""2024-11-14T20:30:54.291Z""","1047","materials/imgs/D32.png","arrowright","","[""materials/imgs/D22.png"",""materials/imgs/D55.png""]","false","random","","",""
"","","","","","html-keyboard-response","220","212143","0.0-15.0-0.4-0.31","vk6od3yv1h","","vk6od3yv1h","""2024-11-14T20:30:54.291Z""","null","+","null","","","","","","",""
"","","","","","image-keyboard-response","221","213772","0.0-15.0-0.4-1.31","vk6od3yv1h","","vk6od3yv1h","""2024-11-14T20:30:54.291Z""","1627","materials/imgs/D80.png","arrowleft","","[""materials/imgs/D105.png"",""materials/imgs/D37.png""]","false","random","","",""
"","","","","","html-keyboard-response","222","214274","0.0-15.0-0.4-0.32","vk6od3yv1h","","vk6od3yv1h","""2024-11-14T20:30:54.291Z""","null","+","null","","","","","","",""
"","","","","","image-keyboard-response","223","214921","0.0-15.0-0.4-1.32","vk6od3yv1h","","vk6od3yv1h","""2024-11-14T20:30:54.291Z""","645","materials/imgs/D4.png","arrowright","","[""materials/imgs/D64.png"",""materials/imgs/D83.png""]","false","random","","",""
"","","","","","html-keyboard-response","224","215422","0.0-15.0-0.4-0.33","vk6od3yv1h","","vk6od3yv1h","""2024-11-14T20:30:54.291Z""","null","+","null","","","","","","",""
"","","","","","image-keyboard-response","225","216596","0.0-15.0-0.4-1.33","vk6od3yv1h","","vk6od3yv1h","""2024-11-14T20:30:54.291Z""","1172","materials/imgs/D79.png","arrowleft","","[""materials/imgs/D19.png"",""materials/imgs/D84.png""]","false","random","","",""
"","","","","","html-keyboard-response","226","217097","0.0-15.0-0.4-0.34","vk6od3yv1h","","vk6od3yv1h","""2024-11-14T20:30:54.291Z""","null","+","null","","","","","","",""
"","","","","","image-keyboard-response","227","219033","0.0-15.0-0.4-1.34","vk6od3yv1h","","vk6od3yv1h","""2024-11-14T20:30:54.291Z""","1935","materials/imgs/D19.png","arrowright","","[""materials/imgs/D46.png"",""materials/imgs/D35.png""]","false","random","","",""
"","","","","","html-keyboard-response","228","219534","0.0-15.0-1.4-0.4","vk6od3yv1h","","vk6od3yv1h","""2024-11-14T20:30:54.291Z""","null","+","null","","","","","","",""
"","","","","","image-keyboard-response","229","220083","0.0-15.0-1.4-1.4","vk6od3yv1h","","vk6od3yv1h","""2024-11-14T20:30:54.291Z""","546","materials/imgs/D101.png","arrowright","","[""materials/imgs/D106.png"",""materials/imgs/D101.png""]","","check","materials/imgs/D101.png","1","true"
"","","","","","html-keyboard-response","230","220584","0.0-15.0-2.4-0.8","vk6od3yv1h","","vk6od3yv1h","""2024-11-14T20:30:54.291Z""","null","+","null","","","","","","",""
"","","","","","image-keyboard-response","231","221732","0.0-15.0-2.4-1.8","vk6od3yv1h","","vk6od3yv1h","""2024-11-14T20:30:54.291Z""","1146","materials/imgs/D32.png","arrowleft","","[""materials/imgs/D68.png"",""materials/imgs/D96.png""]","false","validation","","",""
"","","","","","html-keyboard-response","232","222233","0.0-15.0-2.4-0.9","vk6od3yv1h","","vk6od3yv1h","""2024-11-14T20:30:54.291Z""","null","+","null","","","","","","",""
"","","","","","image-keyboard-response","233","223132","0.0-15.0-2.4-1.9","vk6od3yv1h","","vk6od3yv1h","""2024-11-14T20:30:54.291Z""","897","materials/imgs/D18.png","arrowleft","","[""materials/imgs/D32.png"",""materials/imgs/D57.png""]","false","validation","","",""
"","","","","","html-button-response","234","736421","0.0-16.0","vk6od3yv1h","","vk6od3yv1h","""2024-11-14T20:30:54.291Z""","178532","You have completed 50% of the trials. Please click 'Continue' when you are ready proceed.","0","","","","","","",""
"","","","","","html-keyboard-response","235","736922","0.0-17.0-0.0-0.0","vk6od3yv1h","","vk6od3yv1h","""2024-11-14T20:30:54.291Z""","null","+","null","","","","","","",""
"","","","","","image-keyboard-response","236","737982","0.0-17.0-0.0-1.0","vk6od3yv1h","","vk6od3yv1h","""2024-11-14T20:30:54.291Z""","1056","materials/imgs/D17.png","arrowright","","[""materials/imgs/D75.png"",""materials/imgs/D103.png""]","false","random","","",""
"","","","","","html-keyboard-response","237","738484","0.0-17.0-0.0-0.1","vk6od3yv1h","","vk6od3yv1h","""2024-11-14T20:30:54.291Z""","null","+","null","","","","","","",""
"","","","","","image-keyboard-response","238","739177","0.0-17.0-0.0-1.1","vk6od3yv1h","","vk6od3yv1h","""2024-11-14T20:30:54.291Z""","691","materials/imgs/D21.png","arrowleft","","[""materials/imgs/D9.png"",""materials/imgs/D96.png""]","false","random","","",""
"","","","","","html-keyboard-response","239","739678","0.0-17.0-0.0-0.2","vk6od3yv1h","","vk6od3yv1h","""2024-11-14T20:30:54.291Z""","null","+","null","","","","","","",""
"","","","","","image-keyboard-response","240","740638","0.0-17.0-0.0-1.2","vk6od3yv1h","","vk6od3yv1h","""2024-11-14T20:30:54.291Z""","956","materials/imgs/D104.png","arrowright","","[""materials/imgs/D16.png"",""materials/imgs/D102.png""]","false","random","","",""
"","","","","","html-keyboard-response","241","741140","0.0-17.0-0.0-0.3","vk6od3yv1h","","vk6od3yv1h","""2024-11-14T20:30:54.291Z""","null","+","null","","","","","","",""
"","","","","","image-keyboard-response","242","741854","0.0-17.0-0.0-1.3","vk6od3yv1h","","vk6od3yv1h","""2024-11-14T20:30:54.291Z""","709","materials/imgs/D103.png","arrowright","","[""materials/imgs/D48.png"",""materials/imgs/D51.png""]","false","random","","",""
"","","","","","html-keyboard-response","243","742356","0.0-17.0-0.0-0.4","vk6od3yv1h","","vk6od3yv1h","""2024-11-14T20:30:54.291Z""","null","+","null","","","","","","",""
"","","","","","image-keyboard-response","244","743393","0.0-17.0-0.0-1.4","vk6od3yv1h","","vk6od3yv1h","""2024-11-14T20:30:54.291Z""","1036","materials/imgs/D106.png","arrowright","","[""materials/imgs/D82.png"",""materials/imgs/D9.png""]","false","random","","",""
"","","","","","html-keyboard-response","245","743895","0.0-17.0-0.0-0.5","vk6od3yv1h","","vk6od3yv1h","""2024-11-14T20:30:54.291Z""","null","+","null","","","","","","",""
"","","","","","image-keyboard-response","246","744598","0.0-17.0-0.0-1.5","vk6od3yv1h","","vk6od3yv1h","""2024-11-14T20:30:54.291Z""","701","materials/imgs/D94.png","arrowleft","","[""materials/imgs/D51.png"",""materials/imgs/D49.png""]","false","random","","",""
"","","","","","html-keyboard-response","247","745099","0.0-17.0-0.0-0.6","vk6od3yv1h","","vk6od3yv1h","""2024-11-14T20:30:54.291Z""","null","+","null","","","","","","",""
"","","","","","image-keyboard-response","248","745842","0.0-17.0-0.0-1.6","vk6od3yv1h","","vk6od3yv1h","""2024-11-14T20:30:54.291Z""","741","materials/imgs/D84.png","arrowright","","[""materials/imgs/D83.png"",""materials/imgs/D32.png""]","false","random","","",""
"","","","","","html-keyboard-response","249","746344","0.0-17.0-1.0-0.0","vk6od3yv1h","","vk6od3yv1h","""2024-11-14T20:30:54.291Z""","null","+","null","","","","","","",""
"","","","","","image-keyboard-response","250","746913","0.0-17.0-1.0-1.0","vk6od3yv1h","","vk6od3yv1h","""2024-11-14T20:30:54.291Z""","567","materials/imgs/D8.png","arrowright","","[""materials/imgs/D18.png"",""materials/imgs/D8.png""]","","check","materials/imgs/D8.png","1","true"
"","","","","","html-keyboard-response","251","747414","0.0-17.0-2.0-0.0","vk6od3yv1h","","vk6od3yv1h","""2024-11-14T20:30:54.291Z""","null","+","null","","","","","","",""
"","","","","","image-keyboard-response","252","748415","0.0-17.0-2.0-1.0","vk6od3yv1h","","vk6od3yv1h","""2024-11-14T20:30:54.291Z""","999","materials/imgs/D84.png","arrowright","","[""materials/imgs/D106.png"",""materials/imgs/D37.png""]","false","validation","","",""
"","","","","","html-keyboard-response","253","748916","0.0-17.0-2.0-0.1","vk6od3yv1h","","vk6od3yv1h","""2024-11-14T20:30:54.291Z""","null","+","null","","","","","","",""
"","","","","","image-keyboard-response","254","749812","0.0-17.0-2.0-1.1","vk6od3yv1h","","vk6od3yv1h","""2024-11-14T20:30:54.291Z""","894","materials/imgs/D8.png","arrowleft","","[""materials/imgs/D101.png"",""materials/imgs/D52.png""]","false","validation","","",""
"","","","","","html-keyboard-response","255","750314","0.0-17.0-0.1-0.7","vk6od3yv1h","","vk6od3yv1h","""2024-11-14T20:30:54.291Z""","null","+","null","","","","","","",""
"","","","","","image-keyboard-response","256","750914","0.0-17.0-0.1-1.7","vk6od3yv1h","","vk6od3yv1h","""2024-11-14T20:30:54.291Z""","599","materials/imgs/D11.png","arrowright","","[""materials/imgs/D32.png"",""materials/imgs/D95.png""]","false","random","","",""
"","","","","","html-keyboard-response","257","751416","0.0-17.0-0.1-0.8","vk6od3yv1h","","vk6od3yv1h","""2024-11-14T20:30:54.291Z""","null","+","null","","","","","","",""
"","","","","","image-keyboard-response","258","752199","0.0-17.0-0.1-1.8","vk6od3yv1h","","vk6od3yv1h","""2024-11-14T20:30:54.291Z""","780","materials/imgs/D21.png","arrowright","","[""materials/imgs/D17.png"",""materials/imgs/D49.png""]","false","random","","",""
"","","","","","html-keyboard-response","259","752700","0.0-17.0-0.1-0.9","vk6od3yv1h","","vk6od3yv1h","""2024-11-14T20:30:54.291Z""","null","+","null","","","","","","",""
"","","","","","image-keyboard-response","260","754561","0.0-17.0-0.1-1.9","vk6od3yv1h","","vk6od3yv1h","""2024-11-14T20:30:54.291Z""","1858","materials/imgs/D92.png","arrowright","","[""materials/imgs/D68.png"",""materials/imgs/D3.png""]","false","random","","",""
"","","","","","html-keyboard-response","261","755062","0.0-17.0-0.1-0.10","vk6od3yv1h","","vk6od3yv1h","""2024-11-14T20:30:54.291Z""","null","+","null","","","","","","",""
"","","","","","image-keyboard-response","262","756213","0.0-17.0-0.1-1.10","vk6od3yv1h","","vk6od3yv1h","""2024-11-14T20:30:54.291Z""","1149","materials/imgs/D94.png","arrowright","","[""materials/imgs/D21.png"",""materials/imgs/D104.png""]","false","random","","",""
"","","","","","html-keyboard-response","263","756715","0.0-17.0-0.1-0.11","vk6od3yv1h","","vk6od3yv1h","""2024-11-14T20:30:54.291Z""","null","+","null","","","","","","",""
"","","","","","image-keyboard-response","264","757817","0.0-17.0-0.1-1.11","vk6od3yv1h","","vk6od3yv1h","""2024-11-14T20:30:54.291Z""","1100","materials/imgs/D74.png","arrowleft","","[""materials/imgs/D8.png"",""materials/imgs/D14.png""]","false","random","","",""
"","","","","","html-keyboard-response","265","758319","0.0-17.0-0.1-0.12","vk6od3yv1h","","vk6od3yv1h","""2024-11-14T20:30:54.291Z""","null","+","null","","","","","","",""
"","","","","","image-keyboard-response","266","759240","0.0-17.0-0.1-1.12","vk6od3yv1h","","vk6od3yv1h","""2024-11-14T20:30:54.291Z""","911","materials/imgs/D37.png","arrowleft","","[""materials/imgs/D11.png"",""materials/imgs/D101.png""]","false","random","","",""
"","","","","","html-keyboard-response","267","759741","0.0-17.0-0.1-0.13","vk6od3yv1h","","vk6od3yv1h","""2024-11-14T20:30:54.291Z""","null","+","null","","","","","","",""
"","","","","","image-keyboard-response","268","760497","0.0-17.0-0.1-1.13","vk6od3yv1h","","vk6od3yv1h","""2024-11-14T20:30:54.291Z""","754","materials/imgs/D14.png","arrowright","","[""materials/imgs/D87.png"",""materials/imgs/D80.png""]","false","random","","",""
"","","","","","html-keyboard-response","269","760998","0.0-17.0-1.1-0.1","vk6od3yv1h","","vk6od3yv1h","""2024-11-14T20:30:54.291Z""","null","+","null","","","","","","",""
"","","","","","image-keyboard-response","270","761638","0.0-17.0-1.1-1.1","vk6od3yv1h","","vk6od3yv1h","""2024-11-14T20:30:54.291Z""","638","materials/imgs/D78.png","arrowright","","[""materials/imgs/D76.png"",""materials/imgs/D78.png""]","","check","materials/imgs/D78.png","1","true"
"","","","","","html-keyboard-response","271","762139","0.0-17.0-2.1-0.2","vk6od3yv1h","","vk6od3yv1h","""2024-11-14T20:30:54.291Z""","null","+","null","","","","","","",""
"","","","","","image-keyboard-response","272","763365","0.0-17.0-2.1-1.2","vk6od3yv1h","","vk6od3yv1h","""2024-11-14T20:30:54.291Z""","1224","materials/imgs/D81.png","arrowright","","[""materials/imgs/D105.png"",""materials/imgs/D24.png""]","false","validation","","",""
"","","","","","html-keyboard-response","273","763866","0.0-17.0-2.1-0.3","vk6od3yv1h","","vk6od3yv1h","""2024-11-14T20:30:54.291Z""","null","+","null","","","","","","",""
"","","","","","image-keyboard-response","274","765486","0.0-17.0-2.1-1.3","vk6od3yv1h","","vk6od3yv1h","""2024-11-14T20:30:54.291Z""","1619","materials/imgs/D36.png","arrowright","","[""materials/imgs/D47.png"",""materials/imgs/D49.png""]","false","validation","","",""
"","","","","","html-keyboard-response","275","765988","0.0-17.0-0.2-0.14","vk6od3yv1h","","vk6od3yv1h","""2024-11-14T20:30:54.291Z""","null","+","null","","","","","","",""
"","","","","","image-keyboard-response","276","766989","0.0-17.0-0.2-1.14","vk6od3yv1h","","vk6od3yv1h","""2024-11-14T20:30:54.291Z""","999","materials/imgs/D103.png","arrowright","","[""materials/imgs/D55.png"",""materials/imgs/D80.png""]","false","random","","",""
"","","","","","html-keyboard-response","277","767490","0.0-17.0-0.2-0.15","vk6od3yv1h","","vk6od3yv1h","""2024-11-14T20:30:54.291Z""","null","+","null","","","","","","",""
"","","","","","image-keyboard-response","278","768218","0.0-17.0-0.2-1.15","vk6od3yv1h","","vk6od3yv1h","""2024-11-14T20:30:54.291Z""","726","materials/imgs/D95.png","arrowleft","","[""materials/imgs/D26.png"",""materials/imgs/D17.png""]","false","random","","",""
"","","","","","html-keyboard-response","279","768719","0.0-17.0-0.2-0.16","vk6od3yv1h","","vk6od3yv1h","""2024-11-14T20:30:54.291Z""","null","+","null","","","","","","",""
"","","","","","image-keyboard-response","280","769752","0.0-17.0-0.2-1.16","vk6od3yv1h","","vk6od3yv1h","""2024-11-14T20:30:54.291Z""","1031","materials/imgs/D106.png","arrowright","","[""materials/imgs/D4.png"",""materials/imgs/D17.png""]","false","random","","",""
"","","","","","html-keyboard-response","281","770254","0.0-17.0-0.2-0.17","vk6od3yv1h","","vk6od3yv1h","""2024-11-14T20:30:54.291Z""","null","+","null","","","","","","",""
"","","","","","image-keyboard-response","282","772064","0.0-17.0-0.2-1.17","vk6od3yv1h","","vk6od3yv1h","""2024-11-14T20:30:54.291Z""","1809","materials/imgs/D47.png","arrowleft","","[""materials/imgs/D102.png"",""materials/imgs/D92.png""]","false","random","","",""
"","","","","","html-keyboard-response","283","772565","0.0-17.0-0.2-0.18","vk6od3yv1h","","vk6od3yv1h","""2024-11-14T20:30:54.291Z""","null","+","null","","","","","","",""
"","","","","","image-keyboard-response","284","773659","0.0-17.0-0.2-1.18","vk6od3yv1h","","vk6od3yv1h","""2024-11-14T20:30:54.291Z""","1092","materials/imgs/D85.png","arrowright","","[""materials/imgs/D17.png"",""materials/imgs/D14.png""]","false","random","","",""
"","","","","","html-keyboard-response","285","774160","0.0-17.0-0.2-0.19","vk6od3yv1h","","vk6od3yv1h","""2024-11-14T20:30:54.291Z""","null","+","null","","","","","","",""
"","","","","","image-keyboard-response","286","775841","0.0-17.0-0.2-1.19","vk6od3yv1h","","vk6od3yv1h","""2024-11-14T20:30:54.291Z""","1680","materials/imgs/D17.png","arrowright","","[""materials/imgs/D46.png"",""materials/imgs/D52.png""]","false","random","","",""
"","","","","","html-keyboard-response","287","776343","0.0-17.0-0.2-0.20","vk6od3yv1h","","vk6od3yv1h","""2024-11-14T20:30:54.291Z""","null","+","null","","","","","","",""
"","","","","","image-keyboard-response","288","777275","0.0-17.0-0.2-1.20","vk6od3yv1h","","vk6od3yv1h","""2024-11-14T20:30:54.291Z""","930","materials/imgs/D101.png","arrowleft","","[""materials/imgs/D52.png"",""materials/imgs/D74.png""]","false","random","","",""
"","","","","","html-keyboard-response","289","777776","0.0-17.0-1.2-0.2","vk6od3yv1h","","vk6od3yv1h","""2024-11-14T20:30:54.291Z""","null","+","null","","","","","","",""
"","","","","","image-keyboard-response","290","778687","0.0-17.0-1.2-1.2","vk6od3yv1h","","vk6od3yv1h","""2024-11-14T20:30:54.291Z""","909","materials/imgs/D64.png","arrowleft","","[""materials/imgs/D64.png"",""materials/imgs/D53.png""]","","check","materials/imgs/D64.png","0","true"
"","","","","","html-keyboard-response","291","779188","0.0-17.0-2.2-0.4","vk6od3yv1h","","vk6od3yv1h","""2024-11-14T20:30:54.291Z""","null","+","null","","","","","","",""
"","","","","","image-keyboard-response","292","779954","0.0-17.0-2.2-1.4","vk6od3yv1h","","vk6od3yv1h","""2024-11-14T20:30:54.291Z""","764","materials/imgs/D25.png","arrowright","","[""materials/imgs/D103.png"",""materials/imgs/D64.png""]","false","validation","","",""
"","","","","","html-keyboard-response","293","780456","0.0-17.0-2.2-0.5","vk6od3yv1h","","vk6od3yv1h","""2024-11-14T20:30:54.291Z""","null","+","null","","","","","","",""
"","","","","","image-keyboard-response","294","781106","0.0-17.0-2.2-1.5","vk6od3yv1h","","vk6od3yv1h","""2024-11-14T20:30:54.291Z""","649","materials/imgs/D4.png","arrowleft","","[""materials/imgs/D52.png"",""materials/imgs/D83.png""]","false","validation","","",""
"","","","","","html-keyboard-response","295","781607","0.0-17.0-0.3-0.21","vk6od3yv1h","","vk6od3yv1h","""2024-11-14T20:30:54.291Z""","null","+","null","","","","","","",""
"","","","","","image-keyboard-response","296","782688","0.0-17.0-0.3-1.21","vk6od3yv1h","","vk6od3yv1h","""2024-11-14T20:30:54.291Z""","1080","materials/imgs/D82.png","arrowleft","","[""materials/imgs/D94.png"",""materials/imgs/D46.png""]","false","random","","",""
"","","","","","html-keyboard-response","297","783190","0.0-17.0-0.3-0.22","vk6od3yv1h","","vk6od3yv1h","""2024-11-14T20:30:54.291Z""","null","+","null","","","","","","",""
"","","","","","image-keyboard-response","298","783867","0.0-17.0-0.3-1.22","vk6od3yv1h","","vk6od3yv1h","""2024-11-14T20:30:54.291Z""","676","materials/imgs/D95.png","arrowleft","","[""materials/imgs/D1.png"",""materials/imgs/D18.png""]","false","random","","",""
"","","","","","html-keyboard-response","299","784369","0.0-17.0-0.3-0.23","vk6od3yv1h","","vk6od3yv1h","""2024-11-14T20:30:54.291Z""","null","+","null","","","","","","",""
"","","","","","image-keyboard-response","300","785223","0.0-17.0-0.3-1.23","vk6od3yv1h","","vk6od3yv1h","""2024-11-14T20:30:54.291Z""","852","materials/imgs/D3.png","arrowleft","","[""materials/imgs/D87.png"",""materials/imgs/D4.png""]","false","random","","",""
"","","","","","html-keyboard-response","301","785724","0.0-17.0-0.3-0.24","vk6od3yv1h","","vk6od3yv1h","""2024-11-14T20:30:54.291Z""","null","+","null","","","","","","",""
"","","","","","image-keyboard-response","302","786424","0.0-17.0-0.3-1.24","vk6od3yv1h","","vk6od3yv1h","""2024-11-14T20:30:54.291Z""","699","materials/imgs/D94.png","arrowleft","","[""materials/imgs/D19.png"",""materials/imgs/D14.png""]","false","random","","",""
"","","","","","html-keyboard-response","303","786926","0.0-17.0-0.3-0.25","vk6od3yv1h","","vk6od3yv1h","""2024-11-14T20:30:54.291Z""","null","+","null","","","","","","",""
"","","","","","image-keyboard-response","304","787473","0.0-17.0-0.3-1.25","vk6od3yv1h","","vk6od3yv1h","""2024-11-14T20:30:54.291Z""","545","materials/imgs/D53.png","arrowleft","","[""materials/imgs/D17.png"",""materials/imgs/D37.png""]","false","random","","",""
"","","","","","html-keyboard-response","305","787974","0.0-17.0-0.3-0.26","vk6od3yv1h","","vk6od3yv1h","""2024-11-14T20:30:54.291Z""","null","+","null","","","","","","",""
"","","","","","image-keyboard-response","306","788525","0.0-17.0-0.3-1.26","vk6od3yv1h","","vk6od3yv1h","""2024-11-14T20:30:54.291Z""","548","materials/imgs/D57.png","arrowright","","[""materials/imgs/D21.png"",""materials/imgs/D104.png""]","false","random","","",""
"","","","","","html-keyboard-response","307","789027","0.0-17.0-0.3-0.27","vk6od3yv1h","","vk6od3yv1h","""2024-11-14T20:30:54.291Z""","null","+","null","","","","","","",""
"","","","","","image-keyboard-response","308","789615","0.0-17.0-0.3-1.27","vk6od3yv1h","","vk6od3yv1h","""2024-11-14T20:30:54.291Z""","586","materials/imgs/D14.png","arrowright","","[""materials/imgs/D25.png"",""materials/imgs/D80.png""]","false","random","","",""
"","","","","","html-keyboard-response","309","790116","0.0-17.0-1.3-0.3","vk6od3yv1h","","vk6od3yv1h","""2024-11-14T20:30:54.291Z""","null","+","null","","","","","","",""
"","","","","","image-keyboard-response","310","790663","0.0-17.0-1.3-1.3","vk6od3yv1h","","vk6od3yv1h","""2024-11-14T20:30:54.291Z""","546","materials/imgs/D26.png","arrowleft","","[""materials/imgs/D26.png"",""materials/imgs/D46.png""]","","check","materials/imgs/D26.png","0","true"
"","","","","","html-keyboard-response","311","791164","0.0-17.0-2.3-0.6","vk6od3yv1h","","vk6od3yv1h","""2024-11-14T20:30:54.291Z""","null","+","null","","","","","","",""
"","","","","","image-keyboard-response","312","791720","0.0-17.0-2.3-1.6","vk6od3yv1h","","vk6od3yv1h","""2024-11-14T20:30:54.291Z""","554","materials/imgs/D79.png","arrowright","","[""materials/imgs/D51.png"",""materials/imgs/D64.png""]","false","validation","","",""
"","","","","","html-keyboard-response","313","792221","0.0-17.0-2.3-0.7","vk6od3yv1h","","vk6od3yv1h","""2024-11-14T20:30:54.291Z""","null","+","null","","","","","","",""
"","","","","","image-keyboard-response","314","793092","0.0-17.0-2.3-1.7","vk6od3yv1h","","vk6od3yv1h","""2024-11-14T20:30:54.291Z""","869","materials/imgs/D76.png","arrowleft","","[""materials/imgs/D83.png"",""materials/imgs/D6.png""]","false","validation","","",""
"","","","","","html-keyboard-response","315","793593","0.0-17.0-0.4-0.28","vk6od3yv1h","","vk6od3yv1h","""2024-11-14T20:30:54.291Z""","null","+","null","","","","","","",""
"","","","","","image-keyboard-response","316","794102","0.0-17.0-0.4-1.28","vk6od3yv1h","","vk6od3yv1h","""2024-11-14T20:30:54.291Z""","506","materials/imgs/D92.png","arrowright","","[""materials/imgs/D36.png"",""materials/imgs/D37.png""]","false","random","","",""
"","","","","","html-keyboard-response","317","794603","0.0-17.0-0.4-0.29","vk6od3yv1h","","vk6od3yv1h","""2024-11-14T20:30:54.291Z""","null","+","null","","","","","","",""
"","","","","","image-keyboard-response","318","795867","0.0-17.0-0.4-1.29","vk6od3yv1h","","vk6od3yv1h","""2024-11-14T20:30:54.291Z""","1262","materials/imgs/D79.png","arrowright","","[""materials/imgs/D36.png"",""materials/imgs/D25.png""]","false","random","","",""
"","","","","","html-keyboard-response","319","796369","0.0-17.0-0.4-0.30","vk6od3yv1h","","vk6od3yv1h","""2024-11-14T20:30:54.291Z""","null","+","null","","","","","","",""
"","","","","","image-keyboard-response","320","797057","0.0-17.0-0.4-1.30","vk6od3yv1h","","vk6od3yv1h","""2024-11-14T20:30:54.291Z""","687","materials/imgs/D34.png","arrowleft","","[""materials/imgs/D101.png"",""materials/imgs/D48.png""]","false","random","","",""
"","","","","","html-keyboard-response","321","797559","0.0-17.0-0.4-0.31","vk6od3yv1h","","vk6od3yv1h","""2024-11-14T20:30:54.291Z""","null","+","null","","","","","","",""
"","","","","","image-keyboard-response","322","798438","0.0-17.0-0.4-1.31","vk6od3yv1h","","vk6od3yv1h","""2024-11-14T20:30:54.291Z""","876","materials/imgs/D74.png","arrowright","","[""materials/imgs/D6.png"",""materials/imgs/D76.png""]","false","random","","",""
"","","","","","html-keyboard-response","323","798939","0.0-17.0-0.4-0.32","vk6od3yv1h","","vk6od3yv1h","""2024-11-14T20:30:54.291Z""","null","+","null","","","","","","",""
"","","","","","image-keyboard-response","324","799882","0.0-17.0-0.4-1.32","vk6od3yv1h","","vk6od3yv1h","""2024-11-14T20:30:54.291Z""","940","materials/imgs/D95.png","arrowright","","[""materials/imgs/D92.png"",""materials/imgs/D103.png""]","false","random","","",""
"","","","","","html-keyboard-response","325","800383","0.0-17.0-0.4-0.33","vk6od3yv1h","","vk6od3yv1h","""2024-11-14T20:30:54.291Z""","null","+","null","","","","","","",""
"","","","","","image-keyboard-response","326","801974","0.0-17.0-0.4-1.33","vk6od3yv1h","","vk6od3yv1h","""2024-11-14T20:30:54.291Z""","1589","materials/imgs/D18.png","arrowleft","","[""materials/imgs/D29.png"",""materials/imgs/D32.png""]","false","random","","",""
"","","","","","html-keyboard-response","327","802475","0.0-17.0-0.4-0.34","vk6od3yv1h","","vk6od3yv1h","""2024-11-14T20:30:54.291Z""","null","+","null","","","","","","",""
"","","","","","image-keyboard-response","328","803003","0.0-17.0-0.4-1.34","vk6od3yv1h","","vk6od3yv1h","""2024-11-14T20:30:54.291Z""","526","materials/imgs/D19.png","arrowright","","[""materials/imgs/D79.png"",""materials/imgs/D66.png""]","false","random","","",""
"","","","","","html-keyboard-response","329","803504","0.0-17.0-1.4-0.4","vk6od3yv1h","","vk6od3yv1h","""2024-11-14T20:30:54.291Z""","null","+","null","","","","","","",""
"","","","","","image-keyboard-response","330","804444","0.0-17.0-1.4-1.4","vk6od3yv1h","","vk6od3yv1h","""2024-11-14T20:30:54.291Z""","938","materials/imgs/D46.png","arrowleft","","[""materials/imgs/D46.png"",""materials/imgs/D26.png""]","","check","materials/imgs/D46.png","0","true"
"","","","","","html-keyboard-response","331","804945","0.0-17.0-2.4-0.8","vk6od3yv1h","","vk6od3yv1h","""2024-11-14T20:30:54.291Z""","null","+","null","","","","","","",""
"","","","","","image-keyboard-response","332","806154","0.0-17.0-2.4-1.8","vk6od3yv1h","","vk6od3yv1h","""2024-11-14T20:30:54.291Z""","1208","materials/imgs/D57.png","arrowright","","[""materials/imgs/D111.png"",""materials/imgs/D4.png""]","false","validation","","",""
"","","","","","html-keyboard-response","333","806656","0.0-17.0-2.4-0.9","vk6od3yv1h","","vk6od3yv1h","""2024-11-14T20:30:54.291Z""","null","+","null","","","","","","",""
"","","","","","image-keyboard-response","334","807309","0.0-17.0-2.4-1.9","vk6od3yv1h","","vk6od3yv1h","""2024-11-14T20:30:54.291Z""","652","materials/imgs/D52.png","arrowleft","","[""materials/imgs/D9.png"",""materials/imgs/D19.png""]","false","validation","","",""
"","","","","","html-button-response","335","808355","0.0-18.0","vk6od3yv1h","","vk6od3yv1h","""2024-11-14T20:30:54.291Z""","1045","You have completed 75% of the trials. Please click 'Continue' when you are ready proceed.","0","","","","","","",""
"","","","","","html-keyboard-response","336","808857","0.0-19.0-0.0-0.0","vk6od3yv1h","","vk6od3yv1h","""2024-11-14T20:30:54.291Z""","null","+","null","","","","","","",""
"","","","","","image-keyboard-response","337","809491","0.0-19.0-0.0-1.0","vk6od3yv1h","","vk6od3yv1h","""2024-11-14T20:30:54.291Z""","632","materials/imgs/D14.png","arrowright","","[""materials/imgs/D104.png"",""materials/imgs/D16.png""]","false","random","","",""
"","","","","","html-keyboard-response","338","809993","0.0-19.0-0.0-0.1","vk6od3yv1h","","vk6od3yv1h","""2024-11-14T20:30:54.291Z""","null","+","null","","","","","","",""
"","","","","","image-keyboard-response","339","810696","0.0-19.0-0.0-1.1","vk6od3yv1h","","vk6od3yv1h","""2024-11-14T20:30:54.291Z""","701","materials/imgs/D35.png","arrowright","","[""materials/imgs/D8.png"",""materials/imgs/D1.png""]","false","random","","",""
"","","","","","html-keyboard-response","340","811197","0.0-19.0-0.0-0.2","vk6od3yv1h","","vk6od3yv1h","""2024-11-14T20:30:54.291Z""","null","+","null","","","","","","",""
"","","","","","image-keyboard-response","341","812174","0.0-19.0-0.0-1.2","vk6od3yv1h","","vk6od3yv1h","""2024-11-14T20:30:54.291Z""","974","materials/imgs/D66.png","arrowleft","","[""materials/imgs/D80.png"",""materials/imgs/D105.png""]","false","random","","",""
"","","","","","html-keyboard-response","342","812675","0.0-19.0-0.0-0.3","vk6od3yv1h","","vk6od3yv1h","""2024-11-14T20:30:54.291Z""","null","+","null","","","","","","",""
"","","","","","image-keyboard-response","343","813202","0.0-19.0-0.0-1.3","vk6od3yv1h","","vk6od3yv1h","""2024-11-14T20:30:54.291Z""","525","materials/imgs/D3.png","arrowright","","[""materials/imgs/D74.png"",""materials/imgs/D21.png""]","false","random","","",""
"","","","","","html-keyboard-response","344","813703","0.0-19.0-0.0-0.4","vk6od3yv1h","","vk6od3yv1h","""2024-11-14T20:30:54.291Z""","null","+","null","","","","","","",""
"","","","","","image-keyboard-response","345","814952","0.0-19.0-0.0-1.4","vk6od3yv1h","","vk6od3yv1h","""2024-11-14T20:30:54.291Z""","1246","materials/imgs/D48.png","arrowright","","[""materials/imgs/D9.png"",""materials/imgs/D3.png""]","false","random","","",""
"","","","","","html-keyboard-response","346","815453","0.0-19.0-0.0-0.5","vk6od3yv1h","","vk6od3yv1h","""2024-11-14T20:30:54.291Z""","null","+","null","","","","","","",""
"","","","","","image-keyboard-response","347","816819","0.0-19.0-0.0-1.5","vk6od3yv1h","","vk6od3yv1h","""2024-11-14T20:30:54.291Z""","1364","materials/imgs/D101.png","arrowright","","[""materials/imgs/D3.png"",""materials/imgs/D8.png""]","false","random","","",""
"","","","","","html-keyboard-response","348","817319","0.0-19.0-0.0-0.6","vk6od3yv1h","","vk6od3yv1h","""2024-11-14T20:30:54.291Z""","null","+","null","","","","","","",""
"","","","","","image-keyboard-response","349","818721","0.0-19.0-0.0-1.6","vk6od3yv1h","","vk6od3yv1h","""2024-11-14T20:30:54.291Z""","1400","materials/imgs/D26.png","arrowleft","","[""materials/imgs/D94.png"",""materials/imgs/D96.png""]","false","random","","",""
"","","","","","html-keyboard-response","350","819222","0.0-19.0-1.0-0.0","vk6od3yv1h","","vk6od3yv1h","""2024-11-14T20:30:54.291Z""","null","+","null","","","","","","",""
"","","","","","image-keyboard-response","351","819919","0.0-19.0-1.0-1.0","vk6od3yv1h","","vk6od3yv1h","""2024-11-14T20:30:54.291Z""","695","materials/imgs/D8.png","arrowright","","[""materials/imgs/D18.png"",""materials/imgs/D8.png""]","","check","materials/imgs/D8.png","1","true"
"","","","","","html-keyboard-response","352","820421","0.0-19.0-2.0-0.0","vk6od3yv1h","","vk6od3yv1h","""2024-11-14T20:30:54.291Z""","null","+","null","","","","","","",""
"","","","","","image-keyboard-response","353","821706","0.0-19.0-2.0-1.0","vk6od3yv1h","","vk6od3yv1h","""2024-11-14T20:30:54.291Z""","1284","materials/imgs/D103.png","arrowleft","","[""materials/imgs/D76.png"",""materials/imgs/D106.png""]","false","validation","","",""
"","","","","","html-keyboard-response","354","822208","0.0-19.0-2.0-0.1","vk6od3yv1h","","vk6od3yv1h","""2024-11-14T20:30:54.291Z""","null","+","null","","","","","","",""
"","","","","","image-keyboard-response","355","822878","0.0-19.0-2.0-1.1","vk6od3yv1h","","vk6od3yv1h","""2024-11-14T20:30:54.291Z""","669","materials/imgs/D83.png","arrowright","","[""materials/imgs/D24.png"",""materials/imgs/D8.png""]","false","validation","","",""
"","","","","","html-keyboard-response","356","823379","0.0-19.0-0.1-0.7","vk6od3yv1h","","vk6od3yv1h","""2024-11-14T20:30:54.291Z""","null","+","null","","","","","","",""
"","","","","","image-keyboard-response","357","824107","0.0-19.0-0.1-1.7","vk6od3yv1h","","vk6od3yv1h","""2024-11-14T20:30:54.291Z""","725","materials/imgs/D9.png","arrowleft","","[""materials/imgs/D29.png"",""materials/imgs/D32.png""]","false","random","","",""
"","","","","","html-keyboard-response","358","824608","0.0-19.0-0.1-0.8","vk6od3yv1h","","vk6od3yv1h","""2024-11-14T20:30:54.291Z""","null","+","null","","","","","","",""
"","","","","","image-keyboard-response","359","826074","0.0-19.0-0.1-1.8","vk6od3yv1h","","vk6od3yv1h","""2024-11-14T20:30:54.291Z""","1464","materials/imgs/D8.png","arrowleft","","[""materials/imgs/D18.png"",""materials/imgs/D77.png""]","false","random","","",""
"","","","","","html-keyboard-response","360","826576","0.0-19.0-0.1-0.9","vk6od3yv1h","","vk6od3yv1h","""2024-11-14T20:30:54.291Z""","null","+","null","","","","","","",""
"","","","","","image-keyboard-response","361","827187","0.0-19.0-0.1-1.9","vk6od3yv1h","","vk6od3yv1h","""2024-11-14T20:30:54.291Z""","609","materials/imgs/D80.png","arrowright","","[""materials/imgs/D77.png"",""materials/imgs/D11.png""]","false","random","","",""
"","","","","","html-keyboard-response","362","827689","0.0-19.0-0.1-0.10","vk6od3yv1h","","vk6od3yv1h","""2024-11-14T20:30:54.291Z""","null","+","null","","","","","","",""
"","","","","","image-keyboard-response","363","828555","0.0-19.0-0.1-1.10","vk6od3yv1h","","vk6od3yv1h","""2024-11-14T20:30:54.291Z""","864","materials/imgs/D95.png","arrowleft","","[""materials/imgs/D32.png"",""materials/imgs/D103.png""]","false","random","","",""
"","","","","","html-keyboard-response","364","829056","0.0-19.0-0.1-0.11","vk6od3yv1h","","vk6od3yv1h","""2024-11-14T20:30:54.291Z""","null","+","null","","","","","","",""
"","","","","","image-keyboard-response","365","830817","0.0-19.0-0.1-1.11","vk6od3yv1h","","vk6od3yv1h","""2024-11-14T20:30:54.291Z""","1760","materials/imgs/D57.png","arrowright","","[""materials/imgs/D37.png"",""materials/imgs/D76.png""]","false","random","","",""
"","","","","","html-keyboard-response","366","831318","0.0-19.0-0.1-0.12","vk6od3yv1h","","vk6od3yv1h","""2024-11-14T20:30:54.291Z""","null","+","null","","","","","","",""
"","","","","","image-keyboard-response","367","832022","0.0-19.0-0.1-1.12","vk6od3yv1h","","vk6od3yv1h","""2024-11-14T20:30:54.291Z""","702","materials/imgs/D51.png","arrowright","","[""materials/imgs/D65.png"",""materials/imgs/D106.png""]","false","random","","",""
"","","","","","html-keyboard-response","368","832523","0.0-19.0-0.1-0.13","vk6od3yv1h","","vk6od3yv1h","""2024-11-14T20:30:54.291Z""","null","+","null","","","","","","",""
"","","","","","image-keyboard-response","369","833246","0.0-19.0-0.1-1.13","vk6od3yv1h","","vk6od3yv1h","""2024-11-14T20:30:54.291Z""","720","materials/imgs/D83.png","arrowleft","","[""materials/imgs/D11.png"",""materials/imgs/D20.png""]","false","random","","",""
"","","","","","html-keyboard-response","370","833747","0.0-19.0-1.1-0.1","vk6od3yv1h","","vk6od3yv1h","""2024-11-14T20:30:54.291Z""","null","+","null","","","","","","",""
"","","","","","image-keyboard-response","371","834273","0.0-19.0-1.1-1.1","vk6od3yv1h","","vk6od3yv1h","""2024-11-14T20:30:54.291Z""","524","materials/imgs/D46.png","arrowleft","","[""materials/imgs/D46.png"",""materials/imgs/D26.png""]","","check","materials/imgs/D46.png","0","true"
"","","","","","html-keyboard-response","372","834774","0.0-19.0-2.1-0.2","vk6od3yv1h","","vk6od3yv1h","""2024-11-14T20:30:54.291Z""","null","+","null","","","","","","",""
"","","","","","image-keyboard-response","373","835783","0.0-19.0-2.1-1.2","vk6od3yv1h","","vk6od3yv1h","""2024-11-14T20:30:54.291Z""","1008","materials/imgs/D48.png","arrowleft","","[""materials/imgs/D4.png"",""materials/imgs/D37.png""]","false","validation","","",""
"","","","","","html-keyboard-response","374","836284","0.0-19.0-2.1-0.3","vk6od3yv1h","","vk6od3yv1h","""2024-11-14T20:30:54.291Z""","null","+","null","","","","","","",""
"","","","","","image-keyboard-response","375","837578","0.0-19.0-2.1-1.3","vk6od3yv1h","","vk6od3yv1h","""2024-11-14T20:30:54.291Z""","1292","materials/imgs/D102.png","arrowright","","[""materials/imgs/D32.png"",""materials/imgs/D111.png""]","false","validation","","",""
"","","","","","html-keyboard-response","376","838079","0.0-19.0-0.2-0.14","vk6od3yv1h","","vk6od3yv1h","""2024-11-14T20:30:54.291Z""","null","+","null","","","","","","",""
"","","","","","image-keyboard-response","377","839060","0.0-19.0-0.2-1.14","vk6od3yv1h","","vk6od3yv1h","""2024-11-14T20:30:54.291Z""","979","materials/imgs/D101.png","arrowright","","[""materials/imgs/D51.png"",""materials/imgs/D55.png""]","false","random","","",""
"","","","","","html-keyboard-response","378","839562","0.0-19.0-0.2-0.15","vk6od3yv1h","","vk6od3yv1h","""2024-11-14T20:30:54.291Z""","null","+","null","","","","","","",""
"","","","","","image-keyboard-response","379","840309","0.0-19.0-0.2-1.15","vk6od3yv1h","","vk6od3yv1h","""2024-11-14T20:30:54.291Z""","746","materials/imgs/D48.png","arrowleft","","[""materials/imgs/D47.png"",""materials/imgs/D25.png""]","false","random","","",""
"","","","","","html-keyboard-response","380","840811","0.0-19.0-0.2-0.16","vk6od3yv1h","","vk6od3yv1h","""2024-11-14T20:30:54.291Z""","null","+","null","","","","","","",""
"","","","","","image-keyboard-response","381","841815","0.0-19.0-0.2-1.16","vk6od3yv1h","","vk6od3yv1h","""2024-11-14T20:30:54.291Z""","1003","materials/imgs/D94.png","arrowright","","[""materials/imgs/D32.png"",""materials/imgs/D83.png""]","false","random","","",""
"","","","","","html-keyboard-response","382","842317","0.0-19.0-0.2-0.17","vk6od3yv1h","","vk6od3yv1h","""2024-11-14T20:30:54.291Z""","null","+","null","","","","","","",""
"","","","","","image-keyboard-response","383","843141","0.0-19.0-0.2-1.17","vk6od3yv1h","","vk6od3yv1h","""2024-11-14T20:30:54.291Z""","822","materials/imgs/D3.png","arrowleft","","[""materials/imgs/D6.png"",""materials/imgs/D17.png""]","false","random","","",""
"","","","","","html-keyboard-response","384","843643","0.0-19.0-0.2-0.18","vk6od3yv1h","","vk6od3yv1h","""2024-11-14T20:30:54.291Z""","null","+","null","","","","","","",""
"","","","","","image-keyboard-response","385","844792","0.0-19.0-0.2-1.18","vk6od3yv1h","","vk6od3yv1h","""2024-11-14T20:30:54.291Z""","1147","materials/imgs/D96.png","arrowright","","[""materials/imgs/D102.png"",""materials/imgs/D85.png""]","false","random","","",""
"","","","","","html-keyboard-response","386","845294","0.0-19.0-0.2-0.19","vk6od3yv1h","","vk6od3yv1h","""2024-11-14T20:30:54.291Z""","null","+","null","","","","","","",""
"","","","","","image-keyboard-response","387","845927","0.0-19.0-0.2-1.19","vk6od3yv1h","","vk6od3yv1h","""2024-11-14T20:30:54.291Z""","632","materials/imgs/D17.png","arrowright","","[""materials/imgs/D96.png"",""materials/imgs/D55.png""]","false","random","","",""
"","","","","","html-keyboard-response","388","846429","0.0-19.0-0.2-0.20","vk6od3yv1h","","vk6od3yv1h","""2024-11-14T20:30:54.291Z""","null","+","null","","","","","","",""
"","","","","","image-keyboard-response","389","847021","0.0-19.0-0.2-1.20","vk6od3yv1h","","vk6od3yv1h","""2024-11-14T20:30:54.291Z""","589","materials/imgs/D26.png","arrowleft","","[""materials/imgs/D66.png"",""materials/imgs/D101.png""]","false","random","","",""
"","","","","","html-keyboard-response","390","847523","0.0-19.0-1.2-0.2","vk6od3yv1h","","vk6od3yv1h","""2024-11-14T20:30:54.291Z""","null","+","null","","","","","","",""
"","","","","","image-keyboard-response","391","848094","0.0-19.0-1.2-1.2","vk6od3yv1h","","vk6od3yv1h","""2024-11-14T20:30:54.291Z""","570","materials/imgs/D26.png","arrowleft","","[""materials/imgs/D26.png"",""materials/imgs/D46.png""]","","check","materials/imgs/D26.png","0","true"
"","","","","","html-keyboard-response","392","848596","0.0-19.0-2.2-0.4","vk6od3yv1h","","vk6od3yv1h","""2024-11-14T20:30:54.291Z""","null","+","null","","","","","","",""
"","","","","","image-keyboard-response","393","850407","0.0-19.0-2.2-1.4","vk6od3yv1h","","vk6od3yv1h","""2024-11-14T20:30:54.291Z""","1803","materials/imgs/D65.png","arrowleft","","[""materials/imgs/D4.png"",""materials/imgs/D16.png""]","false","validation","","",""
"","","","","","html-keyboard-response","394","850909","0.0-19.0-2.2-0.5","vk6od3yv1h","","vk6od3yv1h","""2024-11-14T20:30:54.291Z""","null","+","null","","","","","","",""
"","","","","","image-keyboard-response","395","852406","0.0-19.0-2.2-1.5","vk6od3yv1h","","vk6od3yv1h","""2024-11-14T20:30:54.291Z""","1497","materials/imgs/D20.png","arrowleft","","[""materials/imgs/D84.png"",""materials/imgs/D85.png""]","false","validation","","",""
"","","","","","html-keyboard-response","396","852908","0.0-19.0-0.3-0.21","vk6od3yv1h","","vk6od3yv1h","""2024-11-14T20:30:54.291Z""","null","+","null","","","","","","",""
"","","","","","image-keyboard-response","397","853472","0.0-19.0-0.3-1.21","vk6od3yv1h","","vk6od3yv1h","""2024-11-14T20:30:54.291Z""","563","materials/imgs/D106.png","arrowleft","","[""materials/imgs/D78.png"",""materials/imgs/D32.png""]","false","random","","",""
"","","","","","html-keyboard-response","398","853974","0.0-19.0-0.3-0.22","vk6od3yv1h","","vk6od3yv1h","""2024-11-14T20:30:54.291Z""","null","+","null","","","","","","",""
"","","","","","image-keyboard-response","399","854673","0.0-19.0-0.3-1.22","vk6od3yv1h","","vk6od3yv1h","""2024-11-14T20:30:54.291Z""","697","materials/imgs/D68.png","arrowleft","","[""materials/imgs/D51.png"",""materials/imgs/D101.png""]","false","random","","",""
"","","","","","html-keyboard-response","400","855174","0.0-19.0-0.3-0.23","vk6od3yv1h","","vk6od3yv1h","""2024-11-14T20:30:54.291Z""","null","+","null","","","","","","",""
"","","","","","image-keyboard-response","401","856072","0.0-19.0-0.3-1.23","vk6od3yv1h","","vk6od3yv1h","""2024-11-14T20:30:54.291Z""","896","materials/imgs/D75.png","arrowleft","","[""materials/imgs/D55.png"",""materials/imgs/D9.png""]","false","random","","",""
"","","","","","html-keyboard-response","402","856573","0.0-19.0-0.3-0.24","vk6od3yv1h","","vk6od3yv1h","""2024-11-14T20:30:54.291Z""","null","+","null","","","","","","",""
"","","","","","image-keyboard-response","403","857569","0.0-19.0-0.3-1.24","vk6od3yv1h","","vk6od3yv1h","""2024-11-14T20:30:54.291Z""","994","materials/imgs/D20.png","arrowleft","","[""materials/imgs/D80.png"",""materials/imgs/D81.png""]","false","random","","",""
"","","","","","html-keyboard-response","404","858071","0.0-19.0-0.3-0.25","vk6od3yv1h","","vk6od3yv1h","""2024-11-14T20:30:54.291Z""","null","+","null","","","","","","",""
"","","","","","image-keyboard-response","405","858832","0.0-19.0-0.3-1.25","vk6od3yv1h","","vk6od3yv1h","""2024-11-14T20:30:54.291Z""","759","materials/imgs/D11.png","arrowright","","[""materials/imgs/D14.png"",""materials/imgs/D75.png""]","false","random","","",""
"","","","","","html-keyboard-response","406","859333","0.0-19.0-0.3-0.26","vk6od3yv1h","","vk6od3yv1h","""2024-11-14T20:30:54.291Z""","null","+","null","","","","","","",""
"","","","","","image-keyboard-response","407","860077","0.0-19.0-0.3-1.26","vk6od3yv1h","","vk6od3yv1h","""2024-11-14T20:30:54.291Z""","743","materials/imgs/D9.png","arrowright","","[""materials/imgs/D94.png"",""materials/imgs/D18.png""]","false","random","","",""
"","","","","","html-keyboard-response","408","860579","0.0-19.0-0.3-0.27","vk6od3yv1h","","vk6od3yv1h","""2024-11-14T20:30:54.291Z""","null","+","null","","","","","","",""
"","","","","","image-keyboard-response","409","861744","0.0-19.0-0.3-1.27","vk6od3yv1h","","vk6od3yv1h","""2024-11-14T20:30:54.291Z""","1163","materials/imgs/D1.png","arrowleft","","[""materials/imgs/D95.png"",""materials/imgs/D26.png""]","false","random","","",""
"","","","","","html-keyboard-response","410","862246","0.0-19.0-1.3-0.3","vk6od3yv1h","","vk6od3yv1h","""2024-11-14T20:30:54.291Z""","null","+","null","","","","","","",""
"","","","","","image-keyboard-response","411","862775","0.0-19.0-1.3-1.3","vk6od3yv1h","","vk6od3yv1h","""2024-11-14T20:30:54.291Z""","527","materials/imgs/D106.png","arrowleft","","[""materials/imgs/D106.png"",""materials/imgs/D101.png""]","","check","materials/imgs/D106.png","0","true"
"","","","","","html-keyboard-response","412","863277","0.0-19.0-2.3-0.6","vk6od3yv1h","","vk6od3yv1h","""2024-11-14T20:30:54.291Z""","null","+","null","","","","","","",""
"","","","","","image-keyboard-response","413","863910","0.0-19.0-2.3-1.6","vk6od3yv1h","","vk6od3yv1h","""2024-11-14T20:30:54.291Z""","631","materials/imgs/D82.png","arrowright","","[""materials/imgs/D83.png"",""materials/imgs/D22.png""]","false","validation","","",""
"","","","","","html-keyboard-response","414","864411","0.0-19.0-2.3-0.7","vk6od3yv1h","","vk6od3yv1h","""2024-11-14T20:30:54.291Z""","null","+","null","","","","","","",""
"","","","","","image-keyboard-response","415","865141","0.0-19.0-2.3-1.7","vk6od3yv1h","","vk6od3yv1h","""2024-11-14T20:30:54.291Z""","728","materials/imgs/D25.png","arrowright","","[""materials/imgs/D103.png"",""materials/imgs/D64.png""]","false","validation","","",""
"","","","","","html-keyboard-response","416","865642","0.0-19.0-0.4-0.28","vk6od3yv1h","","vk6od3yv1h","""2024-11-14T20:30:54.291Z""","null","+","null","","","","","","",""
"","","","","","image-keyboard-response","417","867355","0.0-19.0-0.4-1.28","vk6od3yv1h","","vk6od3yv1h","""2024-11-14T20:30:54.291Z""","1711","materials/imgs/D64.png","arrowleft","","[""materials/imgs/D57.png"",""materials/imgs/D37.png""]","false","random","","",""
"","","","","","html-keyboard-response","418","867856","0.0-19.0-0.4-0.29","vk6od3yv1h","","vk6od3yv1h","""2024-11-14T20:30:54.291Z""","null","+","null","","","","","","",""
"","","","","","image-keyboard-response","419","868481","0.0-19.0-0.4-1.29","vk6od3yv1h","","vk6od3yv1h","""2024-11-14T20:30:54.291Z""","623","materials/imgs/D80.png","arrowright","","[""materials/imgs/D34.png"",""materials/imgs/D22.png""]","false","random","","",""
"","","","","","html-keyboard-response","420","868982","0.0-19.0-0.4-0.30","vk6od3yv1h","","vk6od3yv1h","""2024-11-14T20:30:54.291Z""","null","+","null","","","","","","",""
"","","","","","image-keyboard-response","421","869605","0.0-19.0-0.4-1.30","vk6od3yv1h","","vk6od3yv1h","""2024-11-14T20:30:54.291Z""","621","materials/imgs/D102.png","arrowright","","[""materials/imgs/D75.png"",""materials/imgs/D1.png""]","false","random","","",""
"","","","","","html-keyboard-response","422","870106","0.0-19.0-0.4-0.31","vk6od3yv1h","","vk6od3yv1h","""2024-11-14T20:30:54.291Z""","null","+","null","","","","","","",""
"","","","","","image-keyboard-response","423","871337","0.0-19.0-0.4-1.31","vk6od3yv1h","","vk6od3yv1h","""2024-11-14T20:30:54.291Z""","1229","materials/imgs/D48.png","arrowleft","","[""materials/imgs/D87.png"",""materials/imgs/D37.png""]","false","random","","",""
"","","","","","html-keyboard-response","424","871838","0.0-19.0-0.4-0.32","vk6od3yv1h","","vk6od3yv1h","""2024-11-14T20:30:54.291Z""","null","+","null","","","","","","",""
"","","","","","image-keyboard-response","425","873279","0.0-19.0-0.4-1.32","vk6od3yv1h","","vk6od3yv1h","""2024-11-14T20:30:54.291Z""","1439","materials/imgs/D55.png","arrowleft","","[""materials/imgs/D102.png"",""materials/imgs/D64.png""]","false","random","","",""
"","","","","","html-keyboard-response","426","873780","0.0-19.0-0.4-0.33","vk6od3yv1h","","vk6od3yv1h","""2024-11-14T20:30:54.291Z""","null","+","null","","","","","","",""
"","","","","","image-keyboard-response","427","874343","0.0-19.0-0.4-1.33","vk6od3yv1h","","vk6od3yv1h","""2024-11-14T20:30:54.291Z""","560","materials/imgs/D17.png","arrowleft","","[""materials/imgs/D53.png"",""materials/imgs/D77.png""]","false","random","","",""
"","","","","","html-keyboard-response","428","874843","0.0-19.0-0.4-0.34","vk6od3yv1h","","vk6od3yv1h","""2024-11-14T20:30:54.291Z""","null","+","null","","","","","","",""
"","","","","","image-keyboard-response","429","875423","0.0-19.0-0.4-1.34","vk6od3yv1h","","vk6od3yv1h","""2024-11-14T20:30:54.291Z""","577","materials/imgs/D102.png","arrowleft","","[""materials/imgs/D20.png"",""materials/imgs/D36.png""]","false","random","","",""
"","","","","","html-keyboard-response","430","875925","0.0-19.0-1.4-0.4","vk6od3yv1h","","vk6od3yv1h","""2024-11-14T20:30:54.291Z""","null","+","null","","","","","","",""
"","","","","","image-keyboard-response","431","876422","0.0-19.0-1.4-1.4","vk6od3yv1h","","vk6od3yv1h","""2024-11-14T20:30:54.291Z""","495","materials/imgs/D53.png","arrowright","","[""materials/imgs/D64.png"",""materials/imgs/D53.png""]","","check","materials/imgs/D53.png","1","true"
"","","","","","html-keyboard-response","432","876924","0.0-19.0-2.4-0.8","vk6od3yv1h","","vk6od3yv1h","""2024-11-14T20:30:54.291Z""","null","+","null","","","","","","",""
"","","","","","image-keyboard-response","433","877488","0.0-19.0-2.4-1.8","vk6od3yv1h","","vk6od3yv1h","""2024-11-14T20:30:54.291Z""","563","materials/imgs/D35.png","arrowright","","[""materials/imgs/D83.png"",""materials/imgs/D24.png""]","false","validation","","",""
"","","","","","html-keyboard-response","434","877990","0.0-19.0-2.4-0.9","vk6od3yv1h","","vk6od3yv1h","""2024-11-14T20:30:54.291Z""","null","+","null","","","","","","",""
"","","","","","image-keyboard-response","435","879152","0.0-19.0-2.4-1.9","vk6od3yv1h","","vk6od3yv1h","""2024-11-14T20:30:54.291Z""","1161","materials/imgs/D96.png","arrowleft","","[""materials/imgs/D46.png"",""materials/imgs/D18.png""]","false","validation","","",""
