"success","timeout","failed_images","failed_audio","failed_video","trial_type","trial_index","time_elapsed","internal_node_id","subject_id","sona_id","subjectID","dateInfo","rt","stimulus","response","question_order","choices","speedy","sampleAlg","selected_image","selected_index","correct"
"true","false","[]","[]","[]","preload","0","1215","0.0-0.0","vltfzv8gue","","vltfzv8gue","""2024-11-14T16:10:18.985Z""","","","","","","","","","",""
"true","","","","","fullscreen","1","16079","0.0-1.0","vltfzv8gue","","vltfzv8gue","""2024-11-14T16:10:18.985Z""","","","","","","","","","",""
"","","","","","html-keyboard-response","2","16092","0.0-2.0","vltfzv8gue","","vltfzv8gue","""2024-11-14T16:10:18.985Z""","null","","null","","","","","","",""
"","","","","","html-button-response","3","21528","0.0-3.0","vltfzv8gue","","vltfzv8gue","""2024-11-14T16:10:18.985Z""","5434","<div style='text-align:center; font-size:20px; line-height:25px; width: 1200px;'>
                Welcome to our experiment! <br>
                <br>At the bottom of this screen, you will see a button that says 'Begin Experiment.
                <br>Please only click that button when you are ready to complete the 25 minute experiment in one sitting. <br>
                <br> Once you click that button, it will not be possible to restart the experiment. <br><br>","0","","","","","","",""
"true","","","","","fullscreen","4","25003","0.0-4.0","vltfzv8gue","","vltfzv8gue","""2024-11-14T16:10:18.985Z""","","","","","","","","","",""
"","","","","","survey-multi-select","5","29149","0.0-5.0","vltfzv8gue","","vltfzv8gue","""2024-11-14T16:10:18.985Z""","4138","","{""Consent"":[""<strong>I consent</strong>""]}","[0]","","","","","",""
"","","","","","html-button-response","6","30542","0.0-6.0","vltfzv8gue","","vltfzv8gue","""2024-11-14T16:10:18.985Z""","1390","Welcome! <p> This experiment involves two parts: demographic information, followed by the experimental task.<p> It will take about 25 minutes to complete both parts.","0","","","","","","",""
"","","","","","survey-text","7","38872","0.0-7.0","vltfzv8gue","","vltfzv8gue","""2024-11-14T16:10:18.985Z""","8325","","{""Age"":""20"",""Gender"":""female"",""Race/ethnicity"":""Asian""}","","","","","","",""
"","","","","","html-button-response","8","58514","0.0-8.0","vltfzv8gue","","vltfzv8gue","""2024-11-14T16:10:18.985Z""","19640","<div style='text-align: center;'>
      <p>In each trial of this task, you will see three texture images: one target item on top, and two choices beneath the target item.</p>
      <p><strong>Please select the item that is most like the target item.</strong></p>
      <p>To select the option on the <strong>LEFT</strong>, press the <strong>LEFT ARROW</strong> key. 
      To select the option on the <strong>RIGHT</strong>, press the <strong>RIGHT ARROW</strong> key.</p>
                  <!-- Target Image at the Top -->
      <div style='margin: 20px;'>
        <img src='materials/imgs/instruction_images/InstructionImg1D78.png' alt='Target Image' style='width:200px; height:auto;' />
        <p><em>Target Image</em></p>
      </div>

      <!-- Two Choice Images Below -->
      <div style='display: flex; justify-content: center;'>
        <div style='margin-right: 50px;'>
          <img src='materials/imgs/instruction_images/InstructionImg2D34.png' alt='Choice Image 1' style='width:150px; height:auto;' />
          <p><em><strong>LEFT ARROW</strong></em></p>
        </div>
        <div style='margin-left: 50px;'>
          <img src='materials/imgs/instruction_images/InstructionImg3D80.png' alt='Choice Image 2' style='width:150px; height:auto;' />
          <p><em><strong>RIGHT ARROW</strong></em></p>
        </div>
      </div>
    </div>

      <p>When you are ready to proceed, please click 'Continue' to begin practice.</p>","0","","","","","","",""
"","","","","","html-keyboard-response","9","61019","0.0-9.0","vltfzv8gue","","vltfzv8gue","""2024-11-14T16:10:18.985Z""","null","+","null","","","","","","",""
"","","","","","html-keyboard-response","10","61520","0.0-10.0-0.0-0.0","vltfzv8gue","","vltfzv8gue","""2024-11-14T16:10:18.985Z""","null","+","null","","","","","","",""
"","","","","","image-keyboard-response","11","65901","0.0-10.0-0.0-1.0","vltfzv8gue","","vltfzv8gue","""2024-11-14T16:10:18.985Z""","4375","materials/imgs/D24.png","arrowleft","","[""materials/imgs/D64.png"",""materials/imgs/D94.png""]","false","random","","",""
"","","","","","html-keyboard-response","12","66402","0.0-10.0-0.0-0.1","vltfzv8gue","","vltfzv8gue","""2024-11-14T16:10:18.985Z""","null","+","null","","","","","","",""
"","","","","","image-keyboard-response","13","69581","0.0-10.0-0.0-1.1","vltfzv8gue","","vltfzv8gue","""2024-11-14T16:10:18.985Z""","3177","materials/imgs/D24.png","arrowright","","[""materials/imgs/D26.png"",""materials/imgs/D106.png""]","false","random","","",""
"","","","","","html-keyboard-response","14","70082","0.0-10.0-0.0-0.2","vltfzv8gue","","vltfzv8gue","""2024-11-14T16:10:18.985Z""","null","+","null","","","","","","",""
"","","","","","image-keyboard-response","15","71381","0.0-10.0-0.0-1.2","vltfzv8gue","","vltfzv8gue","""2024-11-14T16:10:18.985Z""","1298","materials/imgs/D64.png","arrowleft","","[""materials/imgs/D83.png"",""materials/imgs/D21.png""]","false","random","","",""
"","","","","","html-keyboard-response","16","71883","0.0-10.0-0.0-0.3","vltfzv8gue","","vltfzv8gue","""2024-11-14T16:10:18.985Z""","null","+","null","","","","","","",""
"","","","","","image-keyboard-response","17","73059","0.0-10.0-0.0-1.3","vltfzv8gue","","vltfzv8gue","""2024-11-14T16:10:18.985Z""","1175","materials/imgs/D52.png","arrowleft","","[""materials/imgs/D55.png"",""materials/imgs/D56.png""]","false","random","","",""
"","","","","","html-keyboard-response","18","73561","0.0-10.0-0.0-0.4","vltfzv8gue","","vltfzv8gue","""2024-11-14T16:10:18.985Z""","null","+","null","","","","","","",""
"","","","","","image-keyboard-response","19","74432","0.0-10.0-0.0-1.4","vltfzv8gue","","vltfzv8gue","""2024-11-14T16:10:18.985Z""","870","materials/imgs/D83.png","arrowright","","[""materials/imgs/D96.png"",""materials/imgs/D20.png""]","false","random","","",""
"","","","","","html-keyboard-response","20","74933","0.0-10.0-0.0-0.5","vltfzv8gue","","vltfzv8gue","""2024-11-14T16:10:18.985Z""","null","+","null","","","","","","",""
"","","","","","image-keyboard-response","21","75788","0.0-10.0-0.0-1.5","vltfzv8gue","","vltfzv8gue","""2024-11-14T16:10:18.985Z""","853","materials/imgs/D24.png","arrowleft","","[""materials/imgs/D80.png"",""materials/imgs/D96.png""]","false","random","","",""
"","","","","","html-keyboard-response","22","76288","0.0-10.0-0.0-0.6","vltfzv8gue","","vltfzv8gue","""2024-11-14T16:10:18.985Z""","null","+","null","","","","","","",""
"","","","","","image-keyboard-response","23","77682","0.0-10.0-0.0-1.6","vltfzv8gue","","vltfzv8gue","""2024-11-14T16:10:18.985Z""","1392","materials/imgs/D20.png","arrowright","","[""materials/imgs/D34.png"",""materials/imgs/D84.png""]","false","random","","",""
"","","","","","html-keyboard-response","24","78183","0.0-10.0-0.0-0.7","vltfzv8gue","","vltfzv8gue","""2024-11-14T16:10:18.985Z""","null","+","null","","","","","","",""
"","","","","","image-keyboard-response","25","79374","0.0-10.0-0.0-1.7","vltfzv8gue","","vltfzv8gue","""2024-11-14T16:10:18.985Z""","1190","materials/imgs/D24.png","arrowright","","[""materials/imgs/D34.png"",""materials/imgs/D3.png""]","false","random","","",""
"","","","","","html-keyboard-response","26","79876","0.0-10.0-0.0-0.8","vltfzv8gue","","vltfzv8gue","""2024-11-14T16:10:18.985Z""","null","+","null","","","","","","",""
"","","","","","image-keyboard-response","27","80890","0.0-10.0-0.0-1.8","vltfzv8gue","","vltfzv8gue","""2024-11-14T16:10:18.985Z""","1013","materials/imgs/D56.png","arrowleft","","[""materials/imgs/D21.png"",""materials/imgs/D26.png""]","false","random","","",""
"","","","","","html-keyboard-response","28","81392","0.0-10.0-0.0-0.9","vltfzv8gue","","vltfzv8gue","""2024-11-14T16:10:18.985Z""","null","+","null","","","","","","",""
"","","","","","image-keyboard-response","29","83661","0.0-10.0-0.0-1.9","vltfzv8gue","","vltfzv8gue","""2024-11-14T16:10:18.985Z""","2269","materials/imgs/D11.png","arrowleft","","[""materials/imgs/D16.png"",""materials/imgs/D21.png""]","false","random","","",""
"","","","","","html-button-response","30","91384","0.0-11.0","vltfzv8gue","","vltfzv8gue","""2024-11-14T16:10:18.985Z""","7722","<p>Great job!</p>
      <p>You are now ready to begin the experiment.</p>
      <p>There will be around 200 trials. You will have opportunities to take breaks at three stages of the trials.</p>
      <p>When you are ready to begin please click 'Continue'.</p>","0","","","","","","",""
"","","","","","html-keyboard-response","31","93888","0.0-12.0","vltfzv8gue","","vltfzv8gue","""2024-11-14T16:10:18.985Z""","null","+","null","","","","","","",""
"","","","","","html-keyboard-response","32","94388","0.0-13.0-0.0-0.0","vltfzv8gue","","vltfzv8gue","""2024-11-14T16:10:18.985Z""","null","+","null","","","","","","",""
"","","","","","image-keyboard-response","33","95793","0.0-13.0-0.0-1.0","vltfzv8gue","","vltfzv8gue","""2024-11-14T16:10:18.985Z""","1403","materials/imgs/D48.png","arrowright","","[""materials/imgs/D104.png"",""materials/imgs/D8.png""]","false","random","","",""
"","","","","","html-keyboard-response","34","96294","0.0-13.0-0.0-0.1","vltfzv8gue","","vltfzv8gue","""2024-11-14T16:10:18.985Z""","null","+","null","","","","","","",""
"","","","","","image-keyboard-response","35","97675","0.0-13.0-0.0-1.1","vltfzv8gue","","vltfzv8gue","""2024-11-14T16:10:18.985Z""","1380","materials/imgs/D47.png","arrowleft","","[""materials/imgs/D106.png"",""materials/imgs/D68.png""]","false","random","","",""
"","","","","","html-keyboard-response","36","98176","0.0-13.0-0.0-0.2","vltfzv8gue","","vltfzv8gue","""2024-11-14T16:10:18.985Z""","null","+","null","","","","","","",""
"","","","","","image-keyboard-response","37","99440","0.0-13.0-0.0-1.2","vltfzv8gue","","vltfzv8gue","""2024-11-14T16:10:18.985Z""","1263","materials/imgs/D11.png","arrowright","","[""materials/imgs/D35.png"",""materials/imgs/D55.png""]","false","random","","",""
"","","","","","html-keyboard-response","38","99941","0.0-13.0-0.0-0.3","vltfzv8gue","","vltfzv8gue","""2024-11-14T16:10:18.985Z""","null","+","null","","","","","","",""
"","","","","","image-keyboard-response","39","100820","0.0-13.0-0.0-1.3","vltfzv8gue","","vltfzv8gue","""2024-11-14T16:10:18.985Z""","878","materials/imgs/D65.png","arrowright","","[""materials/imgs/D79.png"",""materials/imgs/D35.png""]","false","random","","",""
"","","","","","html-keyboard-response","40","101321","0.0-13.0-0.0-0.4","vltfzv8gue","","vltfzv8gue","""2024-11-14T16:10:18.985Z""","null","+","null","","","","","","",""
"","","","","","image-keyboard-response","41","102783","0.0-13.0-0.0-1.4","vltfzv8gue","","vltfzv8gue","""2024-11-14T16:10:18.985Z""","1460","materials/imgs/D85.png","arrowleft","","[""materials/imgs/D36.png"",""materials/imgs/D66.png""]","false","random","","",""
"","","","","","html-keyboard-response","42","103284","0.0-13.0-0.0-0.5","vltfzv8gue","","vltfzv8gue","""2024-11-14T16:10:18.985Z""","null","+","null","","","","","","",""
"","","","","","image-keyboard-response","43","104426","0.0-13.0-0.0-1.5","vltfzv8gue","","vltfzv8gue","""2024-11-14T16:10:18.985Z""","1140","materials/imgs/D46.png","arrowright","","[""materials/imgs/D95.png"",""materials/imgs/D92.png""]","false","random","","",""
"","","","","","html-keyboard-response","44","104927","0.0-13.0-0.0-0.6","vltfzv8gue","","vltfzv8gue","""2024-11-14T16:10:18.985Z""","null","+","null","","","","","","",""
"","","","","","image-keyboard-response","45","106224","0.0-13.0-0.0-1.6","vltfzv8gue","","vltfzv8gue","""2024-11-14T16:10:18.985Z""","1296","materials/imgs/D53.png","arrowleft","","[""materials/imgs/D78.png"",""materials/imgs/D106.png""]","false","random","","",""
"","","","","","html-keyboard-response","46","106726","0.0-13.0-1.0-0.0","vltfzv8gue","","vltfzv8gue","""2024-11-14T16:10:18.985Z""","null","+","null","","","","","","",""
"","","","","","image-keyboard-response","47","107360","0.0-13.0-1.0-1.0","vltfzv8gue","","vltfzv8gue","""2024-11-14T16:10:18.985Z""","633","materials/imgs/D26.png","arrowleft","","[""materials/imgs/D26.png"",""materials/imgs/D46.png""]","","check","materials/imgs/D26.png","0","true"
"","","","","","html-keyboard-response","48","107862","0.0-13.0-2.0-0.0","vltfzv8gue","","vltfzv8gue","""2024-11-14T16:10:18.985Z""","null","+","null","","","","","","",""
"","","","","","image-keyboard-response","49","108536","0.0-13.0-2.0-1.0","vltfzv8gue","","vltfzv8gue","""2024-11-14T16:10:18.985Z""","673","materials/imgs/D82.png","arrowright","","[""materials/imgs/D83.png"",""materials/imgs/D22.png""]","false","validation","","",""
"","","","","","html-keyboard-response","50","109038","0.0-13.0-2.0-0.1","vltfzv8gue","","vltfzv8gue","""2024-11-14T16:10:18.985Z""","null","+","null","","","","","","",""
"","","","","","image-keyboard-response","51","109862","0.0-13.0-2.0-1.1","vltfzv8gue","","vltfzv8gue","""2024-11-14T16:10:18.985Z""","823","materials/imgs/D102.png","arrowright","","[""materials/imgs/D32.png"",""materials/imgs/D111.png""]","false","validation","","",""
"","","","","","html-keyboard-response","52","110363","0.0-13.0-0.1-0.7","vltfzv8gue","","vltfzv8gue","""2024-11-14T16:10:18.985Z""","null","+","null","","","","","","",""
"","","","","","image-keyboard-response","53","111266","0.0-13.0-0.1-1.7","vltfzv8gue","","vltfzv8gue","""2024-11-14T16:10:18.985Z""","902","materials/imgs/D111.png","arrowright","","[""materials/imgs/D17.png"",""materials/imgs/D87.png""]","false","random","","",""
"","","","","","html-keyboard-response","54","111768","0.0-13.0-0.1-0.8","vltfzv8gue","","vltfzv8gue","""2024-11-14T16:10:18.985Z""","null","+","null","","","","","","",""
"","","","","","image-keyboard-response","55","112930","0.0-13.0-0.1-1.8","vltfzv8gue","","vltfzv8gue","""2024-11-14T16:10:18.985Z""","1162","materials/imgs/D94.png","arrowleft","","[""materials/imgs/D37.png"",""materials/imgs/D87.png""]","false","random","","",""
"","","","","","html-keyboard-response","56","113432","0.0-13.0-0.1-0.9","vltfzv8gue","","vltfzv8gue","""2024-11-14T16:10:18.985Z""","null","+","null","","","","","","",""
"","","","","","image-keyboard-response","57","114283","0.0-13.0-0.1-1.9","vltfzv8gue","","vltfzv8gue","""2024-11-14T16:10:18.985Z""","851","materials/imgs/D78.png","arrowright","","[""materials/imgs/D81.png"",""materials/imgs/D106.png""]","false","random","","",""
"","","","","","html-keyboard-response","58","114785","0.0-13.0-0.1-0.10","vltfzv8gue","","vltfzv8gue","""2024-11-14T16:10:18.985Z""","null","+","null","","","","","","",""
"","","","","","image-keyboard-response","59","115581","0.0-13.0-0.1-1.10","vltfzv8gue","","vltfzv8gue","""2024-11-14T16:10:18.985Z""","795","materials/imgs/D36.png","arrowleft","","[""materials/imgs/D78.png"",""materials/imgs/D11.png""]","false","random","","",""
"","","","","","html-keyboard-response","60","116082","0.0-13.0-0.1-0.11","vltfzv8gue","","vltfzv8gue","""2024-11-14T16:10:18.985Z""","null","+","null","","","","","","",""
"","","","","","image-keyboard-response","61","117265","0.0-13.0-0.1-1.11","vltfzv8gue","","vltfzv8gue","""2024-11-14T16:10:18.985Z""","1181","materials/imgs/D87.png","arrowright","","[""materials/imgs/D6.png"",""materials/imgs/D92.png""]","false","random","","",""
"","","","","","html-keyboard-response","62","117766","0.0-13.0-0.1-0.12","vltfzv8gue","","vltfzv8gue","""2024-11-14T16:10:18.985Z""","null","+","null","","","","","","",""
"","","","","","image-keyboard-response","63","119732","0.0-13.0-0.1-1.12","vltfzv8gue","","vltfzv8gue","""2024-11-14T16:10:18.985Z""","1965","materials/imgs/D75.png","arrowright","","[""materials/imgs/D21.png"",""materials/imgs/D6.png""]","false","random","","",""
"","","","","","html-keyboard-response","64","120232","0.0-13.0-0.1-0.13","vltfzv8gue","","vltfzv8gue","""2024-11-14T16:10:18.985Z""","null","+","null","","","","","","",""
"","","","","","image-keyboard-response","65","121141","0.0-13.0-0.1-1.13","vltfzv8gue","","vltfzv8gue","""2024-11-14T16:10:18.985Z""","908","materials/imgs/D35.png","arrowleft","","[""materials/imgs/D80.png"",""materials/imgs/D94.png""]","false","random","","",""
"","","","","","html-keyboard-response","66","121642","0.0-13.0-1.1-0.1","vltfzv8gue","","vltfzv8gue","""2024-11-14T16:10:18.985Z""","null","+","null","","","","","","",""
"","","","","","image-keyboard-response","67","122231","0.0-13.0-1.1-1.1","vltfzv8gue","","vltfzv8gue","""2024-11-14T16:10:18.985Z""","588","materials/imgs/D106.png","arrowleft","","[""materials/imgs/D106.png"",""materials/imgs/D101.png""]","","check","materials/imgs/D106.png","0","true"
"","","","","","html-keyboard-response","68","122732","0.0-13.0-2.1-0.2","vltfzv8gue","","vltfzv8gue","""2024-11-14T16:10:18.985Z""","null","+","null","","","","","","",""
"","","","","","image-keyboard-response","69","123696","0.0-13.0-2.1-1.2","vltfzv8gue","","vltfzv8gue","""2024-11-14T16:10:18.985Z""","963","materials/imgs/D25.png","arrowright","","[""materials/imgs/D103.png"",""materials/imgs/D64.png""]","false","validation","","",""
"","","","","","html-keyboard-response","70","124197","0.0-13.0-2.1-0.3","vltfzv8gue","","vltfzv8gue","""2024-11-14T16:10:18.985Z""","null","+","null","","","","","","",""
"","","","","","image-keyboard-response","71","127756","0.0-13.0-2.1-1.3","vltfzv8gue","","vltfzv8gue","""2024-11-14T16:10:18.985Z""","3558","materials/imgs/D64.png","arrowright","","[""materials/imgs/D6.png"",""materials/imgs/D81.png""]","false","validation","","",""
"","","","","","html-keyboard-response","72","128257","0.0-13.0-0.2-0.14","vltfzv8gue","","vltfzv8gue","""2024-11-14T16:10:18.985Z""","null","+","null","","","","","","",""
"","","","","","image-keyboard-response","73","129566","0.0-13.0-0.2-1.14","vltfzv8gue","","vltfzv8gue","""2024-11-14T16:10:18.985Z""","1308","materials/imgs/D11.png","arrowright","","[""materials/imgs/D26.png"",""materials/imgs/D1.png""]","false","random","","",""
"","","","","","html-keyboard-response","74","130068","0.0-13.0-0.2-0.15","vltfzv8gue","","vltfzv8gue","""2024-11-14T16:10:18.985Z""","null","+","null","","","","","","",""
"","","","","","image-keyboard-response","75","130933","0.0-13.0-0.2-1.15","vltfzv8gue","","vltfzv8gue","""2024-11-14T16:10:18.985Z""","863","materials/imgs/D74.png","arrowleft","","[""materials/imgs/D104.png"",""materials/imgs/D26.png""]","false","random","","",""
"","","","","","html-keyboard-response","76","131433","0.0-13.0-0.2-0.16","vltfzv8gue","","vltfzv8gue","""2024-11-14T16:10:18.985Z""","null","+","null","","","","","","",""
"","","","","","image-keyboard-response","77","132525","0.0-13.0-0.2-1.16","vltfzv8gue","","vltfzv8gue","""2024-11-14T16:10:18.985Z""","1091","materials/imgs/D14.png","arrowright","","[""materials/imgs/D20.png"",""materials/imgs/D49.png""]","false","random","","",""
"","","","","","html-keyboard-response","78","133026","0.0-13.0-0.2-0.17","vltfzv8gue","","vltfzv8gue","""2024-11-14T16:10:18.985Z""","null","+","null","","","","","","",""
"","","","","","image-keyboard-response","79","134378","0.0-13.0-0.2-1.17","vltfzv8gue","","vltfzv8gue","""2024-11-14T16:10:18.985Z""","1350","materials/imgs/D6.png","arrowright","","[""materials/imgs/D85.png"",""materials/imgs/D104.png""]","false","random","","",""
"","","","","","html-keyboard-response","80","134880","0.0-13.0-0.2-0.18","vltfzv8gue","","vltfzv8gue","""2024-11-14T16:10:18.985Z""","null","+","null","","","","","","",""
"","","","","","image-keyboard-response","81","135691","0.0-13.0-0.2-1.18","vltfzv8gue","","vltfzv8gue","""2024-11-14T16:10:18.985Z""","810","materials/imgs/D21.png","arrowright","","[""materials/imgs/D75.png"",""materials/imgs/D81.png""]","false","random","","",""
"","","","","","html-keyboard-response","82","136192","0.0-13.0-0.2-0.19","vltfzv8gue","","vltfzv8gue","""2024-11-14T16:10:18.985Z""","null","+","null","","","","","","",""
"","","","","","image-keyboard-response","83","137676","0.0-13.0-0.2-1.19","vltfzv8gue","","vltfzv8gue","""2024-11-14T16:10:18.985Z""","1483","materials/imgs/D37.png","arrowleft","","[""materials/imgs/D105.png"",""materials/imgs/D104.png""]","false","random","","",""
"","","","","","html-keyboard-response","84","138178","0.0-13.0-0.2-0.20","vltfzv8gue","","vltfzv8gue","""2024-11-14T16:10:18.985Z""","null","+","null","","","","","","",""
"","","","","","image-keyboard-response","85","139077","0.0-13.0-0.2-1.20","vltfzv8gue","","vltfzv8gue","""2024-11-14T16:10:18.985Z""","898","materials/imgs/D17.png","arrowleft","","[""materials/imgs/D52.png"",""materials/imgs/D87.png""]","false","random","","",""
"","","","","","html-keyboard-response","86","139579","0.0-13.0-1.2-0.2","vltfzv8gue","","vltfzv8gue","""2024-11-14T16:10:18.985Z""","null","+","null","","","","","","",""
"","","","","","image-keyboard-response","87","140302","0.0-13.0-1.2-1.2","vltfzv8gue","","vltfzv8gue","""2024-11-14T16:10:18.985Z""","722","materials/imgs/D78.png","arrowright","","[""materials/imgs/D76.png"",""materials/imgs/D78.png""]","","check","materials/imgs/D78.png","1","true"
"","","","","","html-keyboard-response","88","140804","0.0-13.0-2.2-0.4","vltfzv8gue","","vltfzv8gue","""2024-11-14T16:10:18.985Z""","null","+","null","","","","","","",""
"","","","","","image-keyboard-response","89","141980","0.0-13.0-2.2-1.4","vltfzv8gue","","vltfzv8gue","""2024-11-14T16:10:18.985Z""","1175","materials/imgs/D48.png","arrowright","","[""materials/imgs/D4.png"",""materials/imgs/D37.png""]","false","validation","","",""
"","","","","","html-keyboard-response","90","142481","0.0-13.0-2.2-0.5","vltfzv8gue","","vltfzv8gue","""2024-11-14T16:10:18.985Z""","null","+","null","","","","","","",""
"","","","","","image-keyboard-response","91","143191","0.0-13.0-2.2-1.5","vltfzv8gue","","vltfzv8gue","""2024-11-14T16:10:18.985Z""","709","materials/imgs/D66.png","arrowleft","","[""materials/imgs/D85.png"",""materials/imgs/D25.png""]","false","validation","","",""
"","","","","","html-keyboard-response","92","143693","0.0-13.0-0.3-0.21","vltfzv8gue","","vltfzv8gue","""2024-11-14T16:10:18.985Z""","null","+","null","","","","","","",""
"","","","","","image-keyboard-response","93","144837","0.0-13.0-0.3-1.21","vltfzv8gue","","vltfzv8gue","""2024-11-14T16:10:18.985Z""","1143","materials/imgs/D19.png","arrowleft","","[""materials/imgs/D55.png"",""materials/imgs/D11.png""]","false","random","","",""
"","","","","","html-keyboard-response","94","145338","0.0-13.0-0.3-0.22","vltfzv8gue","","vltfzv8gue","""2024-11-14T16:10:18.985Z""","null","+","null","","","","","","",""
"","","","","","image-keyboard-response","95","146679","0.0-13.0-0.3-1.22","vltfzv8gue","","vltfzv8gue","""2024-11-14T16:10:18.985Z""","1339","materials/imgs/D11.png","arrowright","","[""materials/imgs/D79.png"",""materials/imgs/D104.png""]","false","random","","",""
"","","","","","html-keyboard-response","96","147180","0.0-13.0-0.3-0.23","vltfzv8gue","","vltfzv8gue","""2024-11-14T16:10:18.985Z""","null","+","null","","","","","","",""
"","","","","","image-keyboard-response","97","148290","0.0-13.0-0.3-1.23","vltfzv8gue","","vltfzv8gue","""2024-11-14T16:10:18.985Z""","1108","materials/imgs/D51.png","arrowright","","[""materials/imgs/D46.png"",""materials/imgs/D8.png""]","false","random","","",""
"","","","","","html-keyboard-response","98","148791","0.0-13.0-0.3-0.24","vltfzv8gue","","vltfzv8gue","""2024-11-14T16:10:18.985Z""","null","+","null","","","","","","",""
"","","","","","image-keyboard-response","99","149476","0.0-13.0-0.3-1.24","vltfzv8gue","","vltfzv8gue","""2024-11-14T16:10:18.985Z""","684","materials/imgs/D6.png","arrowleft","","[""materials/imgs/D52.png"",""materials/imgs/D24.png""]","false","random","","",""
"","","","","","html-keyboard-response","100","149978","0.0-13.0-0.3-0.25","vltfzv8gue","","vltfzv8gue","""2024-11-14T16:10:18.985Z""","null","+","null","","","","","","",""
"","","","","","image-keyboard-response","101","150653","0.0-13.0-0.3-1.25","vltfzv8gue","","vltfzv8gue","""2024-11-14T16:10:18.985Z""","674","materials/imgs/D55.png","arrowright","","[""materials/imgs/D18.png"",""materials/imgs/D78.png""]","false","random","","",""
"","","","","","html-keyboard-response","102","151154","0.0-13.0-0.3-0.26","vltfzv8gue","","vltfzv8gue","""2024-11-14T16:10:18.985Z""","null","+","null","","","","","","",""
"","","","","","image-keyboard-response","103","151867","0.0-13.0-0.3-1.26","vltfzv8gue","","vltfzv8gue","""2024-11-14T16:10:18.985Z""","712","materials/imgs/D49.png","arrowleft","","[""materials/imgs/D53.png"",""materials/imgs/D35.png""]","false","random","","",""
"","","","","","html-keyboard-response","104","152369","0.0-13.0-0.3-0.27","vltfzv8gue","","vltfzv8gue","""2024-11-14T16:10:18.985Z""","null","+","null","","","","","","",""
"","","","","","image-keyboard-response","105","153148","0.0-13.0-0.3-1.27","vltfzv8gue","","vltfzv8gue","""2024-11-14T16:10:18.985Z""","777","materials/imgs/D104.png","arrowright","","[""materials/imgs/D4.png"",""materials/imgs/D22.png""]","false","random","","",""
"","","","","","html-keyboard-response","106","153649","0.0-13.0-1.3-0.3","vltfzv8gue","","vltfzv8gue","""2024-11-14T16:10:18.985Z""","null","+","null","","","","","","",""
"","","","","","image-keyboard-response","107","154307","0.0-13.0-1.3-1.3","vltfzv8gue","","vltfzv8gue","""2024-11-14T16:10:18.985Z""","657","materials/imgs/D53.png","arrowright","","[""materials/imgs/D64.png"",""materials/imgs/D53.png""]","","check","materials/imgs/D53.png","1","true"
"","","","","","html-keyboard-response","108","154808","0.0-13.0-2.3-0.6","vltfzv8gue","","vltfzv8gue","""2024-11-14T16:10:18.985Z""","null","+","null","","","","","","",""
"","","","","","image-keyboard-response","109","156311","0.0-13.0-2.3-1.6","vltfzv8gue","","vltfzv8gue","""2024-11-14T16:10:18.985Z""","1502","materials/imgs/D96.png","arrowleft","","[""materials/imgs/D46.png"",""materials/imgs/D18.png""]","false","validation","","",""
"","","","","","html-keyboard-response","110","156813","0.0-13.0-2.3-0.7","vltfzv8gue","","vltfzv8gue","""2024-11-14T16:10:18.985Z""","null","+","null","","","","","","",""
"","","","","","image-keyboard-response","111","157737","0.0-13.0-2.3-1.7","vltfzv8gue","","vltfzv8gue","""2024-11-14T16:10:18.985Z""","923","materials/imgs/D81.png","arrowright","","[""materials/imgs/D105.png"",""materials/imgs/D24.png""]","false","validation","","",""
"","","","","","html-keyboard-response","112","158239","0.0-13.0-0.4-0.28","vltfzv8gue","","vltfzv8gue","""2024-11-14T16:10:18.985Z""","null","+","null","","","","","","",""
"","","","","","image-keyboard-response","113","159038","0.0-13.0-0.4-1.28","vltfzv8gue","","vltfzv8gue","""2024-11-14T16:10:18.985Z""","798","materials/imgs/D57.png","arrowleft","","[""materials/imgs/D95.png"",""materials/imgs/D46.png""]","false","random","","",""
"","","","","","html-keyboard-response","114","159540","0.0-13.0-0.4-0.29","vltfzv8gue","","vltfzv8gue","""2024-11-14T16:10:18.985Z""","null","+","null","","","","","","",""
"","","","","","image-keyboard-response","115","160805","0.0-13.0-0.4-1.29","vltfzv8gue","","vltfzv8gue","""2024-11-14T16:10:18.985Z""","1264","materials/imgs/D25.png","arrowleft","","[""materials/imgs/D8.png"",""materials/imgs/D68.png""]","false","random","","",""
"","","","","","html-keyboard-response","116","161307","0.0-13.0-0.4-0.30","vltfzv8gue","","vltfzv8gue","""2024-11-14T16:10:18.985Z""","null","+","null","","","","","","",""
"","","","","","image-keyboard-response","117","162178","0.0-13.0-0.4-1.30","vltfzv8gue","","vltfzv8gue","""2024-11-14T16:10:18.985Z""","870","materials/imgs/D21.png","arrowleft","","[""materials/imgs/D85.png"",""materials/imgs/D25.png""]","false","random","","",""
"","","","","","html-keyboard-response","118","162680","0.0-13.0-0.4-0.31","vltfzv8gue","","vltfzv8gue","""2024-11-14T16:10:18.985Z""","null","+","null","","","","","","",""
"","","","","","image-keyboard-response","119","163901","0.0-13.0-0.4-1.31","vltfzv8gue","","vltfzv8gue","""2024-11-14T16:10:18.985Z""","1220","materials/imgs/D94.png","arrowright","","[""materials/imgs/D111.png"",""materials/imgs/D74.png""]","false","random","","",""
"","","","","","html-keyboard-response","120","164403","0.0-13.0-0.4-0.32","vltfzv8gue","","vltfzv8gue","""2024-11-14T16:10:18.985Z""","null","+","null","","","","","","",""
"","","","","","image-keyboard-response","121","165839","0.0-13.0-0.4-1.32","vltfzv8gue","","vltfzv8gue","""2024-11-14T16:10:18.985Z""","1435","materials/imgs/D51.png","arrowright","","[""materials/imgs/D103.png"",""materials/imgs/D96.png""]","false","random","","",""
"","","","","","html-keyboard-response","122","166341","0.0-13.0-0.4-0.33","vltfzv8gue","","vltfzv8gue","""2024-11-14T16:10:18.985Z""","null","+","null","","","","","","",""
"","","","","","image-keyboard-response","123","168751","0.0-13.0-0.4-1.33","vltfzv8gue","","vltfzv8gue","""2024-11-14T16:10:18.985Z""","2408","materials/imgs/D32.png","arrowright","","[""materials/imgs/D52.png"",""materials/imgs/D3.png""]","false","random","","",""
"","","","","","html-keyboard-response","124","169252","0.0-13.0-0.4-0.34","vltfzv8gue","","vltfzv8gue","""2024-11-14T16:10:18.985Z""","null","+","null","","","","","","",""
"","","","","","image-keyboard-response","125","170108","0.0-13.0-0.4-1.34","vltfzv8gue","","vltfzv8gue","""2024-11-14T16:10:18.985Z""","854","materials/imgs/D20.png","arrowleft","","[""materials/imgs/D51.png"",""materials/imgs/D48.png""]","false","random","","",""
"","","","","","html-keyboard-response","126","170609","0.0-13.0-1.4-0.4","vltfzv8gue","","vltfzv8gue","""2024-11-14T16:10:18.985Z""","null","+","null","","","","","","",""
"","","","","","image-keyboard-response","127","171166","0.0-13.0-1.4-1.4","vltfzv8gue","","vltfzv8gue","""2024-11-14T16:10:18.985Z""","556","materials/imgs/D46.png","arrowleft","","[""materials/imgs/D46.png"",""materials/imgs/D26.png""]","","check","materials/imgs/D46.png","0","true"
"","","","","","html-keyboard-response","128","171668","0.0-13.0-2.4-0.8","vltfzv8gue","","vltfzv8gue","""2024-11-14T16:10:18.985Z""","null","+","null","","","","","","",""
"","","","","","image-keyboard-response","129","172547","0.0-13.0-2.4-1.8","vltfzv8gue","","vltfzv8gue","""2024-11-14T16:10:18.985Z""","878","materials/imgs/D8.png","arrowleft","","[""materials/imgs/D101.png"",""materials/imgs/D52.png""]","false","validation","","",""
"","","","","","html-keyboard-response","130","173048","0.0-13.0-2.4-0.9","vltfzv8gue","","vltfzv8gue","""2024-11-14T16:10:18.985Z""","null","+","null","","","","","","",""
"","","","","","image-keyboard-response","131","173793","0.0-13.0-2.4-1.9","vltfzv8gue","","vltfzv8gue","""2024-11-14T16:10:18.985Z""","744","materials/imgs/D111.png","arrowleft","","[""materials/imgs/D82.png"",""materials/imgs/D95.png""]","false","validation","","",""
"","","","","","html-button-response","132","176057","0.0-14.0","vltfzv8gue","","vltfzv8gue","""2024-11-14T16:10:18.985Z""","2262","You have completed 25% of the trials. Please click 'Continue' when you are ready proceed.","0","","","","","","",""
"","","","","","html-keyboard-response","133","176558","0.0-15.0-0.0-0.0","vltfzv8gue","","vltfzv8gue","""2024-11-14T16:10:18.985Z""","null","+","null","","","","","","",""
"","","","","","image-keyboard-response","134","177377","0.0-15.0-0.0-1.0","vltfzv8gue","","vltfzv8gue","""2024-11-14T16:10:18.985Z""","818","materials/imgs/D55.png","arrowright","","[""materials/imgs/D25.png"",""materials/imgs/D64.png""]","false","random","","",""
"","","","","","html-keyboard-response","135","177878","0.0-15.0-0.0-0.1","vltfzv8gue","","vltfzv8gue","""2024-11-14T16:10:18.985Z""","null","+","null","","","","","","",""
"","","","","","image-keyboard-response","136","178978","0.0-15.0-0.0-1.1","vltfzv8gue","","vltfzv8gue","""2024-11-14T16:10:18.985Z""","1098","materials/imgs/D46.png","arrowleft","","[""materials/imgs/D18.png"",""materials/imgs/D57.png""]","false","random","","",""
"","","","","","html-keyboard-response","137","179478","0.0-15.0-0.0-0.2","vltfzv8gue","","vltfzv8gue","""2024-11-14T16:10:18.985Z""","null","+","null","","","","","","",""
"","","","","","image-keyboard-response","138","180747","0.0-15.0-0.0-1.2","vltfzv8gue","","vltfzv8gue","""2024-11-14T16:10:18.985Z""","1267","materials/imgs/D49.png","arrowright","","[""materials/imgs/D87.png"",""materials/imgs/D22.png""]","false","random","","",""
"","","","","","html-keyboard-response","139","181249","0.0-15.0-0.0-0.3","vltfzv8gue","","vltfzv8gue","""2024-11-14T16:10:18.985Z""","null","+","null","","","","","","",""
"","","","","","image-keyboard-response","140","183589","0.0-15.0-0.0-1.3","vltfzv8gue","","vltfzv8gue","""2024-11-14T16:10:18.985Z""","2339","materials/imgs/D34.png","arrowright","","[""materials/imgs/D9.png"",""materials/imgs/D17.png""]","false","random","","",""
"","","","","","html-keyboard-response","141","184090","0.0-15.0-0.0-0.4","vltfzv8gue","","vltfzv8gue","""2024-11-14T16:10:18.985Z""","null","+","null","","","","","","",""
"","","","","","image-keyboard-response","142","185730","0.0-15.0-0.0-1.4","vltfzv8gue","","vltfzv8gue","""2024-11-14T16:10:18.985Z""","1638","materials/imgs/D22.png","arrowleft","","[""materials/imgs/D103.png"",""materials/imgs/D21.png""]","false","random","","",""
"","","","","","html-keyboard-response","143","186231","0.0-15.0-0.0-0.5","vltfzv8gue","","vltfzv8gue","""2024-11-14T16:10:18.985Z""","null","+","null","","","","","","",""
"","","","","","image-keyboard-response","144","186919","0.0-15.0-0.0-1.5","vltfzv8gue","","vltfzv8gue","""2024-11-14T16:10:18.985Z""","687","materials/imgs/D102.png","arrowleft","","[""materials/imgs/D82.png"",""materials/imgs/D64.png""]","false","random","","",""
"","","","","","html-keyboard-response","145","187421","0.0-15.0-0.0-0.6","vltfzv8gue","","vltfzv8gue","""2024-11-14T16:10:18.985Z""","null","+","null","","","","","","",""
"","","","","","image-keyboard-response","146","187786","0.0-15.0-0.0-1.6","vltfzv8gue","","vltfzv8gue","""2024-11-14T16:10:18.985Z""","364","materials/imgs/D24.png","arrowleft","","[""materials/imgs/D51.png"",""materials/imgs/D106.png""]","true","random","","",""
"","","","","","html-keyboard-response","147","192144","0.0-15.0-0.0-2.6-0.6","vltfzv8gue","","vltfzv8gue","""2024-11-14T16:10:18.985Z""","4357","<p><strong>You're going too fast.</strong><p>Please slow down and assess each triplet.<p>Press 'y' to continue.</p></p>","y","","","","","","",""
"","","","","","html-keyboard-response","148","192645","0.0-15.0-1.0-0.0","vltfzv8gue","","vltfzv8gue","""2024-11-14T16:10:18.985Z""","null","+","null","","","","","","",""
"","","","","","image-keyboard-response","149","193324","0.0-15.0-1.0-1.0","vltfzv8gue","","vltfzv8gue","""2024-11-14T16:10:18.985Z""","678","materials/imgs/D101.png","arrowright","","[""materials/imgs/D106.png"",""materials/imgs/D101.png""]","","check","materials/imgs/D101.png","1","true"
"","","","","","html-keyboard-response","150","193826","0.0-15.0-2.0-0.0","vltfzv8gue","","vltfzv8gue","""2024-11-14T16:10:18.985Z""","null","+","null","","","","","","",""
"","","","","","image-keyboard-response","151","194991","0.0-15.0-2.0-1.0","vltfzv8gue","","vltfzv8gue","""2024-11-14T16:10:18.985Z""","1165","materials/imgs/D68.png","arrowright","","[""materials/imgs/D96.png"",""materials/imgs/D48.png""]","false","validation","","",""
"","","","","","html-keyboard-response","152","195493","0.0-15.0-2.0-0.1","vltfzv8gue","","vltfzv8gue","""2024-11-14T16:10:18.985Z""","null","+","null","","","","","","",""
"","","","","","image-keyboard-response","153","196559","0.0-15.0-2.0-1.1","vltfzv8gue","","vltfzv8gue","""2024-11-14T16:10:18.985Z""","1065","materials/imgs/D75.png","arrowright","","[""materials/imgs/D96.png"",""materials/imgs/D4.png""]","false","validation","","",""
"","","","","","html-keyboard-response","154","197060","0.0-15.0-0.1-0.7","vltfzv8gue","","vltfzv8gue","""2024-11-14T16:10:18.985Z""","null","+","null","","","","","","",""
"","","","","","image-keyboard-response","155","198925","0.0-15.0-0.1-1.7","vltfzv8gue","","vltfzv8gue","""2024-11-14T16:10:18.985Z""","1863","materials/imgs/D18.png","arrowleft","","[""materials/imgs/D111.png"",""materials/imgs/D75.png""]","false","random","","",""
"","","","","","html-keyboard-response","156","199426","0.0-15.0-0.1-0.8","vltfzv8gue","","vltfzv8gue","""2024-11-14T16:10:18.985Z""","null","+","null","","","","","","",""
"","","","","","image-keyboard-response","157","200714","0.0-15.0-0.1-1.8","vltfzv8gue","","vltfzv8gue","""2024-11-14T16:10:18.985Z""","1287","materials/imgs/D24.png","arrowleft","","[""materials/imgs/D16.png"",""materials/imgs/D9.png""]","false","random","","",""
"","","","","","html-keyboard-response","158","201215","0.0-15.0-0.1-0.9","vltfzv8gue","","vltfzv8gue","""2024-11-14T16:10:18.985Z""","null","+","null","","","","","","",""
"","","","","","image-keyboard-response","159","208116","0.0-15.0-0.1-1.9","vltfzv8gue","","vltfzv8gue","""2024-11-14T16:10:18.985Z""","6899","materials/imgs/D65.png","arrowright","","[""materials/imgs/D83.png"",""materials/imgs/D82.png""]","false","random","","",""
"","","","","","html-keyboard-response","160","208617","0.0-15.0-0.1-0.10","vltfzv8gue","","vltfzv8gue","""2024-11-14T16:10:18.985Z""","null","+","null","","","","","","",""
"","","","","","image-keyboard-response","161","210652","0.0-15.0-0.1-1.10","vltfzv8gue","","vltfzv8gue","""2024-11-14T16:10:18.985Z""","2034","materials/imgs/D87.png","arrowright","","[""materials/imgs/D77.png"",""materials/imgs/D81.png""]","false","random","","",""
"","","","","","html-keyboard-response","162","211153","0.0-15.0-0.1-0.11","vltfzv8gue","","vltfzv8gue","""2024-11-14T16:10:18.985Z""","null","+","null","","","","","","",""
"","","","","","image-keyboard-response","163","215421","0.0-15.0-0.1-1.11","vltfzv8gue","","vltfzv8gue","""2024-11-14T16:10:18.985Z""","4266","materials/imgs/D96.png","arrowright","","[""materials/imgs/D4.png"",""materials/imgs/D56.png""]","false","random","","",""
"","","","","","html-keyboard-response","164","215922","0.0-15.0-0.1-0.12","vltfzv8gue","","vltfzv8gue","""2024-11-14T16:10:18.985Z""","null","+","null","","","","","","",""
"","","","","","image-keyboard-response","165","217259","0.0-15.0-0.1-1.12","vltfzv8gue","","vltfzv8gue","""2024-11-14T16:10:18.985Z""","1336","materials/imgs/D37.png","arrowright","","[""materials/imgs/D74.png"",""materials/imgs/D6.png""]","false","random","","",""
"","","","","","html-keyboard-response","166","217760","0.0-15.0-0.1-0.13","vltfzv8gue","","vltfzv8gue","""2024-11-14T16:10:18.985Z""","null","+","null","","","","","","",""
"","","","","","image-keyboard-response","167","219379","0.0-15.0-0.1-1.13","vltfzv8gue","","vltfzv8gue","""2024-11-14T16:10:18.985Z""","1617","materials/imgs/D24.png","arrowleft","","[""materials/imgs/D87.png"",""materials/imgs/D102.png""]","false","random","","",""
"","","","","","html-keyboard-response","168","219880","0.0-15.0-1.1-0.1","vltfzv8gue","","vltfzv8gue","""2024-11-14T16:10:18.985Z""","null","+","null","","","","","","",""
"","","","","","image-keyboard-response","169","220521","0.0-15.0-1.1-1.1","vltfzv8gue","","vltfzv8gue","""2024-11-14T16:10:18.985Z""","640","materials/imgs/D8.png","arrowright","","[""materials/imgs/D18.png"",""materials/imgs/D8.png""]","","check","materials/imgs/D8.png","1","true"
"","","","","","html-keyboard-response","170","221023","0.0-15.0-2.1-0.2","vltfzv8gue","","vltfzv8gue","""2024-11-14T16:10:18.985Z""","null","+","null","","","","","","",""
"","","","","","image-keyboard-response","171","221799","0.0-15.0-2.1-1.2","vltfzv8gue","","vltfzv8gue","""2024-11-14T16:10:18.985Z""","775","materials/imgs/D92.png","arrowleft","","[""materials/imgs/D56.png"",""materials/imgs/D77.png""]","false","validation","","",""
"","","","","","html-keyboard-response","172","222300","0.0-15.0-2.1-0.3","vltfzv8gue","","vltfzv8gue","""2024-11-14T16:10:18.985Z""","null","+","null","","","","","","",""
"","","","","","image-keyboard-response","173","223135","0.0-15.0-2.1-1.3","vltfzv8gue","","vltfzv8gue","""2024-11-14T16:10:18.985Z""","834","materials/imgs/D52.png","arrowleft","","[""materials/imgs/D9.png"",""materials/imgs/D19.png""]","false","validation","","",""
"","","","","","html-keyboard-response","174","223636","0.0-15.0-0.2-0.14","vltfzv8gue","","vltfzv8gue","""2024-11-14T16:10:18.985Z""","null","+","null","","","","","","",""
"","","","","","image-keyboard-response","175","224863","0.0-15.0-0.2-1.14","vltfzv8gue","","vltfzv8gue","""2024-11-14T16:10:18.985Z""","1225","materials/imgs/D19.png","arrowleft","","[""materials/imgs/D92.png"",""materials/imgs/D18.png""]","false","random","","",""
"","","","","","html-keyboard-response","176","225364","0.0-15.0-0.2-0.15","vltfzv8gue","","vltfzv8gue","""2024-11-14T16:10:18.985Z""","null","+","null","","","","","","",""
"","","","","","image-keyboard-response","177","226063","0.0-15.0-0.2-1.15","vltfzv8gue","","vltfzv8gue","""2024-11-14T16:10:18.985Z""","698","materials/imgs/D76.png","arrowleft","","[""materials/imgs/D19.png"",""materials/imgs/D29.png""]","false","random","","",""
"","","","","","html-keyboard-response","178","226564","0.0-15.0-0.2-0.16","vltfzv8gue","","vltfzv8gue","""2024-11-14T16:10:18.985Z""","null","+","null","","","","","","",""
"","","","","","image-keyboard-response","179","227237","0.0-15.0-0.2-1.16","vltfzv8gue","","vltfzv8gue","""2024-11-14T16:10:18.985Z""","672","materials/imgs/D102.png","arrowleft","","[""materials/imgs/D56.png"",""materials/imgs/D48.png""]","false","random","","",""
"","","","","","html-keyboard-response","180","227738","0.0-15.0-0.2-0.17","vltfzv8gue","","vltfzv8gue","""2024-11-14T16:10:18.985Z""","null","+","null","","","","","","",""
"","","","","","image-keyboard-response","181","228590","0.0-15.0-0.2-1.17","vltfzv8gue","","vltfzv8gue","""2024-11-14T16:10:18.985Z""","850","materials/imgs/D34.png","arrowleft","","[""materials/imgs/D83.png"",""materials/imgs/D9.png""]","false","random","","",""
"","","","","","html-keyboard-response","182","229091","0.0-15.0-0.2-0.18","vltfzv8gue","","vltfzv8gue","""2024-11-14T16:10:18.985Z""","null","+","null","","","","","","",""
"","","","","","image-keyboard-response","183","229700","0.0-15.0-0.2-1.18","vltfzv8gue","","vltfzv8gue","""2024-11-14T16:10:18.985Z""","607","materials/imgs/D92.png","arrowleft","","[""materials/imgs/D74.png"",""materials/imgs/D11.png""]","false","random","","",""
"","","","","","html-keyboard-response","184","230201","0.0-15.0-0.2-0.19","vltfzv8gue","","vltfzv8gue","""2024-11-14T16:10:18.985Z""","null","+","null","","","","","","",""
"","","","","","image-keyboard-response","185","231135","0.0-15.0-0.2-1.19","vltfzv8gue","","vltfzv8gue","""2024-11-14T16:10:18.985Z""","932","materials/imgs/D48.png","arrowright","","[""materials/imgs/D49.png"",""materials/imgs/D26.png""]","false","random","","",""
"","","","","","html-keyboard-response","186","231636","0.0-15.0-0.2-0.20","vltfzv8gue","","vltfzv8gue","""2024-11-14T16:10:18.985Z""","null","+","null","","","","","","",""
"","","","","","image-keyboard-response","187","232661","0.0-15.0-0.2-1.20","vltfzv8gue","","vltfzv8gue","""2024-11-14T16:10:18.985Z""","1024","materials/imgs/D102.png","arrowleft","","[""materials/imgs/D16.png"",""materials/imgs/D21.png""]","false","random","","",""
"","","","","","html-keyboard-response","188","233163","0.0-15.0-1.2-0.2","vltfzv8gue","","vltfzv8gue","""2024-11-14T16:10:18.985Z""","null","+","null","","","","","","",""
"","","","","","image-keyboard-response","189","233738","0.0-15.0-1.2-1.2","vltfzv8gue","","vltfzv8gue","""2024-11-14T16:10:18.985Z""","574","materials/imgs/D106.png","arrowleft","","[""materials/imgs/D106.png"",""materials/imgs/D101.png""]","","check","materials/imgs/D106.png","0","true"
"","","","","","html-keyboard-response","190","234239","0.0-15.0-2.2-0.4","vltfzv8gue","","vltfzv8gue","""2024-11-14T16:10:18.985Z""","null","+","null","","","","","","",""
"","","","","","image-keyboard-response","191","235714","0.0-15.0-2.2-1.4","vltfzv8gue","","vltfzv8gue","""2024-11-14T16:10:18.985Z""","1474","materials/imgs/D36.png","arrowleft","","[""materials/imgs/D47.png"",""materials/imgs/D49.png""]","false","validation","","",""
"","","","","","html-keyboard-response","192","236216","0.0-15.0-2.2-0.5","vltfzv8gue","","vltfzv8gue","""2024-11-14T16:10:18.985Z""","null","+","null","","","","","","",""
"","","","","","image-keyboard-response","193","237554","0.0-15.0-2.2-1.5","vltfzv8gue","","vltfzv8gue","""2024-11-14T16:10:18.985Z""","1337","materials/imgs/D49.png","arrowright","","[""materials/imgs/D8.png"",""materials/imgs/D101.png""]","false","validation","","",""
"","","","","","html-keyboard-response","194","238055","0.0-15.0-0.3-0.21","vltfzv8gue","","vltfzv8gue","""2024-11-14T16:10:18.985Z""","null","+","null","","","","","","",""
"","","","","","image-keyboard-response","195","239405","0.0-15.0-0.3-1.21","vltfzv8gue","","vltfzv8gue","""2024-11-14T16:10:18.985Z""","1348","materials/imgs/D104.png","arrowright","","[""materials/imgs/D1.png"",""materials/imgs/D21.png""]","false","random","","",""
"","","","","","html-keyboard-response","196","239906","0.0-15.0-0.3-0.22","vltfzv8gue","","vltfzv8gue","""2024-11-14T16:10:18.985Z""","null","+","null","","","","","","",""
"","","","","","image-keyboard-response","197","242441","0.0-15.0-0.3-1.22","vltfzv8gue","","vltfzv8gue","""2024-11-14T16:10:18.985Z""","2533","materials/imgs/D76.png","arrowright","","[""materials/imgs/D101.png"",""materials/imgs/D21.png""]","false","random","","",""
"","","","","","html-keyboard-response","198","242942","0.0-15.0-0.3-0.23","vltfzv8gue","","vltfzv8gue","""2024-11-14T16:10:18.985Z""","null","+","null","","","","","","",""
"","","","","","image-keyboard-response","199","245364","0.0-15.0-0.3-1.23","vltfzv8gue","","vltfzv8gue","""2024-11-14T16:10:18.985Z""","2421","materials/imgs/D19.png","arrowleft","","[""materials/imgs/D78.png"",""materials/imgs/D16.png""]","false","random","","",""
"","","","","","html-keyboard-response","200","245865","0.0-15.0-0.3-0.24","vltfzv8gue","","vltfzv8gue","""2024-11-14T16:10:18.985Z""","null","+","null","","","","","","",""
"","","","","","image-keyboard-response","201","248829","0.0-15.0-0.3-1.24","vltfzv8gue","","vltfzv8gue","""2024-11-14T16:10:18.985Z""","2963","materials/imgs/D80.png","arrowright","","[""materials/imgs/D76.png"",""materials/imgs/D29.png""]","false","random","","",""
"","","","","","html-keyboard-response","202","249331","0.0-15.0-0.3-0.25","vltfzv8gue","","vltfzv8gue","""2024-11-14T16:10:18.985Z""","null","+","null","","","","","","",""
"","","","","","image-keyboard-response","203","250558","0.0-15.0-0.3-1.25","vltfzv8gue","","vltfzv8gue","""2024-11-14T16:10:18.985Z""","1226","materials/imgs/D53.png","arrowleft","","[""materials/imgs/D68.png"",""materials/imgs/D80.png""]","false","random","","",""
"","","","","","html-keyboard-response","204","251059","0.0-15.0-0.3-0.26","vltfzv8gue","","vltfzv8gue","""2024-11-14T16:10:18.985Z""","null","+","null","","","","","","",""
"","","","","","image-keyboard-response","205","252033","0.0-15.0-0.3-1.26","vltfzv8gue","","vltfzv8gue","""2024-11-14T16:10:18.985Z""","973","materials/imgs/D6.png","arrowleft","","[""materials/imgs/D79.png"",""materials/imgs/D80.png""]","false","random","","",""
"","","","","","html-keyboard-response","206","252535","0.0-15.0-0.3-0.27","vltfzv8gue","","vltfzv8gue","""2024-11-14T16:10:18.985Z""","null","+","null","","","","","","",""
"","","","","","image-keyboard-response","207","253703","0.0-15.0-0.3-1.27","vltfzv8gue","","vltfzv8gue","""2024-11-14T16:10:18.985Z""","1167","materials/imgs/D75.png","arrowright","","[""materials/imgs/D105.png"",""materials/imgs/D11.png""]","false","random","","",""
"","","","","","html-keyboard-response","208","254204","0.0-15.0-1.3-0.3","vltfzv8gue","","vltfzv8gue","""2024-11-14T16:10:18.985Z""","null","+","null","","","","","","",""
"","","","","","image-keyboard-response","209","254824","0.0-15.0-1.3-1.3","vltfzv8gue","","vltfzv8gue","""2024-11-14T16:10:18.985Z""","619","materials/imgs/D106.png","arrowleft","","[""materials/imgs/D106.png"",""materials/imgs/D101.png""]","","check","materials/imgs/D106.png","0","true"
"","","","","","html-keyboard-response","210","255326","0.0-15.0-2.3-0.6","vltfzv8gue","","vltfzv8gue","""2024-11-14T16:10:18.985Z""","null","+","null","","","","","","",""
"","","","","","image-keyboard-response","211","256534","0.0-15.0-2.3-1.6","vltfzv8gue","","vltfzv8gue","""2024-11-14T16:10:18.985Z""","1207","materials/imgs/D26.png","arrowright","","[""materials/imgs/D36.png"",""materials/imgs/D92.png""]","false","validation","","",""
"","","","","","html-keyboard-response","212","257035","0.0-15.0-2.3-0.7","vltfzv8gue","","vltfzv8gue","""2024-11-14T16:10:18.985Z""","null","+","null","","","","","","",""
"","","","","","image-keyboard-response","213","257695","0.0-15.0-2.3-1.7","vltfzv8gue","","vltfzv8gue","""2024-11-14T16:10:18.985Z""","658","materials/imgs/D105.png","arrowleft","","[""materials/imgs/D106.png"",""materials/imgs/D52.png""]","false","validation","","",""
"","","","","","html-keyboard-response","214","258196","0.0-15.0-0.4-0.28","vltfzv8gue","","vltfzv8gue","""2024-11-14T16:10:18.985Z""","null","+","null","","","","","","",""
"","","","","","image-keyboard-response","215","260363","0.0-15.0-0.4-1.28","vltfzv8gue","","vltfzv8gue","""2024-11-14T16:10:18.985Z""","2166","materials/imgs/D76.png","arrowleft","","[""materials/imgs/D32.png"",""materials/imgs/D25.png""]","false","random","","",""
"","","","","","html-keyboard-response","216","260865","0.0-15.0-0.4-0.29","vltfzv8gue","","vltfzv8gue","""2024-11-14T16:10:18.985Z""","null","+","null","","","","","","",""
"","","","","","image-keyboard-response","217","261886","0.0-15.0-0.4-1.29","vltfzv8gue","","vltfzv8gue","""2024-11-14T16:10:18.985Z""","1019","materials/imgs/D17.png","arrowright","","[""materials/imgs/D74.png"",""materials/imgs/D55.png""]","false","random","","",""
"","","","","","html-keyboard-response","218","262387","0.0-15.0-0.4-0.30","vltfzv8gue","","vltfzv8gue","""2024-11-14T16:10:18.985Z""","null","+","null","","","","","","",""
"","","","","","image-keyboard-response","219","263451","0.0-15.0-0.4-1.30","vltfzv8gue","","vltfzv8gue","""2024-11-14T16:10:18.985Z""","1063","materials/imgs/D64.png","arrowright","","[""materials/imgs/D47.png"",""materials/imgs/D96.png""]","false","random","","",""
"","","","","","html-keyboard-response","220","263953","0.0-15.0-0.4-0.31","vltfzv8gue","","vltfzv8gue","""2024-11-14T16:10:18.985Z""","null","+","null","","","","","","",""
"","","","","","image-keyboard-response","221","267797","0.0-15.0-0.4-1.31","vltfzv8gue","","vltfzv8gue","""2024-11-14T16:10:18.985Z""","3843","materials/imgs/D17.png","arrowright","","[""materials/imgs/D66.png"",""materials/imgs/D34.png""]","false","random","","",""
"","","","","","html-keyboard-response","222","268298","0.0-15.0-0.4-0.32","vltfzv8gue","","vltfzv8gue","""2024-11-14T16:10:18.985Z""","null","+","null","","","","","","",""
"","","","","","image-keyboard-response","223","270848","0.0-15.0-0.4-1.32","vltfzv8gue","","vltfzv8gue","""2024-11-14T16:10:18.985Z""","2548","materials/imgs/D47.png","arrowright","","[""materials/imgs/D34.png"",""materials/imgs/D66.png""]","false","random","","",""
"","","","","","html-keyboard-response","224","271350","0.0-15.0-0.4-0.33","vltfzv8gue","","vltfzv8gue","""2024-11-14T16:10:18.985Z""","null","+","null","","","","","","",""
"","","","","","image-keyboard-response","225","272411","0.0-15.0-0.4-1.33","vltfzv8gue","","vltfzv8gue","""2024-11-14T16:10:18.985Z""","1060","materials/imgs/D20.png","arrowright","","[""materials/imgs/D78.png"",""materials/imgs/D82.png""]","false","random","","",""
"","","","","","html-keyboard-response","226","272913","0.0-15.0-0.4-0.34","vltfzv8gue","","vltfzv8gue","""2024-11-14T16:10:18.985Z""","null","+","null","","","","","","",""
"","","","","","image-keyboard-response","227","273751","0.0-15.0-0.4-1.34","vltfzv8gue","","vltfzv8gue","""2024-11-14T16:10:18.985Z""","836","materials/imgs/D52.png","arrowright","","[""materials/imgs/D8.png"",""materials/imgs/D106.png""]","false","random","","",""
"","","","","","html-keyboard-response","228","274252","0.0-15.0-1.4-0.4","vltfzv8gue","","vltfzv8gue","""2024-11-14T16:10:18.985Z""","null","+","null","","","","","","",""
"","","","","","image-keyboard-response","229","275236","0.0-15.0-1.4-1.4","vltfzv8gue","","vltfzv8gue","""2024-11-14T16:10:18.985Z""","984","materials/imgs/D18.png","arrowright","","[""materials/imgs/D8.png"",""materials/imgs/D18.png""]","","check","materials/imgs/D18.png","1","true"
"","","","","","html-keyboard-response","230","275738","0.0-15.0-2.4-0.8","vltfzv8gue","","vltfzv8gue","""2024-11-14T16:10:18.985Z""","null","+","null","","","","","","",""
"","","","","","image-keyboard-response","231","276667","0.0-15.0-2.4-1.8","vltfzv8gue","","vltfzv8gue","""2024-11-14T16:10:18.985Z""","928","materials/imgs/D25.png","arrowright","","[""materials/imgs/D103.png"",""materials/imgs/D64.png""]","false","validation","","",""
"","","","","","html-keyboard-response","232","277168","0.0-15.0-2.4-0.9","vltfzv8gue","","vltfzv8gue","""2024-11-14T16:10:18.985Z""","null","+","null","","","","","","",""
"","","","","","image-keyboard-response","233","278056","0.0-15.0-2.4-1.9","vltfzv8gue","","vltfzv8gue","""2024-11-14T16:10:18.985Z""","886","materials/imgs/D101.png","arrowright","","[""materials/imgs/D76.png"",""materials/imgs/D47.png""]","false","validation","","",""
"","","","","","html-button-response","234","287948","0.0-16.0","vltfzv8gue","","vltfzv8gue","""2024-11-14T16:10:18.985Z""","9891","You have completed 50% of the trials. Please click 'Continue' when you are ready proceed.","0","","","","","","",""
"","","","","","html-keyboard-response","235","288449","0.0-17.0-0.0-0.0","vltfzv8gue","","vltfzv8gue","""2024-11-14T16:10:18.985Z""","null","+","null","","","","","","",""
"","","","","","image-keyboard-response","236","289582","0.0-17.0-0.0-1.0","vltfzv8gue","","vltfzv8gue","""2024-11-14T16:10:18.985Z""","1132","materials/imgs/D95.png","arrowright","","[""materials/imgs/D46.png"",""materials/imgs/D106.png""]","false","random","","",""
"","","","","","html-keyboard-response","237","290084","0.0-17.0-0.0-0.1","vltfzv8gue","","vltfzv8gue","""2024-11-14T16:10:18.985Z""","null","+","null","","","","","","",""
"","","","","","image-keyboard-response","238","290802","0.0-17.0-0.0-1.1","vltfzv8gue","","vltfzv8gue","""2024-11-14T16:10:18.985Z""","717","materials/imgs/D79.png","arrowleft","","[""materials/imgs/D35.png"",""materials/imgs/D75.png""]","false","random","","",""
"","","","","","html-keyboard-response","239","291303","0.0-17.0-0.0-0.2","vltfzv8gue","","vltfzv8gue","""2024-11-14T16:10:18.985Z""","null","+","null","","","","","","",""
"","","","","","image-keyboard-response","240","292291","0.0-17.0-0.0-1.2","vltfzv8gue","","vltfzv8gue","""2024-11-14T16:10:18.985Z""","985","materials/imgs/D25.png","arrowright","","[""materials/imgs/D22.png"",""materials/imgs/D19.png""]","false","random","","",""
"","","","","","html-keyboard-response","241","292792","0.0-17.0-0.0-0.3","vltfzv8gue","","vltfzv8gue","""2024-11-14T16:10:18.985Z""","null","+","null","","","","","","",""
"","","","","","image-keyboard-response","242","294218","0.0-17.0-0.0-1.3","vltfzv8gue","","vltfzv8gue","""2024-11-14T16:10:18.985Z""","1424","materials/imgs/D51.png","arrowright","","[""materials/imgs/D25.png"",""materials/imgs/D36.png""]","false","random","","",""
"","","","","","html-keyboard-response","243","294719","0.0-17.0-0.0-0.4","vltfzv8gue","","vltfzv8gue","""2024-11-14T16:10:18.985Z""","null","+","null","","","","","","",""
"","","","","","image-keyboard-response","244","295620","0.0-17.0-0.0-1.4","vltfzv8gue","","vltfzv8gue","""2024-11-14T16:10:18.985Z""","900","materials/imgs/D56.png","arrowleft","","[""materials/imgs/D18.png"",""materials/imgs/D22.png""]","false","random","","",""
"","","","","","html-keyboard-response","245","296121","0.0-17.0-0.0-0.5","vltfzv8gue","","vltfzv8gue","""2024-11-14T16:10:18.985Z""","null","+","null","","","","","","",""
"","","","","","image-keyboard-response","246","297271","0.0-17.0-0.0-1.5","vltfzv8gue","","vltfzv8gue","""2024-11-14T16:10:18.985Z""","1149","materials/imgs/D101.png","arrowright","","[""materials/imgs/D57.png"",""materials/imgs/D53.png""]","false","random","","",""
"","","","","","html-keyboard-response","247","297773","0.0-17.0-0.0-0.6","vltfzv8gue","","vltfzv8gue","""2024-11-14T16:10:18.985Z""","null","+","null","","","","","","",""
"","","","","","image-keyboard-response","248","298983","0.0-17.0-0.0-1.6","vltfzv8gue","","vltfzv8gue","""2024-11-14T16:10:18.985Z""","1209","materials/imgs/D35.png","arrowright","","[""materials/imgs/D75.png"",""materials/imgs/D78.png""]","false","random","","",""
"","","","","","html-keyboard-response","249","299484","0.0-17.0-1.0-0.0","vltfzv8gue","","vltfzv8gue","""2024-11-14T16:10:18.985Z""","null","+","null","","","","","","",""
"","","","","","image-keyboard-response","250","300187","0.0-17.0-1.0-1.0","vltfzv8gue","","vltfzv8gue","""2024-11-14T16:10:18.985Z""","702","materials/imgs/D18.png","arrowright","","[""materials/imgs/D8.png"",""materials/imgs/D18.png""]","","check","materials/imgs/D18.png","1","true"
"","","","","","html-keyboard-response","251","300688","0.0-17.0-2.0-0.0","vltfzv8gue","","vltfzv8gue","""2024-11-14T16:10:18.985Z""","null","+","null","","","","","","",""
"","","","","","image-keyboard-response","252","301850","0.0-17.0-2.0-1.0","vltfzv8gue","","vltfzv8gue","""2024-11-14T16:10:18.985Z""","1160","materials/imgs/D19.png","arrowleft","","[""materials/imgs/D111.png"",""materials/imgs/D56.png""]","false","validation","","",""
"","","","","","html-keyboard-response","253","302352","0.0-17.0-2.0-0.1","vltfzv8gue","","vltfzv8gue","""2024-11-14T16:10:18.985Z""","null","+","null","","","","","","",""
"","","","","","image-keyboard-response","254","302983","0.0-17.0-2.0-1.1","vltfzv8gue","","vltfzv8gue","""2024-11-14T16:10:18.985Z""","629","materials/imgs/D3.png","arrowleft","","[""materials/imgs/D79.png"",""materials/imgs/D48.png""]","false","validation","","",""
"","","","","","html-keyboard-response","255","303484","0.0-17.0-0.1-0.7","vltfzv8gue","","vltfzv8gue","""2024-11-14T16:10:18.985Z""","null","+","null","","","","","","",""
"","","","","","image-keyboard-response","256","304517","0.0-17.0-0.1-1.7","vltfzv8gue","","vltfzv8gue","""2024-11-14T16:10:18.985Z""","1032","materials/imgs/D79.png","arrowright","","[""materials/imgs/D94.png"",""materials/imgs/D74.png""]","false","random","","",""
"","","","","","html-keyboard-response","257","305019","0.0-17.0-0.1-0.8","vltfzv8gue","","vltfzv8gue","""2024-11-14T16:10:18.985Z""","null","+","null","","","","","","",""
"","","","","","image-keyboard-response","258","306076","0.0-17.0-0.1-1.8","vltfzv8gue","","vltfzv8gue","""2024-11-14T16:10:18.985Z""","1056","materials/imgs/D96.png","arrowright","","[""materials/imgs/D4.png"",""materials/imgs/D111.png""]","false","random","","",""
"","","","","","html-keyboard-response","259","306578","0.0-17.0-0.1-0.9","vltfzv8gue","","vltfzv8gue","""2024-11-14T16:10:18.985Z""","null","+","null","","","","","","",""
"","","","","","image-keyboard-response","260","307486","0.0-17.0-0.1-1.9","vltfzv8gue","","vltfzv8gue","""2024-11-14T16:10:18.985Z""","907","materials/imgs/D24.png","arrowright","","[""materials/imgs/D64.png"",""materials/imgs/D102.png""]","false","random","","",""
"","","","","","html-keyboard-response","261","307987","0.0-17.0-0.1-0.10","vltfzv8gue","","vltfzv8gue","""2024-11-14T16:10:18.985Z""","null","+","null","","","","","","",""
"","","","","","image-keyboard-response","262","308606","0.0-17.0-0.1-1.10","vltfzv8gue","","vltfzv8gue","""2024-11-14T16:10:18.985Z""","619","materials/imgs/D52.png","arrowleft","","[""materials/imgs/D104.png"",""materials/imgs/D96.png""]","false","random","","",""
"","","","","","html-keyboard-response","263","309107","0.0-17.0-0.1-0.11","vltfzv8gue","","vltfzv8gue","""2024-11-14T16:10:18.985Z""","null","+","null","","","","","","",""
"","","","","","image-keyboard-response","264","310720","0.0-17.0-0.1-1.11","vltfzv8gue","","vltfzv8gue","""2024-11-14T16:10:18.985Z""","1612","materials/imgs/D74.png","arrowright","","[""materials/imgs/D25.png"",""materials/imgs/D57.png""]","false","random","","",""
"","","","","","html-keyboard-response","265","311222","0.0-17.0-0.1-0.12","vltfzv8gue","","vltfzv8gue","""2024-11-14T16:10:18.985Z""","null","+","null","","","","","","",""
"","","","","","image-keyboard-response","266","312184","0.0-17.0-0.1-1.12","vltfzv8gue","","vltfzv8gue","""2024-11-14T16:10:18.985Z""","961","materials/imgs/D92.png","arrowleft","","[""materials/imgs/D74.png"",""materials/imgs/D76.png""]","false","random","","",""
"","","","","","html-keyboard-response","267","312686","0.0-17.0-0.1-0.13","vltfzv8gue","","vltfzv8gue","""2024-11-14T16:10:18.985Z""","null","+","null","","","","","","",""
"","","","","","image-keyboard-response","268","313550","0.0-17.0-0.1-1.13","vltfzv8gue","","vltfzv8gue","""2024-11-14T16:10:18.985Z""","862","materials/imgs/D57.png","arrowleft","","[""materials/imgs/D80.png"",""materials/imgs/D66.png""]","false","random","","",""
"","","","","","html-keyboard-response","269","314051","0.0-17.0-1.1-0.1","vltfzv8gue","","vltfzv8gue","""2024-11-14T16:10:18.985Z""","null","+","null","","","","","","",""
"","","","","","image-keyboard-response","270","314783","0.0-17.0-1.1-1.1","vltfzv8gue","","vltfzv8gue","""2024-11-14T16:10:18.985Z""","731","materials/imgs/D64.png","arrowleft","","[""materials/imgs/D64.png"",""materials/imgs/D53.png""]","","check","materials/imgs/D64.png","0","true"
"","","","","","html-keyboard-response","271","315284","0.0-17.0-2.1-0.2","vltfzv8gue","","vltfzv8gue","""2024-11-14T16:10:18.985Z""","null","+","null","","","","","","",""
"","","","","","image-keyboard-response","272","316969","0.0-17.0-2.1-1.2","vltfzv8gue","","vltfzv8gue","""2024-11-14T16:10:18.985Z""","1683","materials/imgs/D1.png","arrowright","","[""materials/imgs/D57.png"",""materials/imgs/D76.png""]","false","validation","","",""
"","","","","","html-keyboard-response","273","317470","0.0-17.0-2.1-0.3","vltfzv8gue","","vltfzv8gue","""2024-11-14T16:10:18.985Z""","null","+","null","","","","","","",""
"","","","","","image-keyboard-response","274","318404","0.0-17.0-2.1-1.3","vltfzv8gue","","vltfzv8gue","""2024-11-14T16:10:18.985Z""","933","materials/imgs/D35.png","arrowright","","[""materials/imgs/D83.png"",""materials/imgs/D24.png""]","false","validation","","",""
"","","","","","html-keyboard-response","275","318906","0.0-17.0-0.2-0.14","vltfzv8gue","","vltfzv8gue","""2024-11-14T16:10:18.985Z""","null","+","null","","","","","","",""
"","","","","","image-keyboard-response","276","323002","0.0-17.0-0.2-1.14","vltfzv8gue","","vltfzv8gue","""2024-11-14T16:10:18.985Z""","4095","materials/imgs/D81.png","arrowright","","[""materials/imgs/D96.png"",""materials/imgs/D85.png""]","false","random","","",""
"","","","","","html-keyboard-response","277","323504","0.0-17.0-0.2-0.15","vltfzv8gue","","vltfzv8gue","""2024-11-14T16:10:18.985Z""","null","+","null","","","","","","",""
"","","","","","image-keyboard-response","278","324920","0.0-17.0-0.2-1.15","vltfzv8gue","","vltfzv8gue","""2024-11-14T16:10:18.985Z""","1415","materials/imgs/D52.png","arrowleft","","[""materials/imgs/D16.png"",""materials/imgs/D49.png""]","false","random","","",""
"","","","","","html-keyboard-response","279","325421","0.0-17.0-0.2-0.16","vltfzv8gue","","vltfzv8gue","""2024-11-14T16:10:18.985Z""","null","+","null","","","","","","",""
"","","","","","image-keyboard-response","280","326530","0.0-17.0-0.2-1.16","vltfzv8gue","","vltfzv8gue","""2024-11-14T16:10:18.985Z""","1107","materials/imgs/D87.png","arrowleft","","[""materials/imgs/D103.png"",""materials/imgs/D77.png""]","false","random","","",""
"","","","","","html-keyboard-response","281","327031","0.0-17.0-0.2-0.17","vltfzv8gue","","vltfzv8gue","""2024-11-14T16:10:18.985Z""","null","+","null","","","","","","",""
"","","","","","image-keyboard-response","282","328124","0.0-17.0-0.2-1.17","vltfzv8gue","","vltfzv8gue","""2024-11-14T16:10:18.985Z""","1091","materials/imgs/D35.png","arrowright","","[""materials/imgs/D32.png"",""materials/imgs/D17.png""]","false","random","","",""
"","","","","","html-keyboard-response","283","328625","0.0-17.0-0.2-0.18","vltfzv8gue","","vltfzv8gue","""2024-11-14T16:10:18.985Z""","null","+","null","","","","","","",""
"","","","","","image-keyboard-response","284","330799","0.0-17.0-0.2-1.18","vltfzv8gue","","vltfzv8gue","""2024-11-14T16:10:18.985Z""","2172","materials/imgs/D57.png","arrowleft","","[""materials/imgs/D65.png"",""materials/imgs/D76.png""]","false","random","","",""
"","","","","","html-keyboard-response","285","331300","0.0-17.0-0.2-0.19","vltfzv8gue","","vltfzv8gue","""2024-11-14T16:10:18.985Z""","null","+","null","","","","","","",""
"","","","","","image-keyboard-response","286","332291","0.0-17.0-0.2-1.19","vltfzv8gue","","vltfzv8gue","""2024-11-14T16:10:18.985Z""","990","materials/imgs/D56.png","arrowright","","[""materials/imgs/D77.png"",""materials/imgs/D68.png""]","false","random","","",""
"","","","","","html-keyboard-response","287","332792","0.0-17.0-0.2-0.20","vltfzv8gue","","vltfzv8gue","""2024-11-14T16:10:18.985Z""","null","+","null","","","","","","",""
"","","","","","image-keyboard-response","288","333829","0.0-17.0-0.2-1.20","vltfzv8gue","","vltfzv8gue","""2024-11-14T16:10:18.985Z""","1036","materials/imgs/D79.png","arrowleft","","[""materials/imgs/D52.png"",""materials/imgs/D101.png""]","false","random","","",""
"","","","","","html-keyboard-response","289","334330","0.0-17.0-1.2-0.2","vltfzv8gue","","vltfzv8gue","""2024-11-14T16:10:18.985Z""","null","+","null","","","","","","",""
"","","","","","image-keyboard-response","290","335045","0.0-17.0-1.2-1.2","vltfzv8gue","","vltfzv8gue","""2024-11-14T16:10:18.985Z""","714","materials/imgs/D53.png","arrowright","","[""materials/imgs/D64.png"",""materials/imgs/D53.png""]","","check","materials/imgs/D53.png","1","true"
"","","","","","html-keyboard-response","291","335546","0.0-17.0-2.2-0.4","vltfzv8gue","","vltfzv8gue","""2024-11-14T16:10:18.985Z""","null","+","null","","","","","","",""
"","","","","","image-keyboard-response","292","336719","0.0-17.0-2.2-1.4","vltfzv8gue","","vltfzv8gue","""2024-11-14T16:10:18.985Z""","1172","materials/imgs/D6.png","arrowright","","[""materials/imgs/D26.png"",""materials/imgs/D76.png""]","false","validation","","",""
"","","","","","html-keyboard-response","293","337220","0.0-17.0-2.2-0.5","vltfzv8gue","","vltfzv8gue","""2024-11-14T16:10:18.985Z""","null","+","null","","","","","","",""
"","","","","","image-keyboard-response","294","338249","0.0-17.0-2.2-1.5","vltfzv8gue","","vltfzv8gue","""2024-11-14T16:10:18.985Z""","1027","materials/imgs/D77.png","arrowright","","[""materials/imgs/D102.png"",""materials/imgs/D65.png""]","false","validation","","",""
"","","","","","html-keyboard-response","295","338750","0.0-17.0-0.3-0.21","vltfzv8gue","","vltfzv8gue","""2024-11-14T16:10:18.985Z""","null","+","null","","","","","","",""
"","","","","","image-keyboard-response","296","339786","0.0-17.0-0.3-1.21","vltfzv8gue","","vltfzv8gue","""2024-11-14T16:10:18.985Z""","1034","materials/imgs/D3.png","arrowleft","","[""materials/imgs/D92.png"",""materials/imgs/D105.png""]","false","random","","",""
"","","","","","html-keyboard-response","297","340287","0.0-17.0-0.3-0.22","vltfzv8gue","","vltfzv8gue","""2024-11-14T16:10:18.985Z""","null","+","null","","","","","","",""
"","","","","","image-keyboard-response","298","341562","0.0-17.0-0.3-1.22","vltfzv8gue","","vltfzv8gue","""2024-11-14T16:10:18.985Z""","1273","materials/imgs/D95.png","arrowright","","[""materials/imgs/D79.png"",""materials/imgs/D102.png""]","false","random","","",""
"","","","","","html-keyboard-response","299","342063","0.0-17.0-0.3-0.23","vltfzv8gue","","vltfzv8gue","""2024-11-14T16:10:18.985Z""","null","+","null","","","","","","",""
"","","","","","image-keyboard-response","300","343903","0.0-17.0-0.3-1.23","vltfzv8gue","","vltfzv8gue","""2024-11-14T16:10:18.985Z""","1839","materials/imgs/D95.png","arrowright","","[""materials/imgs/D105.png"",""materials/imgs/D74.png""]","false","random","","",""
"","","","","","html-keyboard-response","301","344404","0.0-17.0-0.3-0.24","vltfzv8gue","","vltfzv8gue","""2024-11-14T16:10:18.985Z""","null","+","null","","","","","","",""
"","","","","","image-keyboard-response","302","345798","0.0-17.0-0.3-1.24","vltfzv8gue","","vltfzv8gue","""2024-11-14T16:10:18.985Z""","1392","materials/imgs/D111.png","arrowleft","","[""materials/imgs/D82.png"",""materials/imgs/D68.png""]","false","random","","",""
"","","","","","html-keyboard-response","303","346299","0.0-17.0-0.3-0.25","vltfzv8gue","","vltfzv8gue","""2024-11-14T16:10:18.985Z""","null","+","null","","","","","","",""
"","","","","","image-keyboard-response","304","349703","0.0-17.0-0.3-1.25","vltfzv8gue","","vltfzv8gue","""2024-11-14T16:10:18.985Z""","3403","materials/imgs/D52.png","arrowright","","[""materials/imgs/D18.png"",""materials/imgs/D36.png""]","false","random","","",""
"","","","","","html-keyboard-response","305","350204","0.0-17.0-0.3-0.26","vltfzv8gue","","vltfzv8gue","""2024-11-14T16:10:18.985Z""","null","+","null","","","","","","",""
"","","","","","image-keyboard-response","306","351429","0.0-17.0-0.3-1.26","vltfzv8gue","","vltfzv8gue","""2024-11-14T16:10:18.985Z""","1223","materials/imgs/D34.png","arrowleft","","[""materials/imgs/D79.png"",""materials/imgs/D16.png""]","false","random","","",""
"","","","","","html-keyboard-response","307","351931","0.0-17.0-0.3-0.27","vltfzv8gue","","vltfzv8gue","""2024-11-14T16:10:18.985Z""","null","+","null","","","","","","",""
"","","","","","image-keyboard-response","308","354322","0.0-17.0-0.3-1.27","vltfzv8gue","","vltfzv8gue","""2024-11-14T16:10:18.985Z""","2390","materials/imgs/D84.png","arrowright","","[""materials/imgs/D96.png"",""materials/imgs/D53.png""]","false","random","","",""
"","","","","","html-keyboard-response","309","354823","0.0-17.0-1.3-0.3","vltfzv8gue","","vltfzv8gue","""2024-11-14T16:10:18.985Z""","null","+","null","","","","","","",""
"","","","","","image-keyboard-response","310","355726","0.0-17.0-1.3-1.3","vltfzv8gue","","vltfzv8gue","""2024-11-14T16:10:18.985Z""","902","materials/imgs/D46.png","arrowleft","","[""materials/imgs/D46.png"",""materials/imgs/D26.png""]","","check","materials/imgs/D46.png","0","true"
"","","","","","html-keyboard-response","311","356227","0.0-17.0-2.3-0.6","vltfzv8gue","","vltfzv8gue","""2024-11-14T16:10:18.985Z""","null","+","null","","","","","","",""
"","","","","","image-keyboard-response","312","357431","0.0-17.0-2.3-1.6","vltfzv8gue","","vltfzv8gue","""2024-11-14T16:10:18.985Z""","1202","materials/imgs/D18.png","arrowleft","","[""materials/imgs/D32.png"",""materials/imgs/D57.png""]","false","validation","","",""
"","","","","","html-keyboard-response","313","357933","0.0-17.0-2.3-0.7","vltfzv8gue","","vltfzv8gue","""2024-11-14T16:10:18.985Z""","null","+","null","","","","","","",""
"","","","","","image-keyboard-response","314","359876","0.0-17.0-2.3-1.7","vltfzv8gue","","vltfzv8gue","""2024-11-14T16:10:18.985Z""","1942","materials/imgs/D106.png","arrowleft","","[""materials/imgs/D57.png"",""materials/imgs/D18.png""]","false","validation","","",""
"","","","","","html-keyboard-response","315","360377","0.0-17.0-0.4-0.28","vltfzv8gue","","vltfzv8gue","""2024-11-14T16:10:18.985Z""","null","+","null","","","","","","",""
"","","","","","image-keyboard-response","316","361332","0.0-17.0-0.4-1.28","vltfzv8gue","","vltfzv8gue","""2024-11-14T16:10:18.985Z""","953","materials/imgs/D3.png","arrowright","","[""materials/imgs/D111.png"",""materials/imgs/D52.png""]","false","random","","",""
"","","","","","html-keyboard-response","317","361833","0.0-17.0-0.4-0.29","vltfzv8gue","","vltfzv8gue","""2024-11-14T16:10:18.985Z""","null","+","null","","","","","","",""
"","","","","","image-keyboard-response","318","363316","0.0-17.0-0.4-1.29","vltfzv8gue","","vltfzv8gue","""2024-11-14T16:10:18.985Z""","1481","materials/imgs/D106.png","arrowright","","[""materials/imgs/D26.png"",""materials/imgs/D56.png""]","false","random","","",""
"","","","","","html-keyboard-response","319","363816","0.0-17.0-0.4-0.30","vltfzv8gue","","vltfzv8gue","""2024-11-14T16:10:18.985Z""","null","+","null","","","","","","",""
"","","","","","image-keyboard-response","320","365159","0.0-17.0-0.4-1.30","vltfzv8gue","","vltfzv8gue","""2024-11-14T16:10:18.985Z""","1342","materials/imgs/D11.png","arrowright","","[""materials/imgs/D36.png"",""materials/imgs/D20.png""]","false","random","","",""
"","","","","","html-keyboard-response","321","365660","0.0-17.0-0.4-0.31","vltfzv8gue","","vltfzv8gue","""2024-11-14T16:10:18.985Z""","null","+","null","","","","","","",""
"","","","","","image-keyboard-response","322","367225","0.0-17.0-0.4-1.31","vltfzv8gue","","vltfzv8gue","""2024-11-14T16:10:18.985Z""","1564","materials/imgs/D80.png","arrowright","","[""materials/imgs/D55.png"",""materials/imgs/D17.png""]","false","random","","",""
"","","","","","html-keyboard-response","323","367726","0.0-17.0-0.4-0.32","vltfzv8gue","","vltfzv8gue","""2024-11-14T16:10:18.985Z""","null","+","null","","","","","","",""
"","","","","","image-keyboard-response","324","369500","0.0-17.0-0.4-1.32","vltfzv8gue","","vltfzv8gue","""2024-11-14T16:10:18.985Z""","1773","materials/imgs/D8.png","arrowright","","[""materials/imgs/D79.png"",""materials/imgs/D36.png""]","false","random","","",""
"","","","","","html-keyboard-response","325","370002","0.0-17.0-0.4-0.33","vltfzv8gue","","vltfzv8gue","""2024-11-14T16:10:18.985Z""","null","+","null","","","","","","",""
"","","","","","image-keyboard-response","326","371704","0.0-17.0-0.4-1.33","vltfzv8gue","","vltfzv8gue","""2024-11-14T16:10:18.985Z""","1701","materials/imgs/D29.png","arrowleft","","[""materials/imgs/D51.png"",""materials/imgs/D48.png""]","false","random","","",""
"","","","","","html-keyboard-response","327","372206","0.0-17.0-0.4-0.34","vltfzv8gue","","vltfzv8gue","""2024-11-14T16:10:18.985Z""","null","+","null","","","","","","",""
"","","","","","image-keyboard-response","328","373026","0.0-17.0-0.4-1.34","vltfzv8gue","","vltfzv8gue","""2024-11-14T16:10:18.985Z""","819","materials/imgs/D82.png","arrowright","","[""materials/imgs/D64.png"",""materials/imgs/D36.png""]","false","random","","",""
"","","","","","html-keyboard-response","329","373527","0.0-17.0-1.4-0.4","vltfzv8gue","","vltfzv8gue","""2024-11-14T16:10:18.985Z""","null","+","null","","","","","","",""
"","","","","","image-keyboard-response","330","374247","0.0-17.0-1.4-1.4","vltfzv8gue","","vltfzv8gue","""2024-11-14T16:10:18.985Z""","717","materials/imgs/D64.png","arrowleft","","[""materials/imgs/D64.png"",""materials/imgs/D53.png""]","","check","materials/imgs/D64.png","0","true"
"","","","","","html-keyboard-response","331","374748","0.0-17.0-2.4-0.8","vltfzv8gue","","vltfzv8gue","""2024-11-14T16:10:18.985Z""","null","+","null","","","","","","",""
"","","","","","image-keyboard-response","332","376394","0.0-17.0-2.4-1.8","vltfzv8gue","","vltfzv8gue","""2024-11-14T16:10:18.985Z""","1645","materials/imgs/D24.png","arrowleft","","[""materials/imgs/D36.png"",""materials/imgs/D8.png""]","false","validation","","",""
"","","","","","html-keyboard-response","333","376895","0.0-17.0-2.4-0.9","vltfzv8gue","","vltfzv8gue","""2024-11-14T16:10:18.985Z""","null","+","null","","","","","","",""
"","","","","","image-keyboard-response","334","377512","0.0-17.0-2.4-1.9","vltfzv8gue","","vltfzv8gue","""2024-11-14T16:10:18.985Z""","615","materials/imgs/D53.png","arrowleft","","[""materials/imgs/D77.png"",""materials/imgs/D75.png""]","false","validation","","",""
"","","","","","html-button-response","335","378810","0.0-18.0","vltfzv8gue","","vltfzv8gue","""2024-11-14T16:10:18.985Z""","1297","You have completed 75% of the trials. Please click 'Continue' when you are ready proceed.","0","","","","","","",""
"","","","","","html-keyboard-response","336","379310","0.0-19.0-0.0-0.0","vltfzv8gue","","vltfzv8gue","""2024-11-14T16:10:18.985Z""","null","+","null","","","","","","",""
"","","","","","image-keyboard-response","337","380083","0.0-19.0-0.0-1.0","vltfzv8gue","","vltfzv8gue","""2024-11-14T16:10:18.985Z""","772","materials/imgs/D92.png","arrowright","","[""materials/imgs/D35.png"",""materials/imgs/D18.png""]","false","random","","",""
"","","","","","html-keyboard-response","338","380584","0.0-19.0-0.0-0.1","vltfzv8gue","","vltfzv8gue","""2024-11-14T16:10:18.985Z""","null","+","null","","","","","","",""
"","","","","","image-keyboard-response","339","382362","0.0-19.0-0.0-1.1","vltfzv8gue","","vltfzv8gue","""2024-11-14T16:10:18.985Z""","1776","materials/imgs/D101.png","arrowright","","[""materials/imgs/D26.png"",""materials/imgs/D84.png""]","false","random","","",""
"","","","","","html-keyboard-response","340","382863","0.0-19.0-0.0-0.2","vltfzv8gue","","vltfzv8gue","""2024-11-14T16:10:18.985Z""","null","+","null","","","","","","",""
"","","","","","image-keyboard-response","341","383575","0.0-19.0-0.0-1.2","vltfzv8gue","","vltfzv8gue","""2024-11-14T16:10:18.985Z""","711","materials/imgs/D29.png","arrowright","","[""materials/imgs/D18.png"",""materials/imgs/D79.png""]","false","random","","",""
"","","","","","html-keyboard-response","342","384077","0.0-19.0-0.0-0.3","vltfzv8gue","","vltfzv8gue","""2024-11-14T16:10:18.985Z""","null","+","null","","","","","","",""
"","","","","","image-keyboard-response","343","385231","0.0-19.0-0.0-1.3","vltfzv8gue","","vltfzv8gue","""2024-11-14T16:10:18.985Z""","1153","materials/imgs/D8.png","arrowright","","[""materials/imgs/D85.png"",""materials/imgs/D87.png""]","false","random","","",""
"","","","","","html-keyboard-response","344","385733","0.0-19.0-0.0-0.4","vltfzv8gue","","vltfzv8gue","""2024-11-14T16:10:18.985Z""","null","+","null","","","","","","",""
"","","","","","image-keyboard-response","345","386913","0.0-19.0-0.0-1.4","vltfzv8gue","","vltfzv8gue","""2024-11-14T16:10:18.985Z""","1178","materials/imgs/D26.png","arrowright","","[""materials/imgs/D35.png"",""materials/imgs/D17.png""]","false","random","","",""
"","","","","","html-keyboard-response","346","387414","0.0-19.0-0.0-0.5","vltfzv8gue","","vltfzv8gue","""2024-11-14T16:10:18.985Z""","null","+","null","","","","","","",""
"","","","","","image-keyboard-response","347","388935","0.0-19.0-0.0-1.5","vltfzv8gue","","vltfzv8gue","""2024-11-14T16:10:18.985Z""","1519","materials/imgs/D81.png","arrowleft","","[""materials/imgs/D52.png"",""materials/imgs/D21.png""]","false","random","","",""
"","","","","","html-keyboard-response","348","389437","0.0-19.0-0.0-0.6","vltfzv8gue","","vltfzv8gue","""2024-11-14T16:10:18.985Z""","null","+","null","","","","","","",""
"","","","","","image-keyboard-response","349","391518","0.0-19.0-0.0-1.6","vltfzv8gue","","vltfzv8gue","""2024-11-14T16:10:18.985Z""","2081","materials/imgs/D105.png","arrowright","","[""materials/imgs/D68.png"",""materials/imgs/D76.png""]","false","random","","",""
"","","","","","html-keyboard-response","350","392020","0.0-19.0-1.0-0.0","vltfzv8gue","","vltfzv8gue","""2024-11-14T16:10:18.985Z""","null","+","null","","","","","","",""
"","","","","","image-keyboard-response","351","393303","0.0-19.0-1.0-1.0","vltfzv8gue","","vltfzv8gue","""2024-11-14T16:10:18.985Z""","1280","materials/imgs/D26.png","arrowleft","","[""materials/imgs/D26.png"",""materials/imgs/D46.png""]","","check","materials/imgs/D26.png","0","true"
"","","","","","html-keyboard-response","352","393803","0.0-19.0-2.0-0.0","vltfzv8gue","","vltfzv8gue","""2024-11-14T16:10:18.985Z""","null","+","null","","","","","","",""
"","","","","","image-keyboard-response","353","401432","0.0-19.0-2.0-1.0","vltfzv8gue","","vltfzv8gue","""2024-11-14T16:10:18.985Z""","7628","materials/imgs/D37.png","arrowright","","[""materials/imgs/D84.png"",""materials/imgs/D111.png""]","false","validation","","",""
"","","","","","html-keyboard-response","354","401933","0.0-19.0-2.0-0.1","vltfzv8gue","","vltfzv8gue","""2024-11-14T16:10:18.985Z""","null","+","null","","","","","","",""
"","","","","","image-keyboard-response","355","402965","0.0-19.0-2.0-1.1","vltfzv8gue","","vltfzv8gue","""2024-11-14T16:10:18.985Z""","1031","materials/imgs/D9.png","arrowright","","[""materials/imgs/D103.png"",""materials/imgs/D4.png""]","false","validation","","",""
"","","","","","html-keyboard-response","356","403466","0.0-19.0-0.1-0.7","vltfzv8gue","","vltfzv8gue","""2024-11-14T16:10:18.985Z""","null","+","null","","","","","","",""
"","","","","","image-keyboard-response","357","404213","0.0-19.0-0.1-1.7","vltfzv8gue","","vltfzv8gue","""2024-11-14T16:10:18.985Z""","745","materials/imgs/D111.png","arrowright","","[""materials/imgs/D79.png"",""materials/imgs/D9.png""]","false","random","","",""
"","","","","","html-keyboard-response","358","404714","0.0-19.0-0.1-0.8","vltfzv8gue","","vltfzv8gue","""2024-11-14T16:10:18.985Z""","null","+","null","","","","","","",""
"","","","","","image-keyboard-response","359","407682","0.0-19.0-0.1-1.8","vltfzv8gue","","vltfzv8gue","""2024-11-14T16:10:18.985Z""","2966","materials/imgs/D25.png","arrowright","","[""materials/imgs/D37.png"",""materials/imgs/D104.png""]","false","random","","",""
"","","","","","html-keyboard-response","360","408183","0.0-19.0-0.1-0.9","vltfzv8gue","","vltfzv8gue","""2024-11-14T16:10:18.985Z""","null","+","null","","","","","","",""
"","","","","","image-keyboard-response","361","408845","0.0-19.0-0.1-1.9","vltfzv8gue","","vltfzv8gue","""2024-11-14T16:10:18.985Z""","661","materials/imgs/D18.png","arrowleft","","[""materials/imgs/D47.png"",""materials/imgs/D25.png""]","false","random","","",""
"","","","","","html-keyboard-response","362","409347","0.0-19.0-0.1-0.10","vltfzv8gue","","vltfzv8gue","""2024-11-14T16:10:18.985Z""","null","+","null","","","","","","",""
"","","","","","image-keyboard-response","363","410961","0.0-19.0-0.1-1.10","vltfzv8gue","","vltfzv8gue","""2024-11-14T16:10:18.985Z""","1613","materials/imgs/D102.png","arrowleft","","[""materials/imgs/D9.png"",""materials/imgs/D29.png""]","false","random","","",""
"","","","","","html-keyboard-response","364","411462","0.0-19.0-0.1-0.11","vltfzv8gue","","vltfzv8gue","""2024-11-14T16:10:18.985Z""","null","+","null","","","","","","",""
"","","","","","image-keyboard-response","365","412451","0.0-19.0-0.1-1.11","vltfzv8gue","","vltfzv8gue","""2024-11-14T16:10:18.985Z""","987","materials/imgs/D85.png","arrowright","","[""materials/imgs/D66.png"",""materials/imgs/D78.png""]","false","random","","",""
"","","","","","html-keyboard-response","366","412953","0.0-19.0-0.1-0.12","vltfzv8gue","","vltfzv8gue","""2024-11-14T16:10:18.985Z""","null","+","null","","","","","","",""
"","","","","","image-keyboard-response","367","415987","0.0-19.0-0.1-1.12","vltfzv8gue","","vltfzv8gue","""2024-11-14T16:10:18.985Z""","3033","materials/imgs/D75.png","arrowright","","[""materials/imgs/D8.png"",""materials/imgs/D22.png""]","false","random","","",""
"","","","","","html-keyboard-response","368","416488","0.0-19.0-0.1-0.13","vltfzv8gue","","vltfzv8gue","""2024-11-14T16:10:18.985Z""","null","+","null","","","","","","",""
"","","","","","image-keyboard-response","369","417719","0.0-19.0-0.1-1.13","vltfzv8gue","","vltfzv8gue","""2024-11-14T16:10:18.985Z""","1229","materials/imgs/D76.png","arrowright","","[""materials/imgs/D21.png"",""materials/imgs/D92.png""]","false","random","","",""
"","","","","","html-keyboard-response","370","418220","0.0-19.0-1.1-0.1","vltfzv8gue","","vltfzv8gue","""2024-11-14T16:10:18.985Z""","null","+","null","","","","","","",""
"","","","","","image-keyboard-response","371","420469","0.0-19.0-1.1-1.1","vltfzv8gue","","vltfzv8gue","""2024-11-14T16:10:18.985Z""","2248","materials/imgs/D76.png","arrowleft","","[""materials/imgs/D76.png"",""materials/imgs/D78.png""]","","check","materials/imgs/D76.png","0","true"
"","","","","","html-keyboard-response","372","420970","0.0-19.0-2.1-0.2","vltfzv8gue","","vltfzv8gue","""2024-11-14T16:10:18.985Z""","null","+","null","","","","","","",""
"","","","","","image-keyboard-response","373","421794","0.0-19.0-2.1-1.2","vltfzv8gue","","vltfzv8gue","""2024-11-14T16:10:18.985Z""","823","materials/imgs/D9.png","arrowright","","[""materials/imgs/D103.png"",""materials/imgs/D4.png""]","false","validation","","",""
"","","","","","html-keyboard-response","374","422295","0.0-19.0-2.1-0.3","vltfzv8gue","","vltfzv8gue","""2024-11-14T16:10:18.985Z""","null","+","null","","","","","","",""
"","","","","","image-keyboard-response","375","423463","0.0-19.0-2.1-1.3","vltfzv8gue","","vltfzv8gue","""2024-11-14T16:10:18.985Z""","1168","materials/imgs/D46.png","arrowleft","","[""materials/imgs/D92.png"",""materials/imgs/D77.png""]","false","validation","","",""
"","","","","","html-keyboard-response","376","423965","0.0-19.0-0.2-0.14","vltfzv8gue","","vltfzv8gue","""2024-11-14T16:10:18.985Z""","null","+","null","","","","","","",""
"","","","","","image-keyboard-response","377","424761","0.0-19.0-0.2-1.14","vltfzv8gue","","vltfzv8gue","""2024-11-14T16:10:18.985Z""","795","materials/imgs/D104.png","arrowleft","","[""materials/imgs/D80.png"",""materials/imgs/D46.png""]","false","random","","",""
"","","","","","html-keyboard-response","378","425262","0.0-19.0-0.2-0.15","vltfzv8gue","","vltfzv8gue","""2024-11-14T16:10:18.985Z""","null","+","null","","","","","","",""
"","","","","","image-keyboard-response","379","426427","0.0-19.0-0.2-1.15","vltfzv8gue","","vltfzv8gue","""2024-11-14T16:10:18.985Z""","1163","materials/imgs/D66.png","arrowright","","[""materials/imgs/D51.png"",""materials/imgs/D3.png""]","false","random","","",""
"","","","","","html-keyboard-response","380","426928","0.0-19.0-0.2-0.16","vltfzv8gue","","vltfzv8gue","""2024-11-14T16:10:18.985Z""","null","+","null","","","","","","",""
"","","","","","image-keyboard-response","381","427690","0.0-19.0-0.2-1.16","vltfzv8gue","","vltfzv8gue","""2024-11-14T16:10:18.985Z""","760","materials/imgs/D53.png","arrowleft","","[""materials/imgs/D34.png"",""materials/imgs/D26.png""]","false","random","","",""
"","","","","","html-keyboard-response","382","428191","0.0-19.0-0.2-0.17","vltfzv8gue","","vltfzv8gue","""2024-11-14T16:10:18.985Z""","null","+","null","","","","","","",""
"","","","","","image-keyboard-response","383","428991","0.0-19.0-0.2-1.17","vltfzv8gue","","vltfzv8gue","""2024-11-14T16:10:18.985Z""","799","materials/imgs/D64.png","arrowright","","[""materials/imgs/D6.png"",""materials/imgs/D76.png""]","false","random","","",""
"","","","","","html-keyboard-response","384","429492","0.0-19.0-0.2-0.18","vltfzv8gue","","vltfzv8gue","""2024-11-14T16:10:18.985Z""","null","+","null","","","","","","",""
"","","","","","image-keyboard-response","385","430156","0.0-19.0-0.2-1.18","vltfzv8gue","","vltfzv8gue","""2024-11-14T16:10:18.985Z""","662","materials/imgs/D3.png","arrowleft","","[""materials/imgs/D77.png"",""materials/imgs/D64.png""]","false","random","","",""
"","","","","","html-keyboard-response","386","430657","0.0-19.0-0.2-0.19","vltfzv8gue","","vltfzv8gue","""2024-11-14T16:10:18.985Z""","null","+","null","","","","","","",""
"","","","","","image-keyboard-response","387","431555","0.0-19.0-0.2-1.19","vltfzv8gue","","vltfzv8gue","""2024-11-14T16:10:18.985Z""","897","materials/imgs/D37.png","arrowleft","","[""materials/imgs/D9.png"",""materials/imgs/D96.png""]","false","random","","",""
"","","","","","html-keyboard-response","388","432056","0.0-19.0-0.2-0.20","vltfzv8gue","","vltfzv8gue","""2024-11-14T16:10:18.985Z""","null","+","null","","","","","","",""
"","","","","","image-keyboard-response","389","432914","0.0-19.0-0.2-1.20","vltfzv8gue","","vltfzv8gue","""2024-11-14T16:10:18.985Z""","857","materials/imgs/D55.png","arrowright","","[""materials/imgs/D51.png"",""materials/imgs/D106.png""]","false","random","","",""
"","","","","","html-keyboard-response","390","433414","0.0-19.0-1.2-0.2","vltfzv8gue","","vltfzv8gue","""2024-11-14T16:10:18.985Z""","null","+","null","","","","","","",""
"","","","","","image-keyboard-response","391","434286","0.0-19.0-1.2-1.2","vltfzv8gue","","vltfzv8gue","""2024-11-14T16:10:18.985Z""","871","materials/imgs/D78.png","arrowright","","[""materials/imgs/D76.png"",""materials/imgs/D78.png""]","","check","materials/imgs/D78.png","1","true"
"","","","","","html-keyboard-response","392","434788","0.0-19.0-2.2-0.4","vltfzv8gue","","vltfzv8gue","""2024-11-14T16:10:18.985Z""","null","+","null","","","","","","",""
"","","","","","image-keyboard-response","393","436133","0.0-19.0-2.2-1.4","vltfzv8gue","","vltfzv8gue","""2024-11-14T16:10:18.985Z""","1343","materials/imgs/D48.png","arrowleft","","[""materials/imgs/D4.png"",""materials/imgs/D37.png""]","false","validation","","",""
"","","","","","html-keyboard-response","394","436634","0.0-19.0-2.2-0.5","vltfzv8gue","","vltfzv8gue","""2024-11-14T16:10:18.985Z""","null","+","null","","","","","","",""
"","","","","","image-keyboard-response","395","437576","0.0-19.0-2.2-1.5","vltfzv8gue","","vltfzv8gue","""2024-11-14T16:10:18.985Z""","942","materials/imgs/D36.png","arrowright","","[""materials/imgs/D47.png"",""materials/imgs/D49.png""]","false","validation","","",""
"","","","","","html-keyboard-response","396","438078","0.0-19.0-0.3-0.21","vltfzv8gue","","vltfzv8gue","""2024-11-14T16:10:18.985Z""","null","+","null","","","","","","",""
"","","","","","image-keyboard-response","397","438899","0.0-19.0-0.3-1.21","vltfzv8gue","","vltfzv8gue","""2024-11-14T16:10:18.985Z""","820","materials/imgs/D19.png","arrowright","","[""materials/imgs/D47.png"",""materials/imgs/D66.png""]","false","random","","",""
"","","","","","html-keyboard-response","398","439401","0.0-19.0-0.3-0.22","vltfzv8gue","","vltfzv8gue","""2024-11-14T16:10:18.985Z""","null","+","null","","","","","","",""
"","","","","","image-keyboard-response","399","440400","0.0-19.0-0.3-1.22","vltfzv8gue","","vltfzv8gue","""2024-11-14T16:10:18.985Z""","998","materials/imgs/D111.png","arrowleft","","[""materials/imgs/D77.png"",""materials/imgs/D85.png""]","false","random","","",""
"","","","","","html-keyboard-response","400","440901","0.0-19.0-0.3-0.23","vltfzv8gue","","vltfzv8gue","""2024-11-14T16:10:18.985Z""","null","+","null","","","","","","",""
"","","","","","image-keyboard-response","401","441616","0.0-19.0-0.3-1.23","vltfzv8gue","","vltfzv8gue","""2024-11-14T16:10:18.985Z""","714","materials/imgs/D16.png","arrowright","","[""materials/imgs/D55.png"",""materials/imgs/D6.png""]","false","random","","",""
"","","","","","html-keyboard-response","402","442117","0.0-19.0-0.3-0.24","vltfzv8gue","","vltfzv8gue","""2024-11-14T16:10:18.985Z""","null","+","null","","","","","","",""
"","","","","","image-keyboard-response","403","442753","0.0-19.0-0.3-1.24","vltfzv8gue","","vltfzv8gue","""2024-11-14T16:10:18.985Z""","635","materials/imgs/D17.png","arrowright","","[""materials/imgs/D78.png"",""materials/imgs/D16.png""]","false","random","","",""
"","","","","","html-keyboard-response","404","443254","0.0-19.0-0.3-0.25","vltfzv8gue","","vltfzv8gue","""2024-11-14T16:10:18.985Z""","null","+","null","","","","","","",""
"","","","","","image-keyboard-response","405","444751","0.0-19.0-0.3-1.25","vltfzv8gue","","vltfzv8gue","""2024-11-14T16:10:18.985Z""","1495","materials/imgs/D95.png","arrowright","","[""materials/imgs/D9.png"",""materials/imgs/D46.png""]","false","random","","",""
"","","","","","html-keyboard-response","406","445252","0.0-19.0-0.3-0.26","vltfzv8gue","","vltfzv8gue","""2024-11-14T16:10:18.985Z""","null","+","null","","","","","","",""
"","","","","","image-keyboard-response","407","446068","0.0-19.0-0.3-1.26","vltfzv8gue","","vltfzv8gue","""2024-11-14T16:10:18.985Z""","815","materials/imgs/D106.png","arrowleft","","[""materials/imgs/D4.png"",""materials/imgs/D74.png""]","false","random","","",""
"","","","","","html-keyboard-response","408","446569","0.0-19.0-0.3-0.27","vltfzv8gue","","vltfzv8gue","""2024-11-14T16:10:18.985Z""","null","+","null","","","","","","",""
"","","","","","image-keyboard-response","409","447996","0.0-19.0-0.3-1.27","vltfzv8gue","","vltfzv8gue","""2024-11-14T16:10:18.985Z""","1425","materials/imgs/D26.png","arrowright","","[""materials/imgs/D37.png"",""materials/imgs/D83.png""]","false","random","","",""
"","","","","","html-keyboard-response","410","448496","0.0-19.0-1.3-0.3","vltfzv8gue","","vltfzv8gue","""2024-11-14T16:10:18.985Z""","null","+","null","","","","","","",""
"","","","","","image-keyboard-response","411","449284","0.0-19.0-1.3-1.3","vltfzv8gue","","vltfzv8gue","""2024-11-14T16:10:18.985Z""","786","materials/imgs/D26.png","arrowleft","","[""materials/imgs/D26.png"",""materials/imgs/D46.png""]","","check","materials/imgs/D26.png","0","true"
"","","","","","html-keyboard-response","412","449785","0.0-19.0-2.3-0.6","vltfzv8gue","","vltfzv8gue","""2024-11-14T16:10:18.985Z""","null","+","null","","","","","","",""
"","","","","","image-keyboard-response","413","450968","0.0-19.0-2.3-1.6","vltfzv8gue","","vltfzv8gue","""2024-11-14T16:10:18.985Z""","1182","materials/imgs/D20.png","arrowright","","[""materials/imgs/D84.png"",""materials/imgs/D85.png""]","false","validation","","",""
"","","","","","html-keyboard-response","414","451470","0.0-19.0-2.3-0.7","vltfzv8gue","","vltfzv8gue","""2024-11-14T16:10:18.985Z""","null","+","null","","","","","","",""
"","","","","","image-keyboard-response","415","452866","0.0-19.0-2.3-1.7","vltfzv8gue","","vltfzv8gue","""2024-11-14T16:10:18.985Z""","1395","materials/imgs/D65.png","arrowright","","[""materials/imgs/D4.png"",""materials/imgs/D16.png""]","false","validation","","",""
"","","","","","html-keyboard-response","416","453367","0.0-19.0-0.4-0.28","vltfzv8gue","","vltfzv8gue","""2024-11-14T16:10:18.985Z""","null","+","null","","","","","","",""
"","","","","","image-keyboard-response","417","454373","0.0-19.0-0.4-1.28","vltfzv8gue","","vltfzv8gue","""2024-11-14T16:10:18.985Z""","1005","materials/imgs/D18.png","arrowleft","","[""materials/imgs/D20.png"",""materials/imgs/D16.png""]","false","random","","",""
"","","","","","html-keyboard-response","418","454874","0.0-19.0-0.4-0.29","vltfzv8gue","","vltfzv8gue","""2024-11-14T16:10:18.985Z""","null","+","null","","","","","","",""
"","","","","","image-keyboard-response","419","457874","0.0-19.0-0.4-1.29","vltfzv8gue","","vltfzv8gue","""2024-11-14T16:10:18.985Z""","2998","materials/imgs/D65.png","arrowright","","[""materials/imgs/D53.png"",""materials/imgs/D3.png""]","false","random","","",""
"","","","","","html-keyboard-response","420","458376","0.0-19.0-0.4-0.30","vltfzv8gue","","vltfzv8gue","""2024-11-14T16:10:18.985Z""","null","+","null","","","","","","",""
"","","","","","image-keyboard-response","421","460893","0.0-19.0-0.4-1.30","vltfzv8gue","","vltfzv8gue","""2024-11-14T16:10:18.985Z""","2516","materials/imgs/D111.png","arrowright","","[""materials/imgs/D78.png"",""materials/imgs/D19.png""]","false","random","","",""
"","","","","","html-keyboard-response","422","461394","0.0-19.0-0.4-0.31","vltfzv8gue","","vltfzv8gue","""2024-11-14T16:10:18.985Z""","null","+","null","","","","","","",""
"","","","","","image-keyboard-response","423","462106","0.0-19.0-0.4-1.31","vltfzv8gue","","vltfzv8gue","""2024-11-14T16:10:18.985Z""","710","materials/imgs/D34.png","arrowright","","[""materials/imgs/D75.png"",""materials/imgs/D22.png""]","false","random","","",""
"","","","","","html-keyboard-response","424","462607","0.0-19.0-0.4-0.32","vltfzv8gue","","vltfzv8gue","""2024-11-14T16:10:18.985Z""","null","+","null","","","","","","",""
"","","","","","image-keyboard-response","425","464297","0.0-19.0-0.4-1.32","vltfzv8gue","","vltfzv8gue","""2024-11-14T16:10:18.985Z""","1689","materials/imgs/D105.png","arrowleft","","[""materials/imgs/D68.png"",""materials/imgs/D82.png""]","false","random","","",""
"","","","","","html-keyboard-response","426","464799","0.0-19.0-0.4-0.33","vltfzv8gue","","vltfzv8gue","""2024-11-14T16:10:18.985Z""","null","+","null","","","","","","",""
"","","","","","image-keyboard-response","427","466314","0.0-19.0-0.4-1.33","vltfzv8gue","","vltfzv8gue","""2024-11-14T16:10:18.985Z""","1514","materials/imgs/D81.png","arrowright","","[""materials/imgs/D74.png"",""materials/imgs/D4.png""]","false","random","","",""
"","","","","","html-keyboard-response","428","466815","0.0-19.0-0.4-0.34","vltfzv8gue","","vltfzv8gue","""2024-11-14T16:10:18.985Z""","null","+","null","","","","","","",""
"","","","","","image-keyboard-response","429","468150","0.0-19.0-0.4-1.34","vltfzv8gue","","vltfzv8gue","""2024-11-14T16:10:18.985Z""","1333","materials/imgs/D46.png","arrowright","","[""materials/imgs/D32.png"",""materials/imgs/D20.png""]","false","random","","",""
"","","","","","html-keyboard-response","430","468650","0.0-19.0-1.4-0.4","vltfzv8gue","","vltfzv8gue","""2024-11-14T16:10:18.985Z""","null","+","null","","","","","","",""
"","","","","","image-keyboard-response","431","469791","0.0-19.0-1.4-1.4","vltfzv8gue","","vltfzv8gue","""2024-11-14T16:10:18.985Z""","1139","materials/imgs/D64.png","arrowleft","","[""materials/imgs/D64.png"",""materials/imgs/D53.png""]","","check","materials/imgs/D64.png","0","true"
"","","","","","html-keyboard-response","432","470292","0.0-19.0-2.4-0.8","vltfzv8gue","","vltfzv8gue","""2024-11-14T16:10:18.985Z""","null","+","null","","","","","","",""
"","","","","","image-keyboard-response","433","471670","0.0-19.0-2.4-1.8","vltfzv8gue","","vltfzv8gue","""2024-11-14T16:10:18.985Z""","1378","materials/imgs/D103.png","arrowleft","","[""materials/imgs/D76.png"",""materials/imgs/D106.png""]","false","validation","","",""
"","","","","","html-keyboard-response","434","472172","0.0-19.0-2.4-0.9","vltfzv8gue","","vltfzv8gue","""2024-11-14T16:10:18.985Z""","null","+","null","","","","","","",""
"","","","","","image-keyboard-response","435","472997","0.0-19.0-2.4-1.9","vltfzv8gue","","vltfzv8gue","""2024-11-14T16:10:18.985Z""","823","materials/imgs/D20.png","arrowleft","","[""materials/imgs/D84.png"",""materials/imgs/D85.png""]","false","validation","","",""
