"success","timeout","failed_images","failed_audio","failed_video","trial_type","trial_index","time_elapsed","internal_node_id","subject_id","sona_id","subjectID","dateInfo","rt","stimulus","response","question_order","choices","speedy","sampleAlg","selected_image","selected_index","correct"
"true","false","[]","[]","[]","preload","0","324","0.0-0.0","wlf073jz6j","","wlf073jz6j","""2024-11-12T18:14:00.728Z""","","","","","","","","","",""
"true","","","","","fullscreen","1","3344","0.0-1.0","wlf073jz6j","","wlf073jz6j","""2024-11-12T18:14:00.728Z""","","","","","","","","","",""
"","","","","","html-keyboard-response","2","3357","0.0-2.0","wlf073jz6j","","wlf073jz6j","""2024-11-12T18:14:00.728Z""","null","","null","","","","","","",""
"","","","","","html-button-response","3","4757","0.0-3.0","wlf073jz6j","","wlf073jz6j","""2024-11-12T18:14:00.728Z""","1398","<div style='text-align:center; font-size:20px; line-height:25px; width: 1200px;'>
                Welcome to our experiment! <br>
                <br>At the bottom of this screen, you will see a button that says 'Begin Experiment.
                <br>Please only click that button when you are ready to complete the 25 minute experiment in one sitting. <br>
                <br> Once you click that button, it will not be possible to restart the experiment. <br><br>","0","","","","","","",""
"true","","","","","fullscreen","4","16976","0.0-4.0","wlf073jz6j","","wlf073jz6j","""2024-11-12T18:14:00.728Z""","","","","","","","","","",""
"","","","","","survey-multi-select","5","31863","0.0-5.0","wlf073jz6j","","wlf073jz6j","""2024-11-12T18:14:00.728Z""","14882","","{""Consent"":[""<strong>I consent</strong>""]}","[0]","","","","","",""
"","","","","","html-button-response","6","36003","0.0-6.0","wlf073jz6j","","wlf073jz6j","""2024-11-12T18:14:00.728Z""","4138","Welcome! <p> This experiment involves two parts: demographic information, followed by the experimental task.<p> It will take about 25 minutes to complete both parts.","0","","","","","","",""
"","","","","","survey-text","7","41517","0.0-7.0","wlf073jz6j","","wlf073jz6j","""2024-11-12T18:14:00.728Z""","5510","","{""Age"":""18"",""Gender"":""male"",""Race/ethnicity"":""white""}","","","","","","",""
"","","","","","html-button-response","8","58168","0.0-8.0","wlf073jz6j","","wlf073jz6j","""2024-11-12T18:14:00.728Z""","16649","<div style='text-align: center;'>
      <p>In each trial of this task, you will see three texture images: one target item on top, and two choices beneath the target item.</p>
      <p><strong>Please select the item that is most like the target item.</strong></p>
      <p>To select the option on the <strong>LEFT</strong>, press the <strong>LEFT ARROW</strong> key. 
      To select the option on the <strong>RIGHT</strong>, press the <strong>RIGHT ARROW</strong> key.</p>
                  <!-- Target Image at the Top -->
      <div style='margin: 20px;'>
        <img src='materials/imgs/instruction_images/InstructionImg1D78.png' alt='Target Image' style='width:200px; height:auto;' />
        <p><em>Target Image</em></p>
      </div>

      <!-- Two Choice Images Below -->
      <div style='display: flex; justify-content: center;'>
        <div style='margin-right: 50px;'>
          <img src='materials/imgs/instruction_images/InstructionImg2D34.png' alt='Choice Image 1' style='width:150px; height:auto;' />
          <p><em><strong>LEFT ARROW</strong></em></p>
        </div>
        <div style='margin-left: 50px;'>
          <img src='materials/imgs/instruction_images/InstructionImg3D80.png' alt='Choice Image 2' style='width:150px; height:auto;' />
          <p><em><strong>RIGHT ARROW</strong></em></p>
        </div>
      </div>
    </div>

      <p>When you are ready to proceed, please click 'Continue' to begin practice.</p>","0","","","","","","",""
"","","","","","html-keyboard-response","9","60673","0.0-9.0","wlf073jz6j","","wlf073jz6j","""2024-11-12T18:14:00.728Z""","null","+","null","","","","","","",""
"","","","","","html-keyboard-response","10","61175","0.0-10.0-0.0-0.0","wlf073jz6j","","wlf073jz6j","""2024-11-12T18:14:00.728Z""","null","+","null","","","","","","",""
"","","","","","image-keyboard-response","11","62709","0.0-10.0-0.0-1.0","wlf073jz6j","","wlf073jz6j","""2024-11-12T18:14:00.728Z""","1529","materials/imgs/D1.png","arrowleft","","[""materials/imgs/D68.png"",""materials/imgs/D34.png""]","false","random","","",""
"","","","","","html-keyboard-response","12","63211","0.0-10.0-0.0-0.1","wlf073jz6j","","wlf073jz6j","""2024-11-12T18:14:00.728Z""","null","+","null","","","","","","",""
"","","","","","image-keyboard-response","13","64317","0.0-10.0-0.0-1.1","wlf073jz6j","","wlf073jz6j","""2024-11-12T18:14:00.728Z""","1103","materials/imgs/D102.png","arrowleft","","[""materials/imgs/D46.png"",""materials/imgs/D29.png""]","false","random","","",""
"","","","","","html-keyboard-response","14","64818","0.0-10.0-0.0-0.2","wlf073jz6j","","wlf073jz6j","""2024-11-12T18:14:00.728Z""","null","+","null","","","","","","",""
"","","","","","image-keyboard-response","15","65617","0.0-10.0-0.0-1.2","wlf073jz6j","","wlf073jz6j","""2024-11-12T18:14:00.728Z""","797","materials/imgs/D95.png","arrowright","","[""materials/imgs/D14.png"",""materials/imgs/D82.png""]","false","random","","",""
"","","","","","html-keyboard-response","16","66119","0.0-10.0-0.0-0.3","wlf073jz6j","","wlf073jz6j","""2024-11-12T18:14:00.728Z""","null","+","null","","","","","","",""
"","","","","","image-keyboard-response","17","67233","0.0-10.0-0.0-1.3","wlf073jz6j","","wlf073jz6j","""2024-11-12T18:14:00.728Z""","1111","materials/imgs/D29.png","arrowright","","[""materials/imgs/D96.png"",""materials/imgs/D46.png""]","false","random","","",""
"","","","","","html-keyboard-response","18","67734","0.0-10.0-0.0-0.4","wlf073jz6j","","wlf073jz6j","""2024-11-12T18:14:00.728Z""","null","+","null","","","","","","",""
"","","","","","image-keyboard-response","19","68739","0.0-10.0-0.0-1.4","wlf073jz6j","","wlf073jz6j","""2024-11-12T18:14:00.728Z""","1005","materials/imgs/D66.png","arrowright","","[""materials/imgs/D80.png"",""materials/imgs/D81.png""]","false","random","","",""
"","","","","","html-keyboard-response","20","69241","0.0-10.0-0.0-0.5","wlf073jz6j","","wlf073jz6j","""2024-11-12T18:14:00.728Z""","null","+","null","","","","","","",""
"","","","","","image-keyboard-response","21","69960","0.0-10.0-0.0-1.5","wlf073jz6j","","wlf073jz6j","""2024-11-12T18:14:00.728Z""","717","materials/imgs/D94.png","arrowleft","","[""materials/imgs/D64.png"",""materials/imgs/D55.png""]","false","random","","",""
"","","","","","html-keyboard-response","22","70462","0.0-10.0-0.0-0.6","wlf073jz6j","","wlf073jz6j","""2024-11-12T18:14:00.728Z""","null","+","null","","","","","","",""
"","","","","","image-keyboard-response","23","71516","0.0-10.0-0.0-1.6","wlf073jz6j","","wlf073jz6j","""2024-11-12T18:14:00.728Z""","1051","materials/imgs/D6.png","arrowright","","[""materials/imgs/D26.png"",""materials/imgs/D78.png""]","false","random","","",""
"","","","","","html-keyboard-response","24","72018","0.0-10.0-0.0-0.7","wlf073jz6j","","wlf073jz6j","""2024-11-12T18:14:00.728Z""","null","+","null","","","","","","",""
"","","","","","image-keyboard-response","25","72931","0.0-10.0-0.0-1.7","wlf073jz6j","","wlf073jz6j","""2024-11-12T18:14:00.728Z""","911","materials/imgs/D82.png","arrowleft","","[""materials/imgs/D81.png"",""materials/imgs/D3.png""]","false","random","","",""
"","","","","","html-keyboard-response","26","73432","0.0-10.0-0.0-0.8","wlf073jz6j","","wlf073jz6j","""2024-11-12T18:14:00.728Z""","null","+","null","","","","","","",""
"","","","","","image-keyboard-response","27","74451","0.0-10.0-0.0-1.8","wlf073jz6j","","wlf073jz6j","""2024-11-12T18:14:00.728Z""","1016","materials/imgs/D3.png","arrowright","","[""materials/imgs/D104.png"",""materials/imgs/D22.png""]","false","random","","",""
"","","","","","html-keyboard-response","28","74953","0.0-10.0-0.0-0.9","wlf073jz6j","","wlf073jz6j","""2024-11-12T18:14:00.728Z""","null","+","null","","","","","","",""
"","","","","","image-keyboard-response","29","76538","0.0-10.0-0.0-1.9","wlf073jz6j","","wlf073jz6j","""2024-11-12T18:14:00.728Z""","1583","materials/imgs/D78.png","arrowleft","","[""materials/imgs/D103.png"",""materials/imgs/D8.png""]","false","random","","",""
"","","","","","html-button-response","30","78292","0.0-11.0","wlf073jz6j","","wlf073jz6j","""2024-11-12T18:14:00.728Z""","1753","<p>Great job!</p>
      <p>You are now ready to begin the experiment.</p>
      <p>There will be around 200 trials. You will have opportunities to take breaks at three stages of the trials.</p>
      <p>When you are ready to begin please click 'Continue'.</p>","0","","","","","","",""
"","","","","","html-keyboard-response","31","80796","0.0-12.0","wlf073jz6j","","wlf073jz6j","""2024-11-12T18:14:00.728Z""","null","+","null","","","","","","",""
"","","","","","html-keyboard-response","32","81299","0.0-13.0-0.0-0.0","wlf073jz6j","","wlf073jz6j","""2024-11-12T18:14:00.728Z""","null","+","null","","","","","","",""
"","","","","","image-keyboard-response","33","82043","0.0-13.0-0.0-1.0","wlf073jz6j","","wlf073jz6j","""2024-11-12T18:14:00.728Z""","742","materials/imgs/D64.png","arrowright","","[""materials/imgs/D9.png"",""materials/imgs/D95.png""]","false","random","","",""
"","","","","","html-keyboard-response","34","82546","0.0-13.0-0.0-0.1","wlf073jz6j","","wlf073jz6j","""2024-11-12T18:14:00.728Z""","null","+","null","","","","","","",""
"","","","","","image-keyboard-response","35","83619","0.0-13.0-0.0-1.1","wlf073jz6j","","wlf073jz6j","""2024-11-12T18:14:00.728Z""","1071","materials/imgs/D92.png","arrowleft","","[""materials/imgs/D81.png"",""materials/imgs/D8.png""]","false","random","","",""
"","","","","","html-keyboard-response","36","84121","0.0-13.0-0.0-0.2","wlf073jz6j","","wlf073jz6j","""2024-11-12T18:14:00.728Z""","null","+","null","","","","","","",""
"","","","","","image-keyboard-response","37","85027","0.0-13.0-0.0-1.2","wlf073jz6j","","wlf073jz6j","""2024-11-12T18:14:00.728Z""","904","materials/imgs/D78.png","arrowleft","","[""materials/imgs/D9.png"",""materials/imgs/D80.png""]","false","random","","",""
"","","","","","html-keyboard-response","38","85528","0.0-13.0-0.0-0.3","wlf073jz6j","","wlf073jz6j","""2024-11-12T18:14:00.728Z""","null","+","null","","","","","","",""
"","","","","","image-keyboard-response","39","86462","0.0-13.0-0.0-1.3","wlf073jz6j","","wlf073jz6j","""2024-11-12T18:14:00.728Z""","932","materials/imgs/D85.png","arrowleft","","[""materials/imgs/D78.png"",""materials/imgs/D80.png""]","false","random","","",""
"","","","","","html-keyboard-response","40","86964","0.0-13.0-0.0-0.4","wlf073jz6j","","wlf073jz6j","""2024-11-12T18:14:00.728Z""","null","+","null","","","","","","",""
"","","","","","image-keyboard-response","41","88228","0.0-13.0-0.0-1.4","wlf073jz6j","","wlf073jz6j","""2024-11-12T18:14:00.728Z""","1262","materials/imgs/D64.png","arrowleft","","[""materials/imgs/D96.png"",""materials/imgs/D51.png""]","false","random","","",""
"","","","","","html-keyboard-response","42","88729","0.0-13.0-0.0-0.5","wlf073jz6j","","wlf073jz6j","""2024-11-12T18:14:00.728Z""","null","+","null","","","","","","",""
"","","","","","image-keyboard-response","43","89579","0.0-13.0-0.0-1.5","wlf073jz6j","","wlf073jz6j","""2024-11-12T18:14:00.728Z""","848","materials/imgs/D92.png","arrowright","","[""materials/imgs/D32.png"",""materials/imgs/D29.png""]","false","random","","",""
"","","","","","html-keyboard-response","44","90081","0.0-13.0-0.0-0.6","wlf073jz6j","","wlf073jz6j","""2024-11-12T18:14:00.728Z""","null","+","null","","","","","","",""
"","","","","","image-keyboard-response","45","91202","0.0-13.0-0.0-1.6","wlf073jz6j","","wlf073jz6j","""2024-11-12T18:14:00.728Z""","1119","materials/imgs/D106.png","arrowleft","","[""materials/imgs/D92.png"",""materials/imgs/D64.png""]","false","random","","",""
"","","","","","html-keyboard-response","46","91703","0.0-13.0-1.0-0.0","wlf073jz6j","","wlf073jz6j","""2024-11-12T18:14:00.728Z""","null","+","null","","","","","","",""
"","","","","","image-keyboard-response","47","92394","0.0-13.0-1.0-1.0","wlf073jz6j","","wlf073jz6j","""2024-11-12T18:14:00.728Z""","689","materials/imgs/D8.png","arrowright","","[""materials/imgs/D18.png"",""materials/imgs/D8.png""]","","check","materials/imgs/D8.png","1","true"
"","","","","","html-keyboard-response","48","92895","0.0-13.0-2.0-0.0","wlf073jz6j","","wlf073jz6j","""2024-11-12T18:14:00.728Z""","null","+","null","","","","","","",""
"","","","","","image-keyboard-response","49","94088","0.0-13.0-2.0-1.0","wlf073jz6j","","wlf073jz6j","""2024-11-12T18:14:00.728Z""","1190","materials/imgs/D49.png","arrowright","","[""materials/imgs/D8.png"",""materials/imgs/D101.png""]","false","validation","","",""
"","","","","","html-keyboard-response","50","94590","0.0-13.0-2.0-0.1","wlf073jz6j","","wlf073jz6j","""2024-11-12T18:14:00.728Z""","null","+","null","","","","","","",""
"","","","","","image-keyboard-response","51","96159","0.0-13.0-2.0-1.1","wlf073jz6j","","wlf073jz6j","""2024-11-12T18:14:00.728Z""","1567","materials/imgs/D65.png","arrowleft","","[""materials/imgs/D4.png"",""materials/imgs/D16.png""]","false","validation","","",""
"","","","","","html-keyboard-response","52","96660","0.0-13.0-0.1-0.7","wlf073jz6j","","wlf073jz6j","""2024-11-12T18:14:00.728Z""","null","+","null","","","","","","",""
"","","","","","image-keyboard-response","53","97534","0.0-13.0-0.1-1.7","wlf073jz6j","","wlf073jz6j","""2024-11-12T18:14:00.728Z""","872","materials/imgs/D95.png","arrowleft","","[""materials/imgs/D56.png"",""materials/imgs/D77.png""]","false","random","","",""
"","","","","","html-keyboard-response","54","98035","0.0-13.0-0.1-0.8","wlf073jz6j","","wlf073jz6j","""2024-11-12T18:14:00.728Z""","null","+","null","","","","","","",""
"","","","","","image-keyboard-response","55","98760","0.0-13.0-0.1-1.8","wlf073jz6j","","wlf073jz6j","""2024-11-12T18:14:00.728Z""","723","materials/imgs/D94.png","arrowright","","[""materials/imgs/D77.png"",""materials/imgs/D35.png""]","false","random","","",""
"","","","","","html-keyboard-response","56","99261","0.0-13.0-0.1-0.9","wlf073jz6j","","wlf073jz6j","""2024-11-12T18:14:00.728Z""","null","+","null","","","","","","",""
"","","","","","image-keyboard-response","57","100782","0.0-13.0-0.1-1.9","wlf073jz6j","","wlf073jz6j","""2024-11-12T18:14:00.728Z""","1518","materials/imgs/D18.png","arrowleft","","[""materials/imgs/D53.png"",""materials/imgs/D76.png""]","false","random","","",""
"","","","","","html-keyboard-response","58","101283","0.0-13.0-0.1-0.10","wlf073jz6j","","wlf073jz6j","""2024-11-12T18:14:00.728Z""","null","+","null","","","","","","",""
"","","","","","image-keyboard-response","59","102537","0.0-13.0-0.1-1.10","wlf073jz6j","","wlf073jz6j","""2024-11-12T18:14:00.728Z""","1251","materials/imgs/D111.png","arrowleft","","[""materials/imgs/D56.png"",""materials/imgs/D34.png""]","false","random","","",""
"","","","","","html-keyboard-response","60","103038","0.0-13.0-0.1-0.11","wlf073jz6j","","wlf073jz6j","""2024-11-12T18:14:00.728Z""","null","+","null","","","","","","",""
"","","","","","image-keyboard-response","61","104082","0.0-13.0-0.1-1.11","wlf073jz6j","","wlf073jz6j","""2024-11-12T18:14:00.728Z""","1042","materials/imgs/D35.png","arrowleft","","[""materials/imgs/D6.png"",""materials/imgs/D95.png""]","false","random","","",""
"","","","","","html-keyboard-response","62","104584","0.0-13.0-0.1-0.12","wlf073jz6j","","wlf073jz6j","""2024-11-12T18:14:00.728Z""","null","+","null","","","","","","",""
"","","","","","image-keyboard-response","63","105567","0.0-13.0-0.1-1.12","wlf073jz6j","","wlf073jz6j","""2024-11-12T18:14:00.728Z""","981","materials/imgs/D76.png","arrowright","","[""materials/imgs/D102.png"",""materials/imgs/D57.png""]","false","random","","",""
"","","","","","html-keyboard-response","64","106067","0.0-13.0-0.1-0.13","wlf073jz6j","","wlf073jz6j","""2024-11-12T18:14:00.728Z""","null","+","null","","","","","","",""
"","","","","","image-keyboard-response","65","107192","0.0-13.0-0.1-1.13","wlf073jz6j","","wlf073jz6j","""2024-11-12T18:14:00.728Z""","1123","materials/imgs/D37.png","arrowleft","","[""materials/imgs/D81.png"",""materials/imgs/D34.png""]","false","random","","",""
"","","","","","html-keyboard-response","66","107694","0.0-13.0-1.1-0.1","wlf073jz6j","","wlf073jz6j","""2024-11-12T18:14:00.728Z""","null","+","null","","","","","","",""
"","","","","","image-keyboard-response","67","108268","0.0-13.0-1.1-1.1","wlf073jz6j","","wlf073jz6j","""2024-11-12T18:14:00.728Z""","573","materials/imgs/D53.png","arrowright","","[""materials/imgs/D64.png"",""materials/imgs/D53.png""]","","check","materials/imgs/D53.png","1","true"
"","","","","","html-keyboard-response","68","108769","0.0-13.0-2.1-0.2","wlf073jz6j","","wlf073jz6j","""2024-11-12T18:14:00.728Z""","null","+","null","","","","","","",""
"","","","","","image-keyboard-response","69","110322","0.0-13.0-2.1-1.2","wlf073jz6j","","wlf073jz6j","""2024-11-12T18:14:00.728Z""","1551","materials/imgs/D48.png","arrowright","","[""materials/imgs/D4.png"",""materials/imgs/D37.png""]","false","validation","","",""
"","","","","","html-keyboard-response","70","110823","0.0-13.0-2.1-0.3","wlf073jz6j","","wlf073jz6j","""2024-11-12T18:14:00.728Z""","null","+","null","","","","","","",""
"","","","","","image-keyboard-response","71","111991","0.0-13.0-2.1-1.3","wlf073jz6j","","wlf073jz6j","""2024-11-12T18:14:00.728Z""","1166","materials/imgs/D84.png","arrowright","","[""materials/imgs/D106.png"",""materials/imgs/D37.png""]","false","validation","","",""
"","","","","","html-keyboard-response","72","112492","0.0-13.0-0.2-0.14","wlf073jz6j","","wlf073jz6j","""2024-11-12T18:14:00.728Z""","null","+","null","","","","","","",""
"","","","","","image-keyboard-response","73","113698","0.0-13.0-0.2-1.14","wlf073jz6j","","wlf073jz6j","""2024-11-12T18:14:00.728Z""","1204","materials/imgs/D68.png","arrowleft","","[""materials/imgs/D76.png"",""materials/imgs/D3.png""]","false","random","","",""
"","","","","","html-keyboard-response","74","114199","0.0-13.0-0.2-0.15","wlf073jz6j","","wlf073jz6j","""2024-11-12T18:14:00.728Z""","null","+","null","","","","","","",""
"","","","","","image-keyboard-response","75","114904","0.0-13.0-0.2-1.15","wlf073jz6j","","wlf073jz6j","""2024-11-12T18:14:00.728Z""","702","materials/imgs/D78.png","arrowright","","[""materials/imgs/D74.png"",""materials/imgs/D76.png""]","false","random","","",""
"","","","","","html-keyboard-response","76","115405","0.0-13.0-0.2-0.16","wlf073jz6j","","wlf073jz6j","""2024-11-12T18:14:00.728Z""","null","+","null","","","","","","",""
"","","","","","image-keyboard-response","77","116525","0.0-13.0-0.2-1.16","wlf073jz6j","","wlf073jz6j","""2024-11-12T18:14:00.728Z""","1118","materials/imgs/D101.png","arrowleft","","[""materials/imgs/D104.png"",""materials/imgs/D11.png""]","false","random","","",""
"","","","","","html-keyboard-response","78","117026","0.0-13.0-0.2-0.17","wlf073jz6j","","wlf073jz6j","""2024-11-12T18:14:00.728Z""","null","+","null","","","","","","",""
"","","","","","image-keyboard-response","79","118279","0.0-13.0-0.2-1.17","wlf073jz6j","","wlf073jz6j","""2024-11-12T18:14:00.728Z""","1250","materials/imgs/D16.png","arrowleft","","[""materials/imgs/D75.png"",""materials/imgs/D56.png""]","false","random","","",""
"","","","","","html-keyboard-response","80","118780","0.0-13.0-0.2-0.18","wlf073jz6j","","wlf073jz6j","""2024-11-12T18:14:00.728Z""","null","+","null","","","","","","",""
"","","","","","image-keyboard-response","81","119441","0.0-13.0-0.2-1.18","wlf073jz6j","","wlf073jz6j","""2024-11-12T18:14:00.728Z""","658","materials/imgs/D104.png","arrowright","","[""materials/imgs/D75.png"",""materials/imgs/D78.png""]","false","random","","",""
"","","","","","html-keyboard-response","82","119942","0.0-13.0-0.2-0.19","wlf073jz6j","","wlf073jz6j","""2024-11-12T18:14:00.728Z""","null","+","null","","","","","","",""
"","","","","","image-keyboard-response","83","121317","0.0-13.0-0.2-1.19","wlf073jz6j","","wlf073jz6j","""2024-11-12T18:14:00.728Z""","1373","materials/imgs/D81.png","arrowright","","[""materials/imgs/D74.png"",""materials/imgs/D18.png""]","false","random","","",""
"","","","","","html-keyboard-response","84","121819","0.0-13.0-0.2-0.20","wlf073jz6j","","wlf073jz6j","""2024-11-12T18:14:00.728Z""","null","+","null","","","","","","",""
"","","","","","image-keyboard-response","85","122837","0.0-13.0-0.2-1.20","wlf073jz6j","","wlf073jz6j","""2024-11-12T18:14:00.728Z""","1017","materials/imgs/D104.png","arrowright","","[""materials/imgs/D16.png"",""materials/imgs/D85.png""]","false","random","","",""
"","","","","","html-keyboard-response","86","123339","0.0-13.0-1.2-0.2","wlf073jz6j","","wlf073jz6j","""2024-11-12T18:14:00.728Z""","null","+","null","","","","","","",""
"","","","","","image-keyboard-response","87","123980","0.0-13.0-1.2-1.2","wlf073jz6j","","wlf073jz6j","""2024-11-12T18:14:00.728Z""","639","materials/imgs/D78.png","arrowright","","[""materials/imgs/D76.png"",""materials/imgs/D78.png""]","","check","materials/imgs/D78.png","1","true"
"","","","","","html-keyboard-response","88","124481","0.0-13.0-2.2-0.4","wlf073jz6j","","wlf073jz6j","""2024-11-12T18:14:00.728Z""","null","+","null","","","","","","",""
"","","","","","image-keyboard-response","89","125787","0.0-13.0-2.2-1.4","wlf073jz6j","","wlf073jz6j","""2024-11-12T18:14:00.728Z""","1304","materials/imgs/D3.png","arrowleft","","[""materials/imgs/D79.png"",""materials/imgs/D48.png""]","false","validation","","",""
"","","","","","html-keyboard-response","90","126289","0.0-13.0-2.2-0.5","wlf073jz6j","","wlf073jz6j","""2024-11-12T18:14:00.728Z""","null","+","null","","","","","","",""
"","","","","","image-keyboard-response","91","127240","0.0-13.0-2.2-1.5","wlf073jz6j","","wlf073jz6j","""2024-11-12T18:14:00.728Z""","949","materials/imgs/D25.png","arrowright","","[""materials/imgs/D103.png"",""materials/imgs/D64.png""]","false","validation","","",""
"","","","","","html-keyboard-response","92","127741","0.0-13.0-0.3-0.21","wlf073jz6j","","wlf073jz6j","""2024-11-12T18:14:00.728Z""","null","+","null","","","","","","",""
"","","","","","image-keyboard-response","93","128354","0.0-13.0-0.3-1.21","wlf073jz6j","","wlf073jz6j","""2024-11-12T18:14:00.728Z""","611","materials/imgs/D6.png","arrowright","","[""materials/imgs/D56.png"",""materials/imgs/D52.png""]","false","random","","",""
"","","","","","html-keyboard-response","94","128856","0.0-13.0-0.3-0.22","wlf073jz6j","","wlf073jz6j","""2024-11-12T18:14:00.728Z""","null","+","null","","","","","","",""
"","","","","","image-keyboard-response","95","129500","0.0-13.0-0.3-1.22","wlf073jz6j","","wlf073jz6j","""2024-11-12T18:14:00.728Z""","642","materials/imgs/D52.png","arrowleft","","[""materials/imgs/D49.png"",""materials/imgs/D56.png""]","false","random","","",""
"","","","","","html-keyboard-response","96","130001","0.0-13.0-0.3-0.23","wlf073jz6j","","wlf073jz6j","""2024-11-12T18:14:00.728Z""","null","+","null","","","","","","",""
"","","","","","image-keyboard-response","97","131226","0.0-13.0-0.3-1.23","wlf073jz6j","","wlf073jz6j","""2024-11-12T18:14:00.728Z""","1223","materials/imgs/D85.png","arrowright","","[""materials/imgs/D29.png"",""materials/imgs/D77.png""]","false","random","","",""
"","","","","","html-keyboard-response","98","131728","0.0-13.0-0.3-0.24","wlf073jz6j","","wlf073jz6j","""2024-11-12T18:14:00.728Z""","null","+","null","","","","","","",""
"","","","","","image-keyboard-response","99","134210","0.0-13.0-0.3-1.24","wlf073jz6j","","wlf073jz6j","""2024-11-12T18:14:00.728Z""","2481","materials/imgs/D79.png","arrowright","","[""materials/imgs/D111.png"",""materials/imgs/D29.png""]","false","random","","",""
"","","","","","html-keyboard-response","100","134711","0.0-13.0-0.3-0.25","wlf073jz6j","","wlf073jz6j","""2024-11-12T18:14:00.728Z""","null","+","null","","","","","","",""
"","","","","","image-keyboard-response","101","135762","0.0-13.0-0.3-1.25","wlf073jz6j","","wlf073jz6j","""2024-11-12T18:14:00.728Z""","1048","materials/imgs/D87.png","arrowleft","","[""materials/imgs/D103.png"",""materials/imgs/D75.png""]","false","random","","",""
"","","","","","html-keyboard-response","102","136263","0.0-13.0-0.3-0.26","wlf073jz6j","","wlf073jz6j","""2024-11-12T18:14:00.728Z""","null","+","null","","","","","","",""
"","","","","","image-keyboard-response","103","137117","0.0-13.0-0.3-1.26","wlf073jz6j","","wlf073jz6j","""2024-11-12T18:14:00.728Z""","852","materials/imgs/D79.png","arrowright","","[""materials/imgs/D9.png"",""materials/imgs/D104.png""]","false","random","","",""
"","","","","","html-keyboard-response","104","137618","0.0-13.0-0.3-0.27","wlf073jz6j","","wlf073jz6j","""2024-11-12T18:14:00.728Z""","null","+","null","","","","","","",""
"","","","","","image-keyboard-response","105","138230","0.0-13.0-0.3-1.27","wlf073jz6j","","wlf073jz6j","""2024-11-12T18:14:00.728Z""","610","materials/imgs/D76.png","arrowright","","[""materials/imgs/D75.png"",""materials/imgs/D53.png""]","false","random","","",""
"","","","","","html-keyboard-response","106","138732","0.0-13.0-1.3-0.3","wlf073jz6j","","wlf073jz6j","""2024-11-12T18:14:00.728Z""","null","+","null","","","","","","",""
"","","","","","image-keyboard-response","107","139297","0.0-13.0-1.3-1.3","wlf073jz6j","","wlf073jz6j","""2024-11-12T18:14:00.728Z""","563","materials/imgs/D18.png","arrowright","","[""materials/imgs/D8.png"",""materials/imgs/D18.png""]","","check","materials/imgs/D18.png","1","true"
"","","","","","html-keyboard-response","108","139798","0.0-13.0-2.3-0.6","wlf073jz6j","","wlf073jz6j","""2024-11-12T18:14:00.728Z""","null","+","null","","","","","","",""
"","","","","","image-keyboard-response","109","141033","0.0-13.0-2.3-1.6","wlf073jz6j","","wlf073jz6j","""2024-11-12T18:14:00.728Z""","1233","materials/imgs/D52.png","arrowleft","","[""materials/imgs/D9.png"",""materials/imgs/D19.png""]","false","validation","","",""
"","","","","","html-keyboard-response","110","141534","0.0-13.0-2.3-0.7","wlf073jz6j","","wlf073jz6j","""2024-11-12T18:14:00.728Z""","null","+","null","","","","","","",""
"","","","","","image-keyboard-response","111","142081","0.0-13.0-2.3-1.7","wlf073jz6j","","wlf073jz6j","""2024-11-12T18:14:00.728Z""","545","materials/imgs/D57.png","arrowright","","[""materials/imgs/D111.png"",""materials/imgs/D4.png""]","false","validation","","",""
"","","","","","html-keyboard-response","112","142582","0.0-13.0-0.4-0.28","wlf073jz6j","","wlf073jz6j","""2024-11-12T18:14:00.728Z""","null","+","null","","","","","","",""
"","","","","","image-keyboard-response","113","143477","0.0-13.0-0.4-1.28","wlf073jz6j","","wlf073jz6j","""2024-11-12T18:14:00.728Z""","892","materials/imgs/D3.png","arrowleft","","[""materials/imgs/D84.png"",""materials/imgs/D78.png""]","false","random","","",""
"","","","","","html-keyboard-response","114","143978","0.0-13.0-0.4-0.29","wlf073jz6j","","wlf073jz6j","""2024-11-12T18:14:00.728Z""","null","+","null","","","","","","",""
"","","","","","image-keyboard-response","115","145742","0.0-13.0-0.4-1.29","wlf073jz6j","","wlf073jz6j","""2024-11-12T18:14:00.728Z""","1762","materials/imgs/D24.png","arrowright","","[""materials/imgs/D34.png"",""materials/imgs/D17.png""]","false","random","","",""
"","","","","","html-keyboard-response","116","146243","0.0-13.0-0.4-0.30","wlf073jz6j","","wlf073jz6j","""2024-11-12T18:14:00.728Z""","null","+","null","","","","","","",""
"","","","","","image-keyboard-response","117","147528","0.0-13.0-0.4-1.30","wlf073jz6j","","wlf073jz6j","""2024-11-12T18:14:00.728Z""","1283","materials/imgs/D47.png","arrowright","","[""materials/imgs/D36.png"",""materials/imgs/D92.png""]","false","random","","",""
"","","","","","html-keyboard-response","118","148029","0.0-13.0-0.4-0.31","wlf073jz6j","","wlf073jz6j","""2024-11-12T18:14:00.728Z""","null","+","null","","","","","","",""
"","","","","","image-keyboard-response","119","149006","0.0-13.0-0.4-1.31","wlf073jz6j","","wlf073jz6j","""2024-11-12T18:14:00.728Z""","975","materials/imgs/D87.png","arrowleft","","[""materials/imgs/D9.png"",""materials/imgs/D101.png""]","false","random","","",""
"","","","","","html-keyboard-response","120","149507","0.0-13.0-0.4-0.32","wlf073jz6j","","wlf073jz6j","""2024-11-12T18:14:00.728Z""","null","+","null","","","","","","",""
"","","","","","image-keyboard-response","121","150734","0.0-13.0-0.4-1.32","wlf073jz6j","","wlf073jz6j","""2024-11-12T18:14:00.728Z""","1225","materials/imgs/D103.png","arrowleft","","[""materials/imgs/D6.png"",""materials/imgs/D22.png""]","false","random","","",""
"","","","","","html-keyboard-response","122","151235","0.0-13.0-0.4-0.33","wlf073jz6j","","wlf073jz6j","""2024-11-12T18:14:00.728Z""","null","+","null","","","","","","",""
"","","","","","image-keyboard-response","123","152110","0.0-13.0-0.4-1.33","wlf073jz6j","","wlf073jz6j","""2024-11-12T18:14:00.728Z""","872","materials/imgs/D85.png","arrowleft","","[""materials/imgs/D76.png"",""materials/imgs/D65.png""]","false","random","","",""
"","","","","","html-keyboard-response","124","152611","0.0-13.0-0.4-0.34","wlf073jz6j","","wlf073jz6j","""2024-11-12T18:14:00.728Z""","null","+","null","","","","","","",""
"","","","","","image-keyboard-response","125","154096","0.0-13.0-0.4-1.34","wlf073jz6j","","wlf073jz6j","""2024-11-12T18:14:00.728Z""","1483","materials/imgs/D47.png","arrowright","","[""materials/imgs/D25.png"",""materials/imgs/D84.png""]","false","random","","",""
"","","","","","html-keyboard-response","126","154598","0.0-13.0-1.4-0.4","wlf073jz6j","","wlf073jz6j","""2024-11-12T18:14:00.728Z""","null","+","null","","","","","","",""
"","","","","","image-keyboard-response","127","155131","0.0-13.0-1.4-1.4","wlf073jz6j","","wlf073jz6j","""2024-11-12T18:14:00.728Z""","531","materials/imgs/D53.png","arrowright","","[""materials/imgs/D64.png"",""materials/imgs/D53.png""]","","check","materials/imgs/D53.png","1","true"
"","","","","","html-keyboard-response","128","155633","0.0-13.0-2.4-0.8","wlf073jz6j","","wlf073jz6j","""2024-11-12T18:14:00.728Z""","null","+","null","","","","","","",""
"","","","","","image-keyboard-response","129","157466","0.0-13.0-2.4-1.8","wlf073jz6j","","wlf073jz6j","""2024-11-12T18:14:00.728Z""","1831","materials/imgs/D81.png","arrowright","","[""materials/imgs/D105.png"",""materials/imgs/D24.png""]","false","validation","","",""
"","","","","","html-keyboard-response","130","157968","0.0-13.0-2.4-0.9","wlf073jz6j","","wlf073jz6j","""2024-11-12T18:14:00.728Z""","null","+","null","","","","","","",""
"","","","","","image-keyboard-response","131","158699","0.0-13.0-2.4-1.9","wlf073jz6j","","wlf073jz6j","""2024-11-12T18:14:00.728Z""","730","materials/imgs/D56.png","arrowleft","","[""materials/imgs/D25.png"",""materials/imgs/D105.png""]","false","validation","","",""
"","","","","","html-button-response","132","160731","0.0-14.0","wlf073jz6j","","wlf073jz6j","""2024-11-12T18:14:00.728Z""","2030","You have completed 25% of the trials. Please click 'Continue' when you are ready proceed.","0","","","","","","",""
"","","","","","html-keyboard-response","133","161233","0.0-15.0-0.0-0.0","wlf073jz6j","","wlf073jz6j","""2024-11-12T18:14:00.728Z""","null","+","null","","","","","","",""
"","","","","","image-keyboard-response","134","162626","0.0-15.0-0.0-1.0","wlf073jz6j","","wlf073jz6j","""2024-11-12T18:14:00.728Z""","1392","materials/imgs/D24.png","arrowleft","","[""materials/imgs/D78.png"",""materials/imgs/D85.png""]","false","random","","",""
"","","","","","html-keyboard-response","135","163127","0.0-15.0-0.0-0.1","wlf073jz6j","","wlf073jz6j","""2024-11-12T18:14:00.728Z""","null","+","null","","","","","","",""
"","","","","","image-keyboard-response","136","164385","0.0-15.0-0.0-1.1","wlf073jz6j","","wlf073jz6j","""2024-11-12T18:14:00.728Z""","1256","materials/imgs/D26.png","arrowright","","[""materials/imgs/D6.png"",""materials/imgs/D68.png""]","false","random","","",""
"","","","","","html-keyboard-response","137","164887","0.0-15.0-0.0-0.2","wlf073jz6j","","wlf073jz6j","""2024-11-12T18:14:00.728Z""","null","+","null","","","","","","",""
"","","","","","image-keyboard-response","138","165853","0.0-15.0-0.0-1.2","wlf073jz6j","","wlf073jz6j","""2024-11-12T18:14:00.728Z""","964","materials/imgs/D74.png","arrowright","","[""materials/imgs/D11.png"",""materials/imgs/D64.png""]","false","random","","",""
"","","","","","html-keyboard-response","139","166354","0.0-15.0-0.0-0.3","wlf073jz6j","","wlf073jz6j","""2024-11-12T18:14:00.728Z""","null","+","null","","","","","","",""
"","","","","","image-keyboard-response","140","166958","0.0-15.0-0.0-1.3","wlf073jz6j","","wlf073jz6j","""2024-11-12T18:14:00.728Z""","602","materials/imgs/D3.png","arrowright","","[""materials/imgs/D8.png"",""materials/imgs/D36.png""]","false","random","","",""
"","","","","","html-keyboard-response","141","167460","0.0-15.0-0.0-0.4","wlf073jz6j","","wlf073jz6j","""2024-11-12T18:14:00.728Z""","null","+","null","","","","","","",""
"","","","","","image-keyboard-response","142","168440","0.0-15.0-0.0-1.4","wlf073jz6j","","wlf073jz6j","""2024-11-12T18:14:00.728Z""","979","materials/imgs/D66.png","arrowright","","[""materials/imgs/D75.png"",""materials/imgs/D92.png""]","false","random","","",""
"","","","","","html-keyboard-response","143","168941","0.0-15.0-0.0-0.5","wlf073jz6j","","wlf073jz6j","""2024-11-12T18:14:00.728Z""","null","+","null","","","","","","",""
"","","","","","image-keyboard-response","144","169742","0.0-15.0-0.0-1.5","wlf073jz6j","","wlf073jz6j","""2024-11-12T18:14:00.728Z""","799","materials/imgs/D94.png","arrowleft","","[""materials/imgs/D96.png"",""materials/imgs/D68.png""]","false","random","","",""
"","","","","","html-keyboard-response","145","170244","0.0-15.0-0.0-0.6","wlf073jz6j","","wlf073jz6j","""2024-11-12T18:14:00.728Z""","null","+","null","","","","","","",""
"","","","","","image-keyboard-response","146","170846","0.0-15.0-0.0-1.6","wlf073jz6j","","wlf073jz6j","""2024-11-12T18:14:00.728Z""","600","materials/imgs/D17.png","arrowleft","","[""materials/imgs/D103.png"",""materials/imgs/D32.png""]","false","random","","",""
"","","","","","html-keyboard-response","147","171347","0.0-15.0-1.0-0.0","wlf073jz6j","","wlf073jz6j","""2024-11-12T18:14:00.728Z""","null","+","null","","","","","","",""
"","","","","","image-keyboard-response","148","171813","0.0-15.0-1.0-1.0","wlf073jz6j","","wlf073jz6j","""2024-11-12T18:14:00.728Z""","465","materials/imgs/D101.png","arrowright","","[""materials/imgs/D106.png"",""materials/imgs/D101.png""]","","check","materials/imgs/D101.png","1","true"
"","","","","","html-keyboard-response","149","172314","0.0-15.0-2.0-0.0","wlf073jz6j","","wlf073jz6j","""2024-11-12T18:14:00.728Z""","null","+","null","","","","","","",""
"","","","","","image-keyboard-response","150","173033","0.0-15.0-2.0-1.0","wlf073jz6j","","wlf073jz6j","""2024-11-12T18:14:00.728Z""","717","materials/imgs/D35.png","arrowright","","[""materials/imgs/D83.png"",""materials/imgs/D24.png""]","false","validation","","",""
"","","","","","html-keyboard-response","151","173534","0.0-15.0-2.0-0.1","wlf073jz6j","","wlf073jz6j","""2024-11-12T18:14:00.728Z""","null","+","null","","","","","","",""
"","","","","","image-keyboard-response","152","174453","0.0-15.0-2.0-1.1","wlf073jz6j","","wlf073jz6j","""2024-11-12T18:14:00.728Z""","917","materials/imgs/D46.png","arrowright","","[""materials/imgs/D92.png"",""materials/imgs/D77.png""]","false","validation","","",""
"","","","","","html-keyboard-response","153","174955","0.0-15.0-0.1-0.7","wlf073jz6j","","wlf073jz6j","""2024-11-12T18:14:00.728Z""","null","+","null","","","","","","",""
"","","","","","image-keyboard-response","154","176069","0.0-15.0-0.1-1.7","wlf073jz6j","","wlf073jz6j","""2024-11-12T18:14:00.728Z""","1112","materials/imgs/D36.png","arrowleft","","[""materials/imgs/D51.png"",""materials/imgs/D64.png""]","false","random","","",""
"","","","","","html-keyboard-response","155","176570","0.0-15.0-0.1-0.8","wlf073jz6j","","wlf073jz6j","""2024-11-12T18:14:00.728Z""","null","+","null","","","","","","",""
"","","","","","image-keyboard-response","156","177855","0.0-15.0-0.1-1.8","wlf073jz6j","","wlf073jz6j","""2024-11-12T18:14:00.728Z""","1282","materials/imgs/D80.png","arrowright","","[""materials/imgs/D51.png"",""materials/imgs/D3.png""]","false","random","","",""
"","","","","","html-keyboard-response","157","178356","0.0-15.0-0.1-0.9","wlf073jz6j","","wlf073jz6j","""2024-11-12T18:14:00.728Z""","null","+","null","","","","","","",""
"","","","","","image-keyboard-response","158","179066","0.0-15.0-0.1-1.9","wlf073jz6j","","wlf073jz6j","""2024-11-12T18:14:00.728Z""","708","materials/imgs/D25.png","arrowleft","","[""materials/imgs/D96.png"",""materials/imgs/D105.png""]","false","random","","",""
"","","","","","html-keyboard-response","159","179567","0.0-15.0-0.1-0.10","wlf073jz6j","","wlf073jz6j","""2024-11-12T18:14:00.728Z""","null","+","null","","","","","","",""
"","","","","","image-keyboard-response","160","180174","0.0-15.0-0.1-1.10","wlf073jz6j","","wlf073jz6j","""2024-11-12T18:14:00.728Z""","605","materials/imgs/D51.png","arrowright","","[""materials/imgs/D32.png"",""materials/imgs/D11.png""]","false","random","","",""
"","","","","","html-keyboard-response","161","180675","0.0-15.0-0.1-0.11","wlf073jz6j","","wlf073jz6j","""2024-11-12T18:14:00.728Z""","null","+","null","","","","","","",""
"","","","","","image-keyboard-response","162","182062","0.0-15.0-0.1-1.11","wlf073jz6j","","wlf073jz6j","""2024-11-12T18:14:00.728Z""","1385","materials/imgs/D95.png","arrowleft","","[""materials/imgs/D37.png"",""materials/imgs/D76.png""]","false","random","","",""
"","","","","","html-keyboard-response","163","182563","0.0-15.0-0.1-0.12","wlf073jz6j","","wlf073jz6j","""2024-11-12T18:14:00.728Z""","null","+","null","","","","","","",""
"","","","","","image-keyboard-response","164","183285","0.0-15.0-0.1-1.12","wlf073jz6j","","wlf073jz6j","""2024-11-12T18:14:00.728Z""","720","materials/imgs/D36.png","arrowright","","[""materials/imgs/D94.png"",""materials/imgs/D3.png""]","false","random","","",""
"","","","","","html-keyboard-response","165","183786","0.0-15.0-0.1-0.13","wlf073jz6j","","wlf073jz6j","""2024-11-12T18:14:00.728Z""","null","+","null","","","","","","",""
"","","","","","image-keyboard-response","166","184405","0.0-15.0-0.1-1.13","wlf073jz6j","","wlf073jz6j","""2024-11-12T18:14:00.728Z""","618","materials/imgs/D32.png","arrowright","","[""materials/imgs/D47.png"",""materials/imgs/D9.png""]","false","random","","",""
"","","","","","html-keyboard-response","167","184907","0.0-15.0-1.1-0.1","wlf073jz6j","","wlf073jz6j","""2024-11-12T18:14:00.728Z""","null","+","null","","","","","","",""
"","","","","","image-keyboard-response","168","185493","0.0-15.0-1.1-1.1","wlf073jz6j","","wlf073jz6j","""2024-11-12T18:14:00.728Z""","584","materials/imgs/D26.png","arrowleft","","[""materials/imgs/D26.png"",""materials/imgs/D46.png""]","","check","materials/imgs/D26.png","0","true"
"","","","","","html-keyboard-response","169","185994","0.0-15.0-2.1-0.2","wlf073jz6j","","wlf073jz6j","""2024-11-12T18:14:00.728Z""","null","+","null","","","","","","",""
"","","","","","image-keyboard-response","170","186984","0.0-15.0-2.1-1.2","wlf073jz6j","","wlf073jz6j","""2024-11-12T18:14:00.728Z""","989","materials/imgs/D52.png","arrowright","","[""materials/imgs/D9.png"",""materials/imgs/D19.png""]","false","validation","","",""
"","","","","","html-keyboard-response","171","187485","0.0-15.0-2.1-0.3","wlf073jz6j","","wlf073jz6j","""2024-11-12T18:14:00.728Z""","null","+","null","","","","","","",""
"","","","","","image-keyboard-response","172","188607","0.0-15.0-2.1-1.3","wlf073jz6j","","wlf073jz6j","""2024-11-12T18:14:00.728Z""","1120","materials/imgs/D106.png","arrowright","","[""materials/imgs/D57.png"",""materials/imgs/D18.png""]","false","validation","","",""
"","","","","","html-keyboard-response","173","189109","0.0-15.0-0.2-0.14","wlf073jz6j","","wlf073jz6j","""2024-11-12T18:14:00.728Z""","null","+","null","","","","","","",""
"","","","","","image-keyboard-response","174","189637","0.0-15.0-0.2-1.14","wlf073jz6j","","wlf073jz6j","""2024-11-12T18:14:00.728Z""","527","materials/imgs/D78.png","arrowleft","","[""materials/imgs/D85.png"",""materials/imgs/D36.png""]","false","random","","",""
"","","","","","html-keyboard-response","175","190138","0.0-15.0-0.2-0.15","wlf073jz6j","","wlf073jz6j","""2024-11-12T18:14:00.728Z""","null","+","null","","","","","","",""
"","","","","","image-keyboard-response","176","190917","0.0-15.0-0.2-1.15","wlf073jz6j","","wlf073jz6j","""2024-11-12T18:14:00.728Z""","776","materials/imgs/D36.png","arrowright","","[""materials/imgs/D26.png"",""materials/imgs/D8.png""]","false","random","","",""
"","","","","","html-keyboard-response","177","191418","0.0-15.0-0.2-0.16","wlf073jz6j","","wlf073jz6j","""2024-11-12T18:14:00.728Z""","null","+","null","","","","","","",""
"","","","","","image-keyboard-response","178","192372","0.0-15.0-0.2-1.16","wlf073jz6j","","wlf073jz6j","""2024-11-12T18:14:00.728Z""","952","materials/imgs/D111.png","arrowleft","","[""materials/imgs/D3.png"",""materials/imgs/D21.png""]","false","random","","",""
"","","","","","html-keyboard-response","179","192873","0.0-15.0-0.2-0.17","wlf073jz6j","","wlf073jz6j","""2024-11-12T18:14:00.728Z""","null","+","null","","","","","","",""
"","","","","","image-keyboard-response","180","193453","0.0-15.0-0.2-1.17","wlf073jz6j","","wlf073jz6j","""2024-11-12T18:14:00.728Z""","578","materials/imgs/D56.png","arrowright","","[""materials/imgs/D68.png"",""materials/imgs/D1.png""]","false","random","","",""
"","","","","","html-keyboard-response","181","193954","0.0-15.0-0.2-0.18","wlf073jz6j","","wlf073jz6j","""2024-11-12T18:14:00.728Z""","null","+","null","","","","","","",""
"","","","","","image-keyboard-response","182","195183","0.0-15.0-0.2-1.18","wlf073jz6j","","wlf073jz6j","""2024-11-12T18:14:00.728Z""","1227","materials/imgs/D68.png","arrowleft","","[""materials/imgs/D34.png"",""materials/imgs/D1.png""]","false","random","","",""
"","","","","","html-keyboard-response","183","195685","0.0-15.0-0.2-0.19","wlf073jz6j","","wlf073jz6j","""2024-11-12T18:14:00.728Z""","null","+","null","","","","","","",""
"","","","","","image-keyboard-response","184","196468","0.0-15.0-0.2-1.19","wlf073jz6j","","wlf073jz6j","""2024-11-12T18:14:00.728Z""","781","materials/imgs/D55.png","arrowright","","[""materials/imgs/D94.png"",""materials/imgs/D36.png""]","false","random","","",""
"","","","","","html-keyboard-response","185","196968","0.0-15.0-0.2-0.20","wlf073jz6j","","wlf073jz6j","""2024-11-12T18:14:00.728Z""","null","+","null","","","","","","",""
"","","","","","image-keyboard-response","186","197543","0.0-15.0-0.2-1.20","wlf073jz6j","","wlf073jz6j","""2024-11-12T18:14:00.728Z""","572","materials/imgs/D104.png","arrowleft","","[""materials/imgs/D22.png"",""materials/imgs/D83.png""]","false","random","","",""
"","","","","","html-keyboard-response","187","198044","0.0-15.0-1.2-0.2","wlf073jz6j","","wlf073jz6j","""2024-11-12T18:14:00.728Z""","null","+","null","","","","","","",""
"","","","","","image-keyboard-response","188","198540","0.0-15.0-1.2-1.2","wlf073jz6j","","wlf073jz6j","""2024-11-12T18:14:00.728Z""","494","materials/imgs/D64.png","arrowleft","","[""materials/imgs/D64.png"",""materials/imgs/D53.png""]","","check","materials/imgs/D64.png","0","true"
"","","","","","html-keyboard-response","189","199042","0.0-15.0-2.2-0.4","wlf073jz6j","","wlf073jz6j","""2024-11-12T18:14:00.728Z""","null","+","null","","","","","","",""
"","","","","","image-keyboard-response","190","199524","0.0-15.0-2.2-1.4","wlf073jz6j","","wlf073jz6j","""2024-11-12T18:14:00.728Z""","482","materials/imgs/D20.png","arrowright","","[""materials/imgs/D84.png"",""materials/imgs/D85.png""]","true","validation","","",""
"","","","","","html-keyboard-response","191","204918","0.0-15.0-2.2-2.4-0.4","wlf073jz6j","","wlf073jz6j","""2024-11-12T18:14:00.728Z""","5392","<p><strong>You're going too fast.</strong><p>Please slow down and assess each triplet.<p>Press 'y' to continue.</p></p>","y","","","","","","",""
"","","","","","html-keyboard-response","192","205419","0.0-15.0-2.2-0.5","wlf073jz6j","","wlf073jz6j","""2024-11-12T18:14:00.728Z""","null","+","null","","","","","","",""
"","","","","","image-keyboard-response","193","207468","0.0-15.0-2.2-1.5","wlf073jz6j","","wlf073jz6j","""2024-11-12T18:14:00.728Z""","2047","materials/imgs/D66.png","arrowleft","","[""materials/imgs/D85.png"",""materials/imgs/D25.png""]","false","validation","","",""
"","","","","","html-keyboard-response","194","207969","0.0-15.0-0.3-0.21","wlf073jz6j","","wlf073jz6j","""2024-11-12T18:14:00.728Z""","null","+","null","","","","","","",""
"","","","","","image-keyboard-response","195","209800","0.0-15.0-0.3-1.21","wlf073jz6j","","wlf073jz6j","""2024-11-12T18:14:00.728Z""","1830","materials/imgs/D83.png","arrowright","","[""materials/imgs/D84.png"",""materials/imgs/D56.png""]","false","random","","",""
"","","","","","html-keyboard-response","196","210302","0.0-15.0-0.3-0.22","wlf073jz6j","","wlf073jz6j","""2024-11-12T18:14:00.728Z""","null","+","null","","","","","","",""
"","","","","","image-keyboard-response","197","211659","0.0-15.0-0.3-1.22","wlf073jz6j","","wlf073jz6j","""2024-11-12T18:14:00.728Z""","1355","materials/imgs/D65.png","arrowright","","[""materials/imgs/D9.png"",""materials/imgs/D36.png""]","false","random","","",""
"","","","","","html-keyboard-response","198","212160","0.0-15.0-0.3-0.23","wlf073jz6j","","wlf073jz6j","""2024-11-12T18:14:00.728Z""","null","+","null","","","","","","",""
"","","","","","image-keyboard-response","199","213204","0.0-15.0-0.3-1.23","wlf073jz6j","","wlf073jz6j","""2024-11-12T18:14:00.728Z""","1043","materials/imgs/D24.png","arrowright","","[""materials/imgs/D75.png"",""materials/imgs/D55.png""]","false","random","","",""
"","","","","","html-keyboard-response","200","213706","0.0-15.0-0.3-0.24","wlf073jz6j","","wlf073jz6j","""2024-11-12T18:14:00.728Z""","null","+","null","","","","","","",""
"","","","","","image-keyboard-response","201","214896","0.0-15.0-0.3-1.24","wlf073jz6j","","wlf073jz6j","""2024-11-12T18:14:00.728Z""","1188","materials/imgs/D55.png","arrowleft","","[""materials/imgs/D77.png"",""materials/imgs/D83.png""]","false","random","","",""
"","","","","","html-keyboard-response","202","215397","0.0-15.0-0.3-0.25","wlf073jz6j","","wlf073jz6j","""2024-11-12T18:14:00.728Z""","null","+","null","","","","","","",""
"","","","","","image-keyboard-response","203","216477","0.0-15.0-0.3-1.25","wlf073jz6j","","wlf073jz6j","""2024-11-12T18:14:00.728Z""","1078","materials/imgs/D19.png","arrowright","","[""materials/imgs/D85.png"",""materials/imgs/D104.png""]","false","random","","",""
"","","","","","html-keyboard-response","204","216978","0.0-15.0-0.3-0.26","wlf073jz6j","","wlf073jz6j","""2024-11-12T18:14:00.728Z""","null","+","null","","","","","","",""
"","","","","","image-keyboard-response","205","218804","0.0-15.0-0.3-1.26","wlf073jz6j","","wlf073jz6j","""2024-11-12T18:14:00.728Z""","1823","materials/imgs/D95.png","arrowright","","[""materials/imgs/D46.png"",""materials/imgs/D81.png""]","false","random","","",""
"","","","","","html-keyboard-response","206","219305","0.0-15.0-0.3-0.27","wlf073jz6j","","wlf073jz6j","""2024-11-12T18:14:00.728Z""","null","+","null","","","","","","",""
"","","","","","image-keyboard-response","207","220348","0.0-15.0-0.3-1.27","wlf073jz6j","","wlf073jz6j","""2024-11-12T18:14:00.728Z""","1042","materials/imgs/D66.png","arrowright","","[""materials/imgs/D76.png"",""materials/imgs/D20.png""]","false","random","","",""
"","","","","","html-keyboard-response","208","220850","0.0-15.0-1.3-0.3","wlf073jz6j","","wlf073jz6j","""2024-11-12T18:14:00.728Z""","null","+","null","","","","","","",""
"","","","","","image-keyboard-response","209","221658","0.0-15.0-1.3-1.3","wlf073jz6j","","wlf073jz6j","""2024-11-12T18:14:00.728Z""","802","materials/imgs/D106.png","arrowleft","","[""materials/imgs/D106.png"",""materials/imgs/D101.png""]","","check","materials/imgs/D106.png","0","true"
"","","","","","html-keyboard-response","210","222160","0.0-15.0-2.3-0.6","wlf073jz6j","","wlf073jz6j","""2024-11-12T18:14:00.728Z""","null","+","null","","","","","","",""
"","","","","","image-keyboard-response","211","223053","0.0-15.0-2.3-1.6","wlf073jz6j","","wlf073jz6j","""2024-11-12T18:14:00.728Z""","892","materials/imgs/D81.png","arrowright","","[""materials/imgs/D105.png"",""materials/imgs/D24.png""]","false","validation","","",""
"","","","","","html-keyboard-response","212","223555","0.0-15.0-2.3-0.7","wlf073jz6j","","wlf073jz6j","""2024-11-12T18:14:00.728Z""","null","+","null","","","","","","",""
"","","","","","image-keyboard-response","213","224569","0.0-15.0-2.3-1.7","wlf073jz6j","","wlf073jz6j","""2024-11-12T18:14:00.728Z""","1012","materials/imgs/D6.png","arrowright","","[""materials/imgs/D26.png"",""materials/imgs/D76.png""]","false","validation","","",""
"","","","","","html-keyboard-response","214","225070","0.0-15.0-0.4-0.28","wlf073jz6j","","wlf073jz6j","""2024-11-12T18:14:00.728Z""","null","+","null","","","","","","",""
"","","","","","image-keyboard-response","215","226155","0.0-15.0-0.4-1.28","wlf073jz6j","","wlf073jz6j","""2024-11-12T18:14:00.728Z""","1083","materials/imgs/D66.png","arrowright","","[""materials/imgs/D87.png"",""materials/imgs/D26.png""]","false","random","","",""
"","","","","","html-keyboard-response","216","226657","0.0-15.0-0.4-0.29","wlf073jz6j","","wlf073jz6j","""2024-11-12T18:14:00.728Z""","null","+","null","","","","","","",""
"","","","","","image-keyboard-response","217","227632","0.0-15.0-0.4-1.29","wlf073jz6j","","wlf073jz6j","""2024-11-12T18:14:00.728Z""","973","materials/imgs/D81.png","arrowright","","[""materials/imgs/D106.png"",""materials/imgs/D80.png""]","false","random","","",""
"","","","","","html-keyboard-response","218","228133","0.0-15.0-0.4-0.30","wlf073jz6j","","wlf073jz6j","""2024-11-12T18:14:00.728Z""","null","+","null","","","","","","",""
"","","","","","image-keyboard-response","219","229639","0.0-15.0-0.4-1.30","wlf073jz6j","","wlf073jz6j","""2024-11-12T18:14:00.728Z""","1503","materials/imgs/D82.png","arrowright","","[""materials/imgs/D102.png"",""materials/imgs/D49.png""]","false","random","","",""
"","","","","","html-keyboard-response","220","230140","0.0-15.0-0.4-0.31","wlf073jz6j","","wlf073jz6j","""2024-11-12T18:14:00.728Z""","null","+","null","","","","","","",""
"","","","","","image-keyboard-response","221","231012","0.0-15.0-0.4-1.31","wlf073jz6j","","wlf073jz6j","""2024-11-12T18:14:00.728Z""","870","materials/imgs/D46.png","arrowright","","[""materials/imgs/D24.png"",""materials/imgs/D83.png""]","false","random","","",""
"","","","","","html-keyboard-response","222","231514","0.0-15.0-0.4-0.32","wlf073jz6j","","wlf073jz6j","""2024-11-12T18:14:00.728Z""","null","+","null","","","","","","",""
"","","","","","image-keyboard-response","223","232541","0.0-15.0-0.4-1.32","wlf073jz6j","","wlf073jz6j","""2024-11-12T18:14:00.728Z""","1026","materials/imgs/D64.png","arrowright","","[""materials/imgs/D82.png"",""materials/imgs/D74.png""]","false","random","","",""
"","","","","","html-keyboard-response","224","233042","0.0-15.0-0.4-0.33","wlf073jz6j","","wlf073jz6j","""2024-11-12T18:14:00.728Z""","null","+","null","","","","","","",""
"","","","","","image-keyboard-response","225","234622","0.0-15.0-0.4-1.33","wlf073jz6j","","wlf073jz6j","""2024-11-12T18:14:00.728Z""","1577","materials/imgs/D95.png","arrowright","","[""materials/imgs/D19.png"",""materials/imgs/D81.png""]","false","random","","",""
"","","","","","html-keyboard-response","226","235122","0.0-15.0-0.4-0.34","wlf073jz6j","","wlf073jz6j","""2024-11-12T18:14:00.728Z""","null","+","null","","","","","","",""
"","","","","","image-keyboard-response","227","236383","0.0-15.0-0.4-1.34","wlf073jz6j","","wlf073jz6j","""2024-11-12T18:14:00.728Z""","1259","materials/imgs/D85.png","arrowleft","","[""materials/imgs/D78.png"",""materials/imgs/D74.png""]","false","random","","",""
"","","","","","html-keyboard-response","228","236884","0.0-15.0-1.4-0.4","wlf073jz6j","","wlf073jz6j","""2024-11-12T18:14:00.728Z""","null","+","null","","","","","","",""
"","","","","","image-keyboard-response","229","237500","0.0-15.0-1.4-1.4","wlf073jz6j","","wlf073jz6j","""2024-11-12T18:14:00.728Z""","614","materials/imgs/D78.png","arrowright","","[""materials/imgs/D76.png"",""materials/imgs/D78.png""]","","check","materials/imgs/D78.png","1","true"
"","","","","","html-keyboard-response","230","238001","0.0-15.0-2.4-0.8","wlf073jz6j","","wlf073jz6j","""2024-11-12T18:14:00.728Z""","null","+","null","","","","","","",""
"","","","","","image-keyboard-response","231","239687","0.0-15.0-2.4-1.8","wlf073jz6j","","wlf073jz6j","""2024-11-12T18:14:00.728Z""","1684","materials/imgs/D36.png","arrowleft","","[""materials/imgs/D47.png"",""materials/imgs/D49.png""]","false","validation","","",""
"","","","","","html-keyboard-response","232","240188","0.0-15.0-2.4-0.9","wlf073jz6j","","wlf073jz6j","""2024-11-12T18:14:00.728Z""","null","+","null","","","","","","",""
"","","","","","image-keyboard-response","233","242647","0.0-15.0-2.4-1.9","wlf073jz6j","","wlf073jz6j","""2024-11-12T18:14:00.728Z""","2457","materials/imgs/D64.png","arrowleft","","[""materials/imgs/D6.png"",""materials/imgs/D81.png""]","false","validation","","",""
"","","","","","html-button-response","234","244922","0.0-16.0","wlf073jz6j","","wlf073jz6j","""2024-11-12T18:14:00.728Z""","2274","You have completed 50% of the trials. Please click 'Continue' when you are ready proceed.","0","","","","","","",""
"","","","","","html-keyboard-response","235","245424","0.0-17.0-0.0-0.0","wlf073jz6j","","wlf073jz6j","""2024-11-12T18:14:00.728Z""","null","+","null","","","","","","",""
"","","","","","image-keyboard-response","236","247100","0.0-17.0-0.0-1.0","wlf073jz6j","","wlf073jz6j","""2024-11-12T18:14:00.728Z""","1674","materials/imgs/D3.png","arrowright","","[""materials/imgs/D106.png"",""materials/imgs/D55.png""]","false","random","","",""
"","","","","","html-keyboard-response","237","247601","0.0-17.0-0.0-0.1","wlf073jz6j","","wlf073jz6j","""2024-11-12T18:14:00.728Z""","null","+","null","","","","","","",""
"","","","","","image-keyboard-response","238","249235","0.0-17.0-0.0-1.1","wlf073jz6j","","wlf073jz6j","""2024-11-12T18:14:00.728Z""","1632","materials/imgs/D102.png","arrowleft","","[""materials/imgs/D52.png"",""materials/imgs/D3.png""]","false","random","","",""
"","","","","","html-keyboard-response","239","249737","0.0-17.0-0.0-0.2","wlf073jz6j","","wlf073jz6j","""2024-11-12T18:14:00.728Z""","null","+","null","","","","","","",""
"","","","","","image-keyboard-response","240","250925","0.0-17.0-0.0-1.2","wlf073jz6j","","wlf073jz6j","""2024-11-12T18:14:00.728Z""","1187","materials/imgs/D51.png","arrowleft","","[""materials/imgs/D68.png"",""materials/imgs/D84.png""]","false","random","","",""
"","","","","","html-keyboard-response","241","251426","0.0-17.0-0.0-0.3","wlf073jz6j","","wlf073jz6j","""2024-11-12T18:14:00.728Z""","null","+","null","","","","","","",""
"","","","","","image-keyboard-response","242","252394","0.0-17.0-0.0-1.3","wlf073jz6j","","wlf073jz6j","""2024-11-12T18:14:00.728Z""","966","materials/imgs/D96.png","arrowleft","","[""materials/imgs/D1.png"",""materials/imgs/D101.png""]","false","random","","",""
"","","","","","html-keyboard-response","243","252896","0.0-17.0-0.0-0.4","wlf073jz6j","","wlf073jz6j","""2024-11-12T18:14:00.728Z""","null","+","null","","","","","","",""
"","","","","","image-keyboard-response","244","254002","0.0-17.0-0.0-1.4","wlf073jz6j","","wlf073jz6j","""2024-11-12T18:14:00.728Z""","1104","materials/imgs/D85.png","arrowleft","","[""materials/imgs/D76.png"",""materials/imgs/D35.png""]","false","random","","",""
"","","","","","html-keyboard-response","245","254503","0.0-17.0-0.0-0.5","wlf073jz6j","","wlf073jz6j","""2024-11-12T18:14:00.728Z""","null","+","null","","","","","","",""
"","","","","","image-keyboard-response","246","255083","0.0-17.0-0.0-1.5","wlf073jz6j","","wlf073jz6j","""2024-11-12T18:14:00.728Z""","579","materials/imgs/D105.png","arrowright","","[""materials/imgs/D25.png"",""materials/imgs/D76.png""]","false","random","","",""
"","","","","","html-keyboard-response","247","255584","0.0-17.0-0.0-0.6","wlf073jz6j","","wlf073jz6j","""2024-11-12T18:14:00.728Z""","null","+","null","","","","","","",""
"","","","","","image-keyboard-response","248","256699","0.0-17.0-0.0-1.6","wlf073jz6j","","wlf073jz6j","""2024-11-12T18:14:00.728Z""","1113","materials/imgs/D51.png","arrowleft","","[""materials/imgs/D29.png"",""materials/imgs/D75.png""]","false","random","","",""
"","","","","","html-keyboard-response","249","257200","0.0-17.0-1.0-0.0","wlf073jz6j","","wlf073jz6j","""2024-11-12T18:14:00.728Z""","null","+","null","","","","","","",""
"","","","","","image-keyboard-response","250","257828","0.0-17.0-1.0-1.0","wlf073jz6j","","wlf073jz6j","""2024-11-12T18:14:00.728Z""","627","materials/imgs/D76.png","arrowleft","","[""materials/imgs/D76.png"",""materials/imgs/D78.png""]","","check","materials/imgs/D76.png","0","true"
"","","","","","html-keyboard-response","251","258330","0.0-17.0-2.0-0.0","wlf073jz6j","","wlf073jz6j","""2024-11-12T18:14:00.728Z""","null","+","null","","","","","","",""
"","","","","","image-keyboard-response","252","259301","0.0-17.0-2.0-1.0","wlf073jz6j","","wlf073jz6j","""2024-11-12T18:14:00.728Z""","970","materials/imgs/D82.png","arrowright","","[""materials/imgs/D83.png"",""materials/imgs/D22.png""]","false","validation","","",""
"","","","","","html-keyboard-response","253","259802","0.0-17.0-2.0-0.1","wlf073jz6j","","wlf073jz6j","""2024-11-12T18:14:00.728Z""","null","+","null","","","","","","",""
"","","","","","image-keyboard-response","254","260534","0.0-17.0-2.0-1.1","wlf073jz6j","","wlf073jz6j","""2024-11-12T18:14:00.728Z""","730","materials/imgs/D9.png","arrowright","","[""materials/imgs/D103.png"",""materials/imgs/D4.png""]","false","validation","","",""
"","","","","","html-keyboard-response","255","261035","0.0-17.0-0.1-0.7","wlf073jz6j","","wlf073jz6j","""2024-11-12T18:14:00.728Z""","null","+","null","","","","","","",""
"","","","","","image-keyboard-response","256","262199","0.0-17.0-0.1-1.7","wlf073jz6j","","wlf073jz6j","""2024-11-12T18:14:00.728Z""","1162","materials/imgs/D16.png","arrowright","","[""materials/imgs/D80.png"",""materials/imgs/D66.png""]","false","random","","",""
"","","","","","html-keyboard-response","257","262701","0.0-17.0-0.1-0.8","wlf073jz6j","","wlf073jz6j","""2024-11-12T18:14:00.728Z""","null","+","null","","","","","","",""
"","","","","","image-keyboard-response","258","264354","0.0-17.0-0.1-1.8","wlf073jz6j","","wlf073jz6j","""2024-11-12T18:14:00.728Z""","1651","materials/imgs/D8.png","arrowright","","[""materials/imgs/D46.png"",""materials/imgs/D74.png""]","false","random","","",""
"","","","","","html-keyboard-response","259","264856","0.0-17.0-0.1-0.9","wlf073jz6j","","wlf073jz6j","""2024-11-12T18:14:00.728Z""","null","+","null","","","","","","",""
"","","","","","image-keyboard-response","260","266624","0.0-17.0-0.1-1.9","wlf073jz6j","","wlf073jz6j","""2024-11-12T18:14:00.728Z""","1766","materials/imgs/D81.png","arrowleft","","[""materials/imgs/D26.png"",""materials/imgs/D25.png""]","false","random","","",""
"","","","","","html-keyboard-response","261","267125","0.0-17.0-0.1-0.10","wlf073jz6j","","wlf073jz6j","""2024-11-12T18:14:00.728Z""","null","+","null","","","","","","",""
"","","","","","image-keyboard-response","262","268108","0.0-17.0-0.1-1.10","wlf073jz6j","","wlf073jz6j","""2024-11-12T18:14:00.728Z""","981","materials/imgs/D18.png","arrowright","","[""materials/imgs/D75.png"",""materials/imgs/D51.png""]","false","random","","",""
"","","","","","html-keyboard-response","263","268609","0.0-17.0-0.1-0.11","wlf073jz6j","","wlf073jz6j","""2024-11-12T18:14:00.728Z""","null","+","null","","","","","","",""
"","","","","","image-keyboard-response","264","270463","0.0-17.0-0.1-1.11","wlf073jz6j","","wlf073jz6j","""2024-11-12T18:14:00.728Z""","1852","materials/imgs/D80.png","arrowleft","","[""materials/imgs/D105.png"",""materials/imgs/D65.png""]","false","random","","",""
"","","","","","html-keyboard-response","265","270964","0.0-17.0-0.1-0.12","wlf073jz6j","","wlf073jz6j","""2024-11-12T18:14:00.728Z""","null","+","null","","","","","","",""
"","","","","","image-keyboard-response","266","272212","0.0-17.0-0.1-1.12","wlf073jz6j","","wlf073jz6j","""2024-11-12T18:14:00.728Z""","1246","materials/imgs/D17.png","arrowleft","","[""materials/imgs/D11.png"",""materials/imgs/D51.png""]","false","random","","",""
"","","","","","html-keyboard-response","267","272713","0.0-17.0-0.1-0.13","wlf073jz6j","","wlf073jz6j","""2024-11-12T18:14:00.728Z""","null","+","null","","","","","","",""
"","","","","","image-keyboard-response","268","273586","0.0-17.0-0.1-1.13","wlf073jz6j","","wlf073jz6j","""2024-11-12T18:14:00.728Z""","870","materials/imgs/D56.png","arrowleft","","[""materials/imgs/D47.png"",""materials/imgs/D75.png""]","false","random","","",""
"","","","","","html-keyboard-response","269","274087","0.0-17.0-1.1-0.1","wlf073jz6j","","wlf073jz6j","""2024-11-12T18:14:00.728Z""","null","+","null","","","","","","",""
"","","","","","image-keyboard-response","270","274721","0.0-17.0-1.1-1.1","wlf073jz6j","","wlf073jz6j","""2024-11-12T18:14:00.728Z""","632","materials/imgs/D18.png","arrowright","","[""materials/imgs/D8.png"",""materials/imgs/D18.png""]","","check","materials/imgs/D18.png","1","true"
"","","","","","html-keyboard-response","271","275222","0.0-17.0-2.1-0.2","wlf073jz6j","","wlf073jz6j","""2024-11-12T18:14:00.728Z""","null","+","null","","","","","","",""
"","","","","","image-keyboard-response","272","275973","0.0-17.0-2.1-1.2","wlf073jz6j","","wlf073jz6j","""2024-11-12T18:14:00.728Z""","749","materials/imgs/D76.png","arrowleft","","[""materials/imgs/D83.png"",""materials/imgs/D6.png""]","false","validation","","",""
"","","","","","html-keyboard-response","273","276473","0.0-17.0-2.1-0.3","wlf073jz6j","","wlf073jz6j","""2024-11-12T18:14:00.728Z""","null","+","null","","","","","","",""
"","","","","","image-keyboard-response","274","277573","0.0-17.0-2.1-1.3","wlf073jz6j","","wlf073jz6j","""2024-11-12T18:14:00.728Z""","1098","materials/imgs/D77.png","arrowright","","[""materials/imgs/D102.png"",""materials/imgs/D65.png""]","false","validation","","",""
"","","","","","html-keyboard-response","275","278074","0.0-17.0-0.2-0.14","wlf073jz6j","","wlf073jz6j","""2024-11-12T18:14:00.728Z""","null","+","null","","","","","","",""
"","","","","","image-keyboard-response","276","279581","0.0-17.0-0.2-1.14","wlf073jz6j","","wlf073jz6j","""2024-11-12T18:14:00.728Z""","1505","materials/imgs/D8.png","arrowleft","","[""materials/imgs/D22.png"",""materials/imgs/D104.png""]","false","random","","",""
"","","","","","html-keyboard-response","277","280082","0.0-17.0-0.2-0.15","wlf073jz6j","","wlf073jz6j","""2024-11-12T18:14:00.728Z""","null","+","null","","","","","","",""
"","","","","","image-keyboard-response","278","281028","0.0-17.0-0.2-1.15","wlf073jz6j","","wlf073jz6j","""2024-11-12T18:14:00.728Z""","944","materials/imgs/D19.png","arrowleft","","[""materials/imgs/D84.png"",""materials/imgs/D21.png""]","false","random","","",""
"","","","","","html-keyboard-response","279","281529","0.0-17.0-0.2-0.16","wlf073jz6j","","wlf073jz6j","""2024-11-12T18:14:00.728Z""","null","+","null","","","","","","",""
"","","","","","image-keyboard-response","280","282604","0.0-17.0-0.2-1.16","wlf073jz6j","","wlf073jz6j","""2024-11-12T18:14:00.728Z""","1073","materials/imgs/D48.png","arrowleft","","[""materials/imgs/D102.png"",""materials/imgs/D104.png""]","false","random","","",""
"","","","","","html-keyboard-response","281","283106","0.0-17.0-0.2-0.17","wlf073jz6j","","wlf073jz6j","""2024-11-12T18:14:00.728Z""","null","+","null","","","","","","",""
"","","","","","image-keyboard-response","282","284406","0.0-17.0-0.2-1.17","wlf073jz6j","","wlf073jz6j","""2024-11-12T18:14:00.728Z""","1299","materials/imgs/D46.png","arrowright","","[""materials/imgs/D92.png"",""materials/imgs/D53.png""]","false","random","","",""
"","","","","","html-keyboard-response","283","284908","0.0-17.0-0.2-0.18","wlf073jz6j","","wlf073jz6j","""2024-11-12T18:14:00.728Z""","null","+","null","","","","","","",""
"","","","","","image-keyboard-response","284","286771","0.0-17.0-0.2-1.18","wlf073jz6j","","wlf073jz6j","""2024-11-12T18:14:00.728Z""","1861","materials/imgs/D48.png","arrowleft","","[""materials/imgs/D52.png"",""materials/imgs/D77.png""]","false","random","","",""
"","","","","","html-keyboard-response","285","287272","0.0-17.0-0.2-0.19","wlf073jz6j","","wlf073jz6j","""2024-11-12T18:14:00.728Z""","null","+","null","","","","","","",""
"","","","","","image-keyboard-response","286","289633","0.0-17.0-0.2-1.19","wlf073jz6j","","wlf073jz6j","""2024-11-12T18:14:00.728Z""","2358","materials/imgs/D79.png","arrowleft","","[""materials/imgs/D4.png"",""materials/imgs/D65.png""]","false","random","","",""
"","","","","","html-keyboard-response","287","290134","0.0-17.0-0.2-0.20","wlf073jz6j","","wlf073jz6j","""2024-11-12T18:14:00.728Z""","null","+","null","","","","","","",""
"","","","","","image-keyboard-response","288","291388","0.0-17.0-0.2-1.20","wlf073jz6j","","wlf073jz6j","""2024-11-12T18:14:00.728Z""","1251","materials/imgs/D56.png","arrowright","","[""materials/imgs/D16.png"",""materials/imgs/D66.png""]","false","random","","",""
"","","","","","html-keyboard-response","289","291889","0.0-17.0-1.2-0.2","wlf073jz6j","","wlf073jz6j","""2024-11-12T18:14:00.728Z""","null","+","null","","","","","","",""
"","","","","","image-keyboard-response","290","292557","0.0-17.0-1.2-1.2","wlf073jz6j","","wlf073jz6j","""2024-11-12T18:14:00.728Z""","666","materials/imgs/D76.png","arrowleft","","[""materials/imgs/D76.png"",""materials/imgs/D78.png""]","","check","materials/imgs/D76.png","0","true"
"","","","","","html-keyboard-response","291","293058","0.0-17.0-2.2-0.4","wlf073jz6j","","wlf073jz6j","""2024-11-12T18:14:00.728Z""","null","+","null","","","","","","",""
"","","","","","image-keyboard-response","292","294725","0.0-17.0-2.2-1.4","wlf073jz6j","","wlf073jz6j","""2024-11-12T18:14:00.728Z""","1665","materials/imgs/D4.png","arrowleft","","[""materials/imgs/D52.png"",""materials/imgs/D83.png""]","false","validation","","",""
"","","","","","html-keyboard-response","293","295226","0.0-17.0-2.2-0.5","wlf073jz6j","","wlf073jz6j","""2024-11-12T18:14:00.728Z""","null","+","null","","","","","","",""
"","","","","","image-keyboard-response","294","297308","0.0-17.0-2.2-1.5","wlf073jz6j","","wlf073jz6j","""2024-11-12T18:14:00.728Z""","2081","materials/imgs/D79.png","arrowright","","[""materials/imgs/D51.png"",""materials/imgs/D64.png""]","false","validation","","",""
"","","","","","html-keyboard-response","295","297810","0.0-17.0-0.3-0.21","wlf073jz6j","","wlf073jz6j","""2024-11-12T18:14:00.728Z""","null","+","null","","","","","","",""
"","","","","","image-keyboard-response","296","298823","0.0-17.0-0.3-1.21","wlf073jz6j","","wlf073jz6j","""2024-11-12T18:14:00.728Z""","1012","materials/imgs/D48.png","arrowleft","","[""materials/imgs/D47.png"",""materials/imgs/D80.png""]","false","random","","",""
"","","","","","html-keyboard-response","297","299325","0.0-17.0-0.3-0.22","wlf073jz6j","","wlf073jz6j","""2024-11-12T18:14:00.728Z""","null","+","null","","","","","","",""
"","","","","","image-keyboard-response","298","302045","0.0-17.0-0.3-1.22","wlf073jz6j","","wlf073jz6j","""2024-11-12T18:14:00.728Z""","2719","materials/imgs/D84.png","arrowleft","","[""materials/imgs/D85.png"",""materials/imgs/D47.png""]","false","random","","",""
"","","","","","html-keyboard-response","299","302547","0.0-17.0-0.3-0.23","wlf073jz6j","","wlf073jz6j","""2024-11-12T18:14:00.728Z""","null","+","null","","","","","","",""
"","","","","","image-keyboard-response","300","304936","0.0-17.0-0.3-1.23","wlf073jz6j","","wlf073jz6j","""2024-11-12T18:14:00.728Z""","2387","materials/imgs/D55.png","arrowright","","[""materials/imgs/D26.png"",""materials/imgs/D111.png""]","false","random","","",""
"","","","","","html-keyboard-response","301","305437","0.0-17.0-0.3-0.24","wlf073jz6j","","wlf073jz6j","""2024-11-12T18:14:00.728Z""","null","+","null","","","","","","",""
"","","","","","image-keyboard-response","302","306354","0.0-17.0-0.3-1.24","wlf073jz6j","","wlf073jz6j","""2024-11-12T18:14:00.728Z""","916","materials/imgs/D57.png","arrowright","","[""materials/imgs/D1.png"",""materials/imgs/D68.png""]","false","random","","",""
"","","","","","html-keyboard-response","303","306856","0.0-17.0-0.3-0.25","wlf073jz6j","","wlf073jz6j","""2024-11-12T18:14:00.728Z""","null","+","null","","","","","","",""
"","","","","","image-keyboard-response","304","308292","0.0-17.0-0.3-1.25","wlf073jz6j","","wlf073jz6j","""2024-11-12T18:14:00.728Z""","1434","materials/imgs/D75.png","arrowright","","[""materials/imgs/D29.png"",""materials/imgs/D19.png""]","false","random","","",""
"","","","","","html-keyboard-response","305","308794","0.0-17.0-0.3-0.26","wlf073jz6j","","wlf073jz6j","""2024-11-12T18:14:00.728Z""","null","+","null","","","","","","",""
"","","","","","image-keyboard-response","306","313471","0.0-17.0-0.3-1.26","wlf073jz6j","","wlf073jz6j","""2024-11-12T18:14:00.728Z""","4675","materials/imgs/D82.png","arrowleft","","[""materials/imgs/D1.png"",""materials/imgs/D34.png""]","false","random","","",""
"","","","","","html-keyboard-response","307","313973","0.0-17.0-0.3-0.27","wlf073jz6j","","wlf073jz6j","""2024-11-12T18:14:00.728Z""","null","+","null","","","","","","",""
"","","","","","image-keyboard-response","308","315093","0.0-17.0-0.3-1.27","wlf073jz6j","","wlf073jz6j","""2024-11-12T18:14:00.728Z""","1118","materials/imgs/D48.png","arrowright","","[""materials/imgs/D20.png"",""materials/imgs/D56.png""]","false","random","","",""
"","","","","","html-keyboard-response","309","315594","0.0-17.0-1.3-0.3","wlf073jz6j","","wlf073jz6j","""2024-11-12T18:14:00.728Z""","null","+","null","","","","","","",""
"","","","","","image-keyboard-response","310","316544","0.0-17.0-1.3-1.3","wlf073jz6j","","wlf073jz6j","""2024-11-12T18:14:00.728Z""","948","materials/imgs/D53.png","arrowright","","[""materials/imgs/D64.png"",""materials/imgs/D53.png""]","","check","materials/imgs/D53.png","1","true"
"","","","","","html-keyboard-response","311","317045","0.0-17.0-2.3-0.6","wlf073jz6j","","wlf073jz6j","""2024-11-12T18:14:00.728Z""","null","+","null","","","","","","",""
"","","","","","image-keyboard-response","312","317856","0.0-17.0-2.3-1.6","wlf073jz6j","","wlf073jz6j","""2024-11-12T18:14:00.728Z""","809","materials/imgs/D101.png","arrowright","","[""materials/imgs/D76.png"",""materials/imgs/D47.png""]","false","validation","","",""
"","","","","","html-keyboard-response","313","318357","0.0-17.0-2.3-0.7","wlf073jz6j","","wlf073jz6j","""2024-11-12T18:14:00.728Z""","null","+","null","","","","","","",""
"","","","","","image-keyboard-response","314","319620","0.0-17.0-2.3-1.7","wlf073jz6j","","wlf073jz6j","""2024-11-12T18:14:00.728Z""","1261","materials/imgs/D85.png","arrowleft","","[""materials/imgs/D6.png"",""materials/imgs/D111.png""]","false","validation","","",""
"","","","","","html-keyboard-response","315","320121","0.0-17.0-0.4-0.28","wlf073jz6j","","wlf073jz6j","""2024-11-12T18:14:00.728Z""","null","+","null","","","","","","",""
"","","","","","image-keyboard-response","316","321131","0.0-17.0-0.4-1.28","wlf073jz6j","","wlf073jz6j","""2024-11-12T18:14:00.728Z""","1008","materials/imgs/D48.png","arrowleft","","[""materials/imgs/D92.png"",""materials/imgs/D104.png""]","false","random","","",""
"","","","","","html-keyboard-response","317","321632","0.0-17.0-0.4-0.29","wlf073jz6j","","wlf073jz6j","""2024-11-12T18:14:00.728Z""","null","+","null","","","","","","",""
"","","","","","image-keyboard-response","318","322506","0.0-17.0-0.4-1.29","wlf073jz6j","","wlf073jz6j","""2024-11-12T18:14:00.728Z""","872","materials/imgs/D53.png","arrowleft","","[""materials/imgs/D68.png"",""materials/imgs/D74.png""]","false","random","","",""
"","","","","","html-keyboard-response","319","323007","0.0-17.0-0.4-0.30","wlf073jz6j","","wlf073jz6j","""2024-11-12T18:14:00.728Z""","null","+","null","","","","","","",""
"","","","","","image-keyboard-response","320","324470","0.0-17.0-0.4-1.30","wlf073jz6j","","wlf073jz6j","""2024-11-12T18:14:00.728Z""","1460","materials/imgs/D51.png","arrowleft","","[""materials/imgs/D111.png"",""materials/imgs/D94.png""]","false","random","","",""
"","","","","","html-keyboard-response","321","324971","0.0-17.0-0.4-0.31","wlf073jz6j","","wlf073jz6j","""2024-11-12T18:14:00.728Z""","null","+","null","","","","","","",""
"","","","","","image-keyboard-response","322","326102","0.0-17.0-0.4-1.31","wlf073jz6j","","wlf073jz6j","""2024-11-12T18:14:00.728Z""","1130","materials/imgs/D53.png","arrowleft","","[""materials/imgs/D14.png"",""materials/imgs/D24.png""]","false","random","","",""
"","","","","","html-keyboard-response","323","326603","0.0-17.0-0.4-0.32","wlf073jz6j","","wlf073jz6j","""2024-11-12T18:14:00.728Z""","null","+","null","","","","","","",""
"","","","","","image-keyboard-response","324","329226","0.0-17.0-0.4-1.32","wlf073jz6j","","wlf073jz6j","""2024-11-12T18:14:00.728Z""","2620","materials/imgs/D96.png","arrowright","","[""materials/imgs/D36.png"",""materials/imgs/D4.png""]","false","random","","",""
"","","","","","html-keyboard-response","325","329727","0.0-17.0-0.4-0.33","wlf073jz6j","","wlf073jz6j","""2024-11-12T18:14:00.728Z""","null","+","null","","","","","","",""
"","","","","","image-keyboard-response","326","330845","0.0-17.0-0.4-1.33","wlf073jz6j","","wlf073jz6j","""2024-11-12T18:14:00.728Z""","1117","materials/imgs/D102.png","arrowright","","[""materials/imgs/D1.png"",""materials/imgs/D87.png""]","false","random","","",""
"","","","","","html-keyboard-response","327","331347","0.0-17.0-0.4-0.34","wlf073jz6j","","wlf073jz6j","""2024-11-12T18:14:00.728Z""","null","+","null","","","","","","",""
"","","","","","image-keyboard-response","328","332279","0.0-17.0-0.4-1.34","wlf073jz6j","","wlf073jz6j","""2024-11-12T18:14:00.728Z""","930","materials/imgs/D66.png","arrowright","","[""materials/imgs/D96.png"",""materials/imgs/D55.png""]","false","random","","",""
"","","","","","html-keyboard-response","329","332780","0.0-17.0-1.4-0.4","wlf073jz6j","","wlf073jz6j","""2024-11-12T18:14:00.728Z""","null","+","null","","","","","","",""
"","","","","","image-keyboard-response","330","333813","0.0-17.0-1.4-1.4","wlf073jz6j","","wlf073jz6j","""2024-11-12T18:14:00.728Z""","1031","materials/imgs/D78.png","arrowright","","[""materials/imgs/D76.png"",""materials/imgs/D78.png""]","","check","materials/imgs/D78.png","1","true"
"","","","","","html-keyboard-response","331","334314","0.0-17.0-2.4-0.8","wlf073jz6j","","wlf073jz6j","""2024-11-12T18:14:00.728Z""","null","+","null","","","","","","",""
"","","","","","image-keyboard-response","332","336093","0.0-17.0-2.4-1.8","wlf073jz6j","","wlf073jz6j","""2024-11-12T18:14:00.728Z""","1778","materials/imgs/D49.png","arrowright","","[""materials/imgs/D8.png"",""materials/imgs/D101.png""]","false","validation","","",""
"","","","","","html-keyboard-response","333","336595","0.0-17.0-2.4-0.9","wlf073jz6j","","wlf073jz6j","""2024-11-12T18:14:00.728Z""","null","+","null","","","","","","",""
"","","","","","image-keyboard-response","334","338173","0.0-17.0-2.4-1.9","wlf073jz6j","","wlf073jz6j","""2024-11-12T18:14:00.728Z""","1576","materials/imgs/D84.png","arrowright","","[""materials/imgs/D106.png"",""materials/imgs/D37.png""]","false","validation","","",""
"","","","","","html-button-response","335","339371","0.0-18.0","wlf073jz6j","","wlf073jz6j","""2024-11-12T18:14:00.728Z""","1197","You have completed 75% of the trials. Please click 'Continue' when you are ready proceed.","0","","","","","","",""
"","","","","","html-keyboard-response","336","339873","0.0-19.0-0.0-0.0","wlf073jz6j","","wlf073jz6j","""2024-11-12T18:14:00.728Z""","null","+","null","","","","","","",""
"","","","","","image-keyboard-response","337","340671","0.0-19.0-0.0-1.0","wlf073jz6j","","wlf073jz6j","""2024-11-12T18:14:00.728Z""","791","materials/imgs/D92.png","arrowleft","","[""materials/imgs/D80.png"",""materials/imgs/D34.png""]","false","random","","",""
"","","","","","html-keyboard-response","338","341173","0.0-19.0-0.0-0.1","wlf073jz6j","","wlf073jz6j","""2024-11-12T18:14:00.728Z""","null","+","null","","","","","","",""
"","","","","","image-keyboard-response","339","342414","0.0-19.0-0.0-1.1","wlf073jz6j","","wlf073jz6j","""2024-11-12T18:14:00.728Z""","1239","materials/imgs/D87.png","arrowleft","","[""materials/imgs/D57.png"",""materials/imgs/D106.png""]","false","random","","",""
"","","","","","html-keyboard-response","340","342915","0.0-19.0-0.0-0.2","wlf073jz6j","","wlf073jz6j","""2024-11-12T18:14:00.728Z""","null","+","null","","","","","","",""
"","","","","","image-keyboard-response","341","344188","0.0-19.0-0.0-1.2","wlf073jz6j","","wlf073jz6j","""2024-11-12T18:14:00.728Z""","1271","materials/imgs/D92.png","arrowleft","","[""materials/imgs/D66.png"",""materials/imgs/D14.png""]","false","random","","",""
"","","","","","html-keyboard-response","342","344690","0.0-19.0-0.0-0.3","wlf073jz6j","","wlf073jz6j","""2024-11-12T18:14:00.728Z""","null","+","null","","","","","","",""
"","","","","","image-keyboard-response","343","346732","0.0-19.0-0.0-1.3","wlf073jz6j","","wlf073jz6j","""2024-11-12T18:14:00.728Z""","2040","materials/imgs/D9.png","arrowright","","[""materials/imgs/D53.png"",""materials/imgs/D78.png""]","false","random","","",""
"","","","","","html-keyboard-response","344","347233","0.0-19.0-0.0-0.4","wlf073jz6j","","wlf073jz6j","""2024-11-12T18:14:00.728Z""","null","+","null","","","","","","",""
"","","","","","image-keyboard-response","345","348337","0.0-19.0-0.0-1.4","wlf073jz6j","","wlf073jz6j","""2024-11-12T18:14:00.728Z""","1101","materials/imgs/D53.png","arrowleft","","[""materials/imgs/D16.png"",""materials/imgs/D37.png""]","false","random","","",""
"","","","","","html-keyboard-response","346","348838","0.0-19.0-0.0-0.5","wlf073jz6j","","wlf073jz6j","""2024-11-12T18:14:00.728Z""","null","+","null","","","","","","",""
"","","","","","image-keyboard-response","347","351017","0.0-19.0-0.0-1.5","wlf073jz6j","","wlf073jz6j","""2024-11-12T18:14:00.728Z""","2177","materials/imgs/D85.png","arrowright","","[""materials/imgs/D8.png"",""materials/imgs/D22.png""]","false","random","","",""
"","","","","","html-keyboard-response","348","351519","0.0-19.0-0.0-0.6","wlf073jz6j","","wlf073jz6j","""2024-11-12T18:14:00.728Z""","null","+","null","","","","","","",""
"","","","","","image-keyboard-response","349","353007","0.0-19.0-0.0-1.6","wlf073jz6j","","wlf073jz6j","""2024-11-12T18:14:00.728Z""","1487","materials/imgs/D51.png","arrowleft","","[""materials/imgs/D95.png"",""materials/imgs/D46.png""]","false","random","","",""
"","","","","","html-keyboard-response","350","353509","0.0-19.0-1.0-0.0","wlf073jz6j","","wlf073jz6j","""2024-11-12T18:14:00.728Z""","null","+","null","","","","","","",""
"","","","","","image-keyboard-response","351","354224","0.0-19.0-1.0-1.0","wlf073jz6j","","wlf073jz6j","""2024-11-12T18:14:00.728Z""","714","materials/imgs/D46.png","arrowleft","","[""materials/imgs/D46.png"",""materials/imgs/D26.png""]","","check","materials/imgs/D46.png","0","true"
"","","","","","html-keyboard-response","352","354726","0.0-19.0-2.0-0.0","wlf073jz6j","","wlf073jz6j","""2024-11-12T18:14:00.728Z""","null","+","null","","","","","","",""
"","","","","","image-keyboard-response","353","356423","0.0-19.0-2.0-1.0","wlf073jz6j","","wlf073jz6j","""2024-11-12T18:14:00.728Z""","1695","materials/imgs/D102.png","arrowright","","[""materials/imgs/D32.png"",""materials/imgs/D111.png""]","false","validation","","",""
"","","","","","html-keyboard-response","354","356924","0.0-19.0-2.0-0.1","wlf073jz6j","","wlf073jz6j","""2024-11-12T18:14:00.728Z""","null","+","null","","","","","","",""
"","","","","","image-keyboard-response","355","357878","0.0-19.0-2.0-1.1","wlf073jz6j","","wlf073jz6j","""2024-11-12T18:14:00.728Z""","953","materials/imgs/D111.png","arrowleft","","[""materials/imgs/D82.png"",""materials/imgs/D95.png""]","false","validation","","",""
"","","","","","html-keyboard-response","356","358379","0.0-19.0-0.1-0.7","wlf073jz6j","","wlf073jz6j","""2024-11-12T18:14:00.728Z""","null","+","null","","","","","","",""
"","","","","","image-keyboard-response","357","360617","0.0-19.0-0.1-1.7","wlf073jz6j","","wlf073jz6j","""2024-11-12T18:14:00.728Z""","2236","materials/imgs/D36.png","arrowright","","[""materials/imgs/D74.png"",""materials/imgs/D46.png""]","false","random","","",""
"","","","","","html-keyboard-response","358","361118","0.0-19.0-0.1-0.8","wlf073jz6j","","wlf073jz6j","""2024-11-12T18:14:00.728Z""","null","+","null","","","","","","",""
"","","","","","image-keyboard-response","359","362902","0.0-19.0-0.1-1.8","wlf073jz6j","","wlf073jz6j","""2024-11-12T18:14:00.728Z""","1782","materials/imgs/D19.png","arrowleft","","[""materials/imgs/D51.png"",""materials/imgs/D102.png""]","false","random","","",""
"","","","","","html-keyboard-response","360","363403","0.0-19.0-0.1-0.9","wlf073jz6j","","wlf073jz6j","""2024-11-12T18:14:00.728Z""","null","+","null","","","","","","",""
"","","","","","image-keyboard-response","361","367553","0.0-19.0-0.1-1.9","wlf073jz6j","","wlf073jz6j","""2024-11-12T18:14:00.728Z""","4148","materials/imgs/D96.png","arrowright","","[""materials/imgs/D106.png"",""materials/imgs/D4.png""]","false","random","","",""
"","","","","","html-keyboard-response","362","368055","0.0-19.0-0.1-0.10","wlf073jz6j","","wlf073jz6j","""2024-11-12T18:14:00.728Z""","null","+","null","","","","","","",""
"","","","","","image-keyboard-response","363","368878","0.0-19.0-0.1-1.10","wlf073jz6j","","wlf073jz6j","""2024-11-12T18:14:00.728Z""","822","materials/imgs/D14.png","arrowright","","[""materials/imgs/D26.png"",""materials/imgs/D21.png""]","false","random","","",""
"","","","","","html-keyboard-response","364","369380","0.0-19.0-0.1-0.11","wlf073jz6j","","wlf073jz6j","""2024-11-12T18:14:00.728Z""","null","+","null","","","","","","",""
"","","","","","image-keyboard-response","365","371500","0.0-19.0-0.1-1.11","wlf073jz6j","","wlf073jz6j","""2024-11-12T18:14:00.728Z""","2119","materials/imgs/D17.png","arrowleft","","[""materials/imgs/D103.png"",""materials/imgs/D22.png""]","false","random","","",""
"","","","","","html-keyboard-response","366","372002","0.0-19.0-0.1-0.12","wlf073jz6j","","wlf073jz6j","""2024-11-12T18:14:00.728Z""","null","+","null","","","","","","",""
"","","","","","image-keyboard-response","367","373035","0.0-19.0-0.1-1.12","wlf073jz6j","","wlf073jz6j","""2024-11-12T18:14:00.728Z""","1031","materials/imgs/D74.png","arrowright","","[""materials/imgs/D52.png"",""materials/imgs/D65.png""]","false","random","","",""
"","","","","","html-keyboard-response","368","373536","0.0-19.0-0.1-0.13","wlf073jz6j","","wlf073jz6j","""2024-11-12T18:14:00.728Z""","null","+","null","","","","","","",""
"","","","","","image-keyboard-response","369","375745","0.0-19.0-0.1-1.13","wlf073jz6j","","wlf073jz6j","""2024-11-12T18:14:00.728Z""","2207","materials/imgs/D79.png","arrowright","","[""materials/imgs/D55.png"",""materials/imgs/D81.png""]","false","random","","",""
"","","","","","html-keyboard-response","370","376246","0.0-19.0-1.1-0.1","wlf073jz6j","","wlf073jz6j","""2024-11-12T18:14:00.728Z""","null","+","null","","","","","","",""
"","","","","","image-keyboard-response","371","377124","0.0-19.0-1.1-1.1","wlf073jz6j","","wlf073jz6j","""2024-11-12T18:14:00.728Z""","876","materials/imgs/D18.png","arrowright","","[""materials/imgs/D8.png"",""materials/imgs/D18.png""]","","check","materials/imgs/D18.png","1","true"
"","","","","","html-keyboard-response","372","377625","0.0-19.0-2.1-0.2","wlf073jz6j","","wlf073jz6j","""2024-11-12T18:14:00.728Z""","null","+","null","","","","","","",""
"","","","","","image-keyboard-response","373","378961","0.0-19.0-2.1-1.2","wlf073jz6j","","wlf073jz6j","""2024-11-12T18:14:00.728Z""","1334","materials/imgs/D65.png","arrowleft","","[""materials/imgs/D4.png"",""materials/imgs/D16.png""]","false","validation","","",""
"","","","","","html-keyboard-response","374","379462","0.0-19.0-2.1-0.3","wlf073jz6j","","wlf073jz6j","""2024-11-12T18:14:00.728Z""","null","+","null","","","","","","",""
"","","","","","image-keyboard-response","375","380305","0.0-19.0-2.1-1.3","wlf073jz6j","","wlf073jz6j","""2024-11-12T18:14:00.728Z""","842","materials/imgs/D22.png","arrowleft","","[""materials/imgs/D4.png"",""materials/imgs/D25.png""]","false","validation","","",""
"","","","","","html-keyboard-response","376","380806","0.0-19.0-0.2-0.14","wlf073jz6j","","wlf073jz6j","""2024-11-12T18:14:00.728Z""","null","+","null","","","","","","",""
"","","","","","image-keyboard-response","377","382313","0.0-19.0-0.2-1.14","wlf073jz6j","","wlf073jz6j","""2024-11-12T18:14:00.728Z""","1505","materials/imgs/D20.png","arrowleft","","[""materials/imgs/D111.png"",""materials/imgs/D84.png""]","false","random","","",""
"","","","","","html-keyboard-response","378","382814","0.0-19.0-0.2-0.15","wlf073jz6j","","wlf073jz6j","""2024-11-12T18:14:00.728Z""","null","+","null","","","","","","",""
"","","","","","image-keyboard-response","379","384169","0.0-19.0-0.2-1.15","wlf073jz6j","","wlf073jz6j","""2024-11-12T18:14:00.728Z""","1353","materials/imgs/D21.png","arrowleft","","[""materials/imgs/D34.png"",""materials/imgs/D25.png""]","false","random","","",""
"","","","","","html-keyboard-response","380","384671","0.0-19.0-0.2-0.16","wlf073jz6j","","wlf073jz6j","""2024-11-12T18:14:00.728Z""","null","+","null","","","","","","",""
"","","","","","image-keyboard-response","381","385465","0.0-19.0-0.2-1.16","wlf073jz6j","","wlf073jz6j","""2024-11-12T18:14:00.728Z""","792","materials/imgs/D101.png","arrowright","","[""materials/imgs/D49.png"",""materials/imgs/D3.png""]","false","random","","",""
"","","","","","html-keyboard-response","382","385966","0.0-19.0-0.2-0.17","wlf073jz6j","","wlf073jz6j","""2024-11-12T18:14:00.728Z""","null","+","null","","","","","","",""
"","","","","","image-keyboard-response","383","386699","0.0-19.0-0.2-1.17","wlf073jz6j","","wlf073jz6j","""2024-11-12T18:14:00.728Z""","731","materials/imgs/D8.png","arrowleft","","[""materials/imgs/D102.png"",""materials/imgs/D49.png""]","false","random","","",""
"","","","","","html-keyboard-response","384","387200","0.0-19.0-0.2-0.18","wlf073jz6j","","wlf073jz6j","""2024-11-12T18:14:00.728Z""","null","+","null","","","","","","",""
"","","","","","image-keyboard-response","385","388105","0.0-19.0-0.2-1.18","wlf073jz6j","","wlf073jz6j","""2024-11-12T18:14:00.728Z""","903","materials/imgs/D95.png","arrowright","","[""materials/imgs/D16.png"",""materials/imgs/D92.png""]","false","random","","",""
"","","","","","html-keyboard-response","386","388607","0.0-19.0-0.2-0.19","wlf073jz6j","","wlf073jz6j","""2024-11-12T18:14:00.728Z""","null","+","null","","","","","","",""
"","","","","","image-keyboard-response","387","389441","0.0-19.0-0.2-1.19","wlf073jz6j","","wlf073jz6j","""2024-11-12T18:14:00.728Z""","832","materials/imgs/D68.png","arrowleft","","[""materials/imgs/D95.png"",""materials/imgs/D105.png""]","false","random","","",""
"","","","","","html-keyboard-response","388","389942","0.0-19.0-0.2-0.20","wlf073jz6j","","wlf073jz6j","""2024-11-12T18:14:00.728Z""","null","+","null","","","","","","",""
"","","","","","image-keyboard-response","389","390743","0.0-19.0-0.2-1.20","wlf073jz6j","","wlf073jz6j","""2024-11-12T18:14:00.728Z""","799","materials/imgs/D101.png","arrowright","","[""materials/imgs/D106.png"",""materials/imgs/D34.png""]","false","random","","",""
"","","","","","html-keyboard-response","390","391244","0.0-19.0-1.2-0.2","wlf073jz6j","","wlf073jz6j","""2024-11-12T18:14:00.728Z""","null","+","null","","","","","","",""
"","","","","","image-keyboard-response","391","391737","0.0-19.0-1.2-1.2","wlf073jz6j","","wlf073jz6j","""2024-11-12T18:14:00.728Z""","491","materials/imgs/D101.png","arrowright","","[""materials/imgs/D106.png"",""materials/imgs/D101.png""]","","check","materials/imgs/D101.png","1","true"
"","","","","","html-keyboard-response","392","392238","0.0-19.0-2.2-0.4","wlf073jz6j","","wlf073jz6j","""2024-11-12T18:14:00.728Z""","null","+","null","","","","","","",""
"","","","","","image-keyboard-response","393","393793","0.0-19.0-2.2-1.4","wlf073jz6j","","wlf073jz6j","""2024-11-12T18:14:00.728Z""","1553","materials/imgs/D51.png","arrowright","","[""materials/imgs/D92.png"",""materials/imgs/D20.png""]","false","validation","","",""
"","","","","","html-keyboard-response","394","394294","0.0-19.0-2.2-0.5","wlf073jz6j","","wlf073jz6j","""2024-11-12T18:14:00.728Z""","null","+","null","","","","","","",""
"","","","","","image-keyboard-response","395","394994","0.0-19.0-2.2-1.5","wlf073jz6j","","wlf073jz6j","""2024-11-12T18:14:00.728Z""","699","materials/imgs/D53.png","arrowleft","","[""materials/imgs/D77.png"",""materials/imgs/D75.png""]","false","validation","","",""
"","","","","","html-keyboard-response","396","395495","0.0-19.0-0.3-0.21","wlf073jz6j","","wlf073jz6j","""2024-11-12T18:14:00.728Z""","null","+","null","","","","","","",""
"","","","","","image-keyboard-response","397","396905","0.0-19.0-0.3-1.21","wlf073jz6j","","wlf073jz6j","""2024-11-12T18:14:00.728Z""","1408","materials/imgs/D4.png","arrowright","","[""materials/imgs/D37.png"",""materials/imgs/D66.png""]","false","random","","",""
"","","","","","html-keyboard-response","398","397406","0.0-19.0-0.3-0.22","wlf073jz6j","","wlf073jz6j","""2024-11-12T18:14:00.728Z""","null","+","null","","","","","","",""
"","","","","","image-keyboard-response","399","398719","0.0-19.0-0.3-1.22","wlf073jz6j","","wlf073jz6j","""2024-11-12T18:14:00.728Z""","1311","materials/imgs/D37.png","arrowleft","","[""materials/imgs/D16.png"",""materials/imgs/D77.png""]","false","random","","",""
"","","","","","html-keyboard-response","400","399220","0.0-19.0-0.3-0.23","wlf073jz6j","","wlf073jz6j","""2024-11-12T18:14:00.728Z""","null","+","null","","","","","","",""
"","","","","","image-keyboard-response","401","400711","0.0-19.0-0.3-1.23","wlf073jz6j","","wlf073jz6j","""2024-11-12T18:14:00.728Z""","1489","materials/imgs/D35.png","arrowright","","[""materials/imgs/D55.png"",""materials/imgs/D80.png""]","false","random","","",""
"","","","","","html-keyboard-response","402","401213","0.0-19.0-0.3-0.24","wlf073jz6j","","wlf073jz6j","""2024-11-12T18:14:00.728Z""","null","+","null","","","","","","",""
"","","","","","image-keyboard-response","403","403274","0.0-19.0-0.3-1.24","wlf073jz6j","","wlf073jz6j","""2024-11-12T18:14:00.728Z""","2059","materials/imgs/D19.png","arrowleft","","[""materials/imgs/D56.png"",""materials/imgs/D29.png""]","false","random","","",""
"","","","","","html-keyboard-response","404","403775","0.0-19.0-0.3-0.25","wlf073jz6j","","wlf073jz6j","""2024-11-12T18:14:00.728Z""","null","+","null","","","","","","",""
"","","","","","image-keyboard-response","405","404811","0.0-19.0-0.3-1.25","wlf073jz6j","","wlf073jz6j","""2024-11-12T18:14:00.728Z""","1034","materials/imgs/D81.png","arrowleft","","[""materials/imgs/D82.png"",""materials/imgs/D36.png""]","false","random","","",""
"","","","","","html-keyboard-response","406","405312","0.0-19.0-0.3-0.26","wlf073jz6j","","wlf073jz6j","""2024-11-12T18:14:00.728Z""","null","+","null","","","","","","",""
"","","","","","image-keyboard-response","407","406470","0.0-19.0-0.3-1.26","wlf073jz6j","","wlf073jz6j","""2024-11-12T18:14:00.728Z""","1156","materials/imgs/D48.png","arrowleft","","[""materials/imgs/D37.png"",""materials/imgs/D78.png""]","false","random","","",""
"","","","","","html-keyboard-response","408","406972","0.0-19.0-0.3-0.27","wlf073jz6j","","wlf073jz6j","""2024-11-12T18:14:00.728Z""","null","+","null","","","","","","",""
"","","","","","image-keyboard-response","409","408467","0.0-19.0-0.3-1.27","wlf073jz6j","","wlf073jz6j","""2024-11-12T18:14:00.728Z""","1494","materials/imgs/D94.png","arrowright","","[""materials/imgs/D53.png"",""materials/imgs/D103.png""]","false","random","","",""
"","","","","","html-keyboard-response","410","408969","0.0-19.0-1.3-0.3","wlf073jz6j","","wlf073jz6j","""2024-11-12T18:14:00.728Z""","null","+","null","","","","","","",""
"","","","","","image-keyboard-response","411","409481","0.0-19.0-1.3-1.3","wlf073jz6j","","wlf073jz6j","""2024-11-12T18:14:00.728Z""","511","materials/imgs/D8.png","arrowright","","[""materials/imgs/D18.png"",""materials/imgs/D8.png""]","","check","materials/imgs/D8.png","1","true"
"","","","","","html-keyboard-response","412","409983","0.0-19.0-2.3-0.6","wlf073jz6j","","wlf073jz6j","""2024-11-12T18:14:00.728Z""","null","+","null","","","","","","",""
"","","","","","image-keyboard-response","413","411231","0.0-19.0-2.3-1.6","wlf073jz6j","","wlf073jz6j","""2024-11-12T18:14:00.728Z""","1247","materials/imgs/D92.png","arrowleft","","[""materials/imgs/D56.png"",""materials/imgs/D77.png""]","false","validation","","",""
"","","","","","html-keyboard-response","414","411732","0.0-19.0-2.3-0.7","wlf073jz6j","","wlf073jz6j","""2024-11-12T18:14:00.728Z""","null","+","null","","","","","","",""
"","","","","","image-keyboard-response","415","412882","0.0-19.0-2.3-1.7","wlf073jz6j","","wlf073jz6j","""2024-11-12T18:14:00.728Z""","1148","materials/imgs/D111.png","arrowleft","","[""materials/imgs/D82.png"",""materials/imgs/D95.png""]","false","validation","","",""
"","","","","","html-keyboard-response","416","413383","0.0-19.0-0.4-0.28","wlf073jz6j","","wlf073jz6j","""2024-11-12T18:14:00.728Z""","null","+","null","","","","","","",""
"","","","","","image-keyboard-response","417","414514","0.0-19.0-0.4-1.28","wlf073jz6j","","wlf073jz6j","""2024-11-12T18:14:00.728Z""","1129","materials/imgs/D56.png","arrowright","","[""materials/imgs/D66.png"",""materials/imgs/D82.png""]","false","random","","",""
"","","","","","html-keyboard-response","418","415016","0.0-19.0-0.4-0.29","wlf073jz6j","","wlf073jz6j","""2024-11-12T18:14:00.728Z""","null","+","null","","","","","","",""
"","","","","","image-keyboard-response","419","416246","0.0-19.0-0.4-1.29","wlf073jz6j","","wlf073jz6j","""2024-11-12T18:14:00.728Z""","1228","materials/imgs/D56.png","arrowleft","","[""materials/imgs/D74.png"",""materials/imgs/D25.png""]","false","random","","",""
"","","","","","html-keyboard-response","420","416747","0.0-19.0-0.4-0.30","wlf073jz6j","","wlf073jz6j","""2024-11-12T18:14:00.728Z""","null","+","null","","","","","","",""
"","","","","","image-keyboard-response","421","418041","0.0-19.0-0.4-1.30","wlf073jz6j","","wlf073jz6j","""2024-11-12T18:14:00.728Z""","1292","materials/imgs/D36.png","arrowleft","","[""materials/imgs/D64.png"",""materials/imgs/D4.png""]","false","random","","",""
"","","","","","html-keyboard-response","422","418542","0.0-19.0-0.4-0.31","wlf073jz6j","","wlf073jz6j","""2024-11-12T18:14:00.728Z""","null","+","null","","","","","","",""
"","","","","","image-keyboard-response","423","419583","0.0-19.0-0.4-1.31","wlf073jz6j","","wlf073jz6j","""2024-11-12T18:14:00.728Z""","1039","materials/imgs/D106.png","arrowright","","[""materials/imgs/D29.png"",""materials/imgs/D17.png""]","false","random","","",""
"","","","","","html-keyboard-response","424","420084","0.0-19.0-0.4-0.32","wlf073jz6j","","wlf073jz6j","""2024-11-12T18:14:00.728Z""","null","+","null","","","","","","",""
"","","","","","image-keyboard-response","425","421652","0.0-19.0-0.4-1.32","wlf073jz6j","","wlf073jz6j","""2024-11-12T18:14:00.728Z""","1566","materials/imgs/D17.png","arrowright","","[""materials/imgs/D76.png"",""materials/imgs/D32.png""]","false","random","","",""
"","","","","","html-keyboard-response","426","422153","0.0-19.0-0.4-0.33","wlf073jz6j","","wlf073jz6j","""2024-11-12T18:14:00.728Z""","null","+","null","","","","","","",""
"","","","","","image-keyboard-response","427","423980","0.0-19.0-0.4-1.33","wlf073jz6j","","wlf073jz6j","""2024-11-12T18:14:00.728Z""","1825","materials/imgs/D52.png","arrowright","","[""materials/imgs/D65.png"",""materials/imgs/D34.png""]","false","random","","",""
"","","","","","html-keyboard-response","428","424481","0.0-19.0-0.4-0.34","wlf073jz6j","","wlf073jz6j","""2024-11-12T18:14:00.728Z""","null","+","null","","","","","","",""
"","","","","","image-keyboard-response","429","425869","0.0-19.0-0.4-1.34","wlf073jz6j","","wlf073jz6j","""2024-11-12T18:14:00.728Z""","1386","materials/imgs/D8.png","arrowright","","[""materials/imgs/D79.png"",""materials/imgs/D77.png""]","false","random","","",""
"","","","","","html-keyboard-response","430","426370","0.0-19.0-1.4-0.4","wlf073jz6j","","wlf073jz6j","""2024-11-12T18:14:00.728Z""","null","+","null","","","","","","",""
"","","","","","image-keyboard-response","431","426946","0.0-19.0-1.4-1.4","wlf073jz6j","","wlf073jz6j","""2024-11-12T18:14:00.728Z""","574","materials/imgs/D78.png","arrowright","","[""materials/imgs/D76.png"",""materials/imgs/D78.png""]","","check","materials/imgs/D78.png","1","true"
"","","","","","html-keyboard-response","432","427448","0.0-19.0-2.4-0.8","wlf073jz6j","","wlf073jz6j","""2024-11-12T18:14:00.728Z""","null","+","null","","","","","","",""
"","","","","","image-keyboard-response","433","428861","0.0-19.0-2.4-1.8","wlf073jz6j","","wlf073jz6j","""2024-11-12T18:14:00.728Z""","1411","materials/imgs/D18.png","arrowleft","","[""materials/imgs/D32.png"",""materials/imgs/D57.png""]","false","validation","","",""
"","","","","","html-keyboard-response","434","429362","0.0-19.0-2.4-0.9","wlf073jz6j","","wlf073jz6j","""2024-11-12T18:14:00.728Z""","null","+","null","","","","","","",""
"","","","","","image-keyboard-response","435","431286","0.0-19.0-2.4-1.9","wlf073jz6j","","wlf073jz6j","""2024-11-12T18:14:00.728Z""","1922","materials/imgs/D36.png","arrowright","","[""materials/imgs/D47.png"",""materials/imgs/D49.png""]","false","validation","","",""
