"success","timeout","failed_images","failed_audio","failed_video","trial_type","trial_index","time_elapsed","internal_node_id","subject_id","sona_id","subjectID","dateInfo","rt","stimulus","response","question_order","choices","speedy","sampleAlg","selected_image","selected_index","correct"
"true","false","[]","[]","[]","preload","0","754","0.0-0.0","x321hmua4d","","x321hmua4d","""2024-11-12T18:36:20.219Z""","","","","","","","","","",""
"true","","","","","fullscreen","1","3030","0.0-1.0","x321hmua4d","","x321hmua4d","""2024-11-12T18:36:20.219Z""","","","","","","","","","",""
"","","","","","html-keyboard-response","2","3041","0.0-2.0","x321hmua4d","","x321hmua4d","""2024-11-12T18:36:20.219Z""","null","","null","","","","","","",""
"","","","","","html-button-response","3","5549","0.0-3.0","x321hmua4d","","x321hmua4d","""2024-11-12T18:36:20.219Z""","2504","<div style='text-align:center; font-size:20px; line-height:25px; width: 1200px;'>
                Welcome to our experiment! <br>
                <br>At the bottom of this screen, you will see a button that says 'Begin Experiment.
                <br>Please only click that button when you are ready to complete the 25 minute experiment in one sitting. <br>
                <br> Once you click that button, it will not be possible to restart the experiment. <br><br>","0","","","","","","",""
"true","","","","","fullscreen","4","7340","0.0-4.0","x321hmua4d","","x321hmua4d","""2024-11-12T18:36:20.219Z""","","","","","","","","","",""
"","","","","","survey-multi-select","5","33084","0.0-5.0","x321hmua4d","","x321hmua4d","""2024-11-12T18:36:20.219Z""","25740","","{""Consent"":[""<strong>I consent</strong>""]}","[0]","","","","","",""
"","","","","","html-button-response","6","34498","0.0-6.0","x321hmua4d","","x321hmua4d","""2024-11-12T18:36:20.219Z""","1414","Welcome! <p> This experiment involves two parts: demographic information, followed by the experimental task.<p> It will take about 25 minutes to complete both parts.","0","","","","","","",""
"","","","","","survey-text","7","70149","0.0-7.0","x321hmua4d","","x321hmua4d","""2024-11-12T18:36:20.219Z""","35645","","{""Age"":""19"",""Gender"":""Male"",""Race/ethnicity"":""Caucasian/African-American ""}","","","","","","",""
"","","","","","html-button-response","8","82560","0.0-8.0","x321hmua4d","","x321hmua4d","""2024-11-12T18:36:20.219Z""","12410","<div style='text-align: center;'>
      <p>In each trial of this task, you will see three texture images: one target item on top, and two choices beneath the target item.</p>
      <p><strong>Please select the item that is most like the target item.</strong></p>
      <p>To select the option on the <strong>LEFT</strong>, press the <strong>LEFT ARROW</strong> key. 
      To select the option on the <strong>RIGHT</strong>, press the <strong>RIGHT ARROW</strong> key.</p>
                  <!-- Target Image at the Top -->
      <div style='margin: 20px;'>
        <img src='materials/imgs/instruction_images/InstructionImg1D78.png' alt='Target Image' style='width:200px; height:auto;' />
        <p><em>Target Image</em></p>
      </div>

      <!-- Two Choice Images Below -->
      <div style='display: flex; justify-content: center;'>
        <div style='margin-right: 50px;'>
          <img src='materials/imgs/instruction_images/InstructionImg2D34.png' alt='Choice Image 1' style='width:150px; height:auto;' />
          <p><em><strong>LEFT ARROW</strong></em></p>
        </div>
        <div style='margin-left: 50px;'>
          <img src='materials/imgs/instruction_images/InstructionImg3D80.png' alt='Choice Image 2' style='width:150px; height:auto;' />
          <p><em><strong>RIGHT ARROW</strong></em></p>
        </div>
      </div>
    </div>

      <p>When you are ready to proceed, please click 'Continue' to begin practice.</p>","0","","","","","","",""
"","","","","","html-keyboard-response","9","85063","0.0-9.0","x321hmua4d","","x321hmua4d","""2024-11-12T18:36:20.219Z""","null","+","null","","","","","","",""
"","","","","","html-keyboard-response","10","85564","0.0-10.0-0.0-0.0","x321hmua4d","","x321hmua4d","""2024-11-12T18:36:20.219Z""","null","+","null","","","","","","",""
"","","","","","image-keyboard-response","11","86306","0.0-10.0-0.0-1.0","x321hmua4d","","x321hmua4d","""2024-11-12T18:36:20.219Z""","738","materials/imgs/D92.png","arrowleft","","[""materials/imgs/D55.png"",""materials/imgs/D81.png""]","false","random","","",""
"","","","","","html-keyboard-response","12","86807","0.0-10.0-0.0-0.1","x321hmua4d","","x321hmua4d","""2024-11-12T18:36:20.219Z""","null","+","null","","","","","","",""
"","","","","","image-keyboard-response","13","88471","0.0-10.0-0.0-1.1","x321hmua4d","","x321hmua4d","""2024-11-12T18:36:20.219Z""","1662","materials/imgs/D53.png","arrowleft","","[""materials/imgs/D103.png"",""materials/imgs/D51.png""]","false","random","","",""
"","","","","","html-keyboard-response","14","88973","0.0-10.0-0.0-0.2","x321hmua4d","","x321hmua4d","""2024-11-12T18:36:20.219Z""","null","+","null","","","","","","",""
"","","","","","image-keyboard-response","15","90639","0.0-10.0-0.0-1.2","x321hmua4d","","x321hmua4d","""2024-11-12T18:36:20.219Z""","1665","materials/imgs/D103.png","arrowright","","[""materials/imgs/D16.png"",""materials/imgs/D84.png""]","false","random","","",""
"","","","","","html-keyboard-response","16","91141","0.0-10.0-0.0-0.3","x321hmua4d","","x321hmua4d","""2024-11-12T18:36:20.219Z""","null","+","null","","","","","","",""
"","","","","","image-keyboard-response","17","92433","0.0-10.0-0.0-1.3","x321hmua4d","","x321hmua4d","""2024-11-12T18:36:20.219Z""","1287","materials/imgs/D36.png","arrowright","","[""materials/imgs/D35.png"",""materials/imgs/D104.png""]","false","random","","",""
"","","","","","html-keyboard-response","18","92934","0.0-10.0-0.0-0.4","x321hmua4d","","x321hmua4d","""2024-11-12T18:36:20.219Z""","null","+","null","","","","","","",""
"","","","","","image-keyboard-response","19","94107","0.0-10.0-0.0-1.4","x321hmua4d","","x321hmua4d","""2024-11-12T18:36:20.219Z""","1170","materials/imgs/D22.png","arrowright","","[""materials/imgs/D19.png"",""materials/imgs/D53.png""]","false","random","","",""
"","","","","","html-keyboard-response","20","94609","0.0-10.0-0.0-0.5","x321hmua4d","","x321hmua4d","""2024-11-12T18:36:20.219Z""","null","+","null","","","","","","",""
"","","","","","image-keyboard-response","21","96397","0.0-10.0-0.0-1.5","x321hmua4d","","x321hmua4d","""2024-11-12T18:36:20.219Z""","1786","materials/imgs/D35.png","arrowleft","","[""materials/imgs/D46.png"",""materials/imgs/D105.png""]","false","random","","",""
"","","","","","html-keyboard-response","22","96898","0.0-10.0-0.0-0.6","x321hmua4d","","x321hmua4d","""2024-11-12T18:36:20.219Z""","null","+","null","","","","","","",""
"","","","","","image-keyboard-response","23","98149","0.0-10.0-0.0-1.6","x321hmua4d","","x321hmua4d","""2024-11-12T18:36:20.219Z""","1249","materials/imgs/D16.png","arrowright","","[""materials/imgs/D82.png"",""materials/imgs/D14.png""]","false","random","","",""
"","","","","","html-keyboard-response","24","98651","0.0-10.0-0.0-0.7","x321hmua4d","","x321hmua4d","""2024-11-12T18:36:20.219Z""","null","+","null","","","","","","",""
"","","","","","image-keyboard-response","25","99585","0.0-10.0-0.0-1.7","x321hmua4d","","x321hmua4d","""2024-11-12T18:36:20.219Z""","926","materials/imgs/D24.png","arrowright","","[""materials/imgs/D65.png"",""materials/imgs/D92.png""]","false","random","","",""
"","","","","","html-keyboard-response","26","100087","0.0-10.0-0.0-0.8","x321hmua4d","","x321hmua4d","""2024-11-12T18:36:20.219Z""","null","+","null","","","","","","",""
"","","","","","image-keyboard-response","27","101198","0.0-10.0-0.0-1.8","x321hmua4d","","x321hmua4d","""2024-11-12T18:36:20.219Z""","1104","materials/imgs/D47.png","arrowright","","[""materials/imgs/D6.png"",""materials/imgs/D48.png""]","false","random","","",""
"","","","","","html-keyboard-response","28","101699","0.0-10.0-0.0-0.9","x321hmua4d","","x321hmua4d","""2024-11-12T18:36:20.219Z""","null","+","null","","","","","","",""
"","","","","","image-keyboard-response","29","103159","0.0-10.0-0.0-1.9","x321hmua4d","","x321hmua4d","""2024-11-12T18:36:20.219Z""","1451","materials/imgs/D74.png","arrowright","","[""materials/imgs/D37.png"",""materials/imgs/D36.png""]","false","random","","",""
"","","","","","html-button-response","30","106922","0.0-11.0","x321hmua4d","","x321hmua4d","""2024-11-12T18:36:20.219Z""","3763","<p>Great job!</p>
      <p>You are now ready to begin the experiment.</p>
      <p>There will be around 200 trials. You will have opportunities to take breaks at three stages of the trials.</p>
      <p>When you are ready to begin please click 'Continue'.</p>","0","","","","","","",""
"","","","","","html-keyboard-response","31","109424","0.0-12.0","x321hmua4d","","x321hmua4d","""2024-11-12T18:36:20.219Z""","null","+","null","","","","","","",""
"","","","","","html-keyboard-response","32","109926","0.0-13.0-0.0-0.0","x321hmua4d","","x321hmua4d","""2024-11-12T18:36:20.219Z""","null","+","null","","","","","","",""
"","","","","","image-keyboard-response","33","110835","0.0-13.0-0.0-1.0","x321hmua4d","","x321hmua4d","""2024-11-12T18:36:20.219Z""","907","materials/imgs/D103.png","arrowright","","[""materials/imgs/D56.png"",""materials/imgs/D16.png""]","false","random","","",""
"","","","","","html-keyboard-response","34","111337","0.0-13.0-0.0-0.1","x321hmua4d","","x321hmua4d","""2024-11-12T18:36:20.219Z""","null","+","null","","","","","","",""
"","","","","","image-keyboard-response","35","112066","0.0-13.0-0.0-1.1","x321hmua4d","","x321hmua4d","""2024-11-12T18:36:20.219Z""","721","materials/imgs/D83.png","arrowleft","","[""materials/imgs/D105.png"",""materials/imgs/D57.png""]","false","random","","",""
"","","","","","html-keyboard-response","36","112567","0.0-13.0-0.0-0.2","x321hmua4d","","x321hmua4d","""2024-11-12T18:36:20.219Z""","null","+","null","","","","","","",""
"","","","","","image-keyboard-response","37","113538","0.0-13.0-0.0-1.2","x321hmua4d","","x321hmua4d","""2024-11-12T18:36:20.219Z""","969","materials/imgs/D81.png","arrowright","","[""materials/imgs/D64.png"",""materials/imgs/D36.png""]","false","random","","",""
"","","","","","html-keyboard-response","38","114040","0.0-13.0-0.0-0.3","x321hmua4d","","x321hmua4d","""2024-11-12T18:36:20.219Z""","null","+","null","","","","","","",""
"","","","","","image-keyboard-response","39","115134","0.0-13.0-0.0-1.3","x321hmua4d","","x321hmua4d","""2024-11-12T18:36:20.219Z""","1093","materials/imgs/D103.png","arrowleft","","[""materials/imgs/D17.png"",""materials/imgs/D52.png""]","false","random","","",""
"","","","","","html-keyboard-response","40","115636","0.0-13.0-0.0-0.4","x321hmua4d","","x321hmua4d","""2024-11-12T18:36:20.219Z""","null","+","null","","","","","","",""
"","","","","","image-keyboard-response","41","116879","0.0-13.0-0.0-1.4","x321hmua4d","","x321hmua4d","""2024-11-12T18:36:20.219Z""","1241","materials/imgs/D92.png","arrowleft","","[""materials/imgs/D47.png"",""materials/imgs/D51.png""]","false","random","","",""
"","","","","","html-keyboard-response","42","117381","0.0-13.0-0.0-0.5","x321hmua4d","","x321hmua4d","""2024-11-12T18:36:20.219Z""","null","+","null","","","","","","",""
"","","","","","image-keyboard-response","43","118371","0.0-13.0-0.0-1.5","x321hmua4d","","x321hmua4d","""2024-11-12T18:36:20.219Z""","983","materials/imgs/D77.png","arrowright","","[""materials/imgs/D55.png"",""materials/imgs/D53.png""]","false","random","","",""
"","","","","","html-keyboard-response","44","118873","0.0-13.0-0.0-0.6","x321hmua4d","","x321hmua4d","""2024-11-12T18:36:20.219Z""","null","+","null","","","","","","",""
"","","","","","image-keyboard-response","45","120351","0.0-13.0-0.0-1.6","x321hmua4d","","x321hmua4d","""2024-11-12T18:36:20.219Z""","1471","materials/imgs/D4.png","arrowleft","","[""materials/imgs/D37.png"",""materials/imgs/D51.png""]","false","random","","",""
"","","","","","html-keyboard-response","46","120853","0.0-13.0-1.0-0.0","x321hmua4d","","x321hmua4d","""2024-11-12T18:36:20.219Z""","null","+","null","","","","","","",""
"","","","","","image-keyboard-response","47","121665","0.0-13.0-1.0-1.0","x321hmua4d","","x321hmua4d","""2024-11-12T18:36:20.219Z""","804","materials/imgs/D106.png","arrowleft","","[""materials/imgs/D106.png"",""materials/imgs/D101.png""]","","check","materials/imgs/D106.png","0","true"
"","","","","","html-keyboard-response","48","122166","0.0-13.0-2.0-0.0","x321hmua4d","","x321hmua4d","""2024-11-12T18:36:20.219Z""","null","+","null","","","","","","",""
"","","","","","image-keyboard-response","49","123238","0.0-13.0-2.0-1.0","x321hmua4d","","x321hmua4d","""2024-11-12T18:36:20.219Z""","1071","materials/imgs/D16.png","arrowleft","","[""materials/imgs/D52.png"",""materials/imgs/D25.png""]","false","validation","","",""
"","","","","","html-keyboard-response","50","123741","0.0-13.0-2.0-0.1","x321hmua4d","","x321hmua4d","""2024-11-12T18:36:20.219Z""","null","+","null","","","","","","",""
"","","","","","image-keyboard-response","51","124639","0.0-13.0-2.0-1.1","x321hmua4d","","x321hmua4d","""2024-11-12T18:36:20.219Z""","890","materials/imgs/D66.png","arrowright","","[""materials/imgs/D85.png"",""materials/imgs/D25.png""]","false","validation","","",""
"","","","","","html-keyboard-response","52","125140","0.0-13.0-0.1-0.7","x321hmua4d","","x321hmua4d","""2024-11-12T18:36:20.219Z""","null","+","null","","","","","","",""
"","","","","","image-keyboard-response","53","126369","0.0-13.0-0.1-1.7","x321hmua4d","","x321hmua4d","""2024-11-12T18:36:20.219Z""","1227","materials/imgs/D36.png","arrowleft","","[""materials/imgs/D75.png"",""materials/imgs/D48.png""]","false","random","","",""
"","","","","","html-keyboard-response","54","126871","0.0-13.0-0.1-0.8","x321hmua4d","","x321hmua4d","""2024-11-12T18:36:20.219Z""","null","+","null","","","","","","",""
"","","","","","image-keyboard-response","55","128547","0.0-13.0-0.1-1.8","x321hmua4d","","x321hmua4d","""2024-11-12T18:36:20.219Z""","1675","materials/imgs/D83.png","arrowright","","[""materials/imgs/D25.png"",""materials/imgs/D24.png""]","false","random","","",""
"","","","","","html-keyboard-response","56","129048","0.0-13.0-0.1-0.9","x321hmua4d","","x321hmua4d","""2024-11-12T18:36:20.219Z""","null","+","null","","","","","","",""
"","","","","","image-keyboard-response","57","129986","0.0-13.0-0.1-1.9","x321hmua4d","","x321hmua4d","""2024-11-12T18:36:20.219Z""","936","materials/imgs/D52.png","arrowright","","[""materials/imgs/D76.png"",""materials/imgs/D32.png""]","false","random","","",""
"","","","","","html-keyboard-response","58","130488","0.0-13.0-0.1-0.10","x321hmua4d","","x321hmua4d","""2024-11-12T18:36:20.219Z""","null","+","null","","","","","","",""
"","","","","","image-keyboard-response","59","131341","0.0-13.0-0.1-1.10","x321hmua4d","","x321hmua4d","""2024-11-12T18:36:20.219Z""","851","materials/imgs/D19.png","arrowleft","","[""materials/imgs/D24.png"",""materials/imgs/D34.png""]","false","random","","",""
"","","","","","html-keyboard-response","60","131843","0.0-13.0-0.1-0.11","x321hmua4d","","x321hmua4d","""2024-11-12T18:36:20.219Z""","null","+","null","","","","","","",""
"","","","","","image-keyboard-response","61","132793","0.0-13.0-0.1-1.11","x321hmua4d","","x321hmua4d","""2024-11-12T18:36:20.219Z""","948","materials/imgs/D56.png","arrowleft","","[""materials/imgs/D76.png"",""materials/imgs/D84.png""]","false","random","","",""
"","","","","","html-keyboard-response","62","133295","0.0-13.0-0.1-0.12","x321hmua4d","","x321hmua4d","""2024-11-12T18:36:20.219Z""","null","+","null","","","","","","",""
"","","","","","image-keyboard-response","63","134765","0.0-13.0-0.1-1.12","x321hmua4d","","x321hmua4d","""2024-11-12T18:36:20.219Z""","1462","materials/imgs/D11.png","arrowleft","","[""materials/imgs/D20.png"",""materials/imgs/D102.png""]","false","random","","",""
"","","","","","html-keyboard-response","64","135267","0.0-13.0-0.1-0.13","x321hmua4d","","x321hmua4d","""2024-11-12T18:36:20.219Z""","null","+","null","","","","","","",""
"","","","","","image-keyboard-response","65","136272","0.0-13.0-0.1-1.13","x321hmua4d","","x321hmua4d","""2024-11-12T18:36:20.219Z""","998","materials/imgs/D95.png","arrowright","","[""materials/imgs/D77.png"",""materials/imgs/D103.png""]","false","random","","",""
"","","","","","html-keyboard-response","66","136774","0.0-13.0-1.1-0.1","x321hmua4d","","x321hmua4d","""2024-11-12T18:36:20.219Z""","null","+","null","","","","","","",""
"","","","","","image-keyboard-response","67","137703","0.0-13.0-1.1-1.1","x321hmua4d","","x321hmua4d","""2024-11-12T18:36:20.219Z""","922","materials/imgs/D78.png","arrowright","","[""materials/imgs/D76.png"",""materials/imgs/D78.png""]","","check","materials/imgs/D78.png","1","true"
"","","","","","html-keyboard-response","68","138205","0.0-13.0-2.1-0.2","x321hmua4d","","x321hmua4d","""2024-11-12T18:36:20.219Z""","null","+","null","","","","","","",""
"","","","","","image-keyboard-response","69","138981","0.0-13.0-2.1-1.2","x321hmua4d","","x321hmua4d","""2024-11-12T18:36:20.219Z""","775","materials/imgs/D48.png","arrowright","","[""materials/imgs/D4.png"",""materials/imgs/D37.png""]","false","validation","","",""
"","","","","","html-keyboard-response","70","139483","0.0-13.0-2.1-0.3","x321hmua4d","","x321hmua4d","""2024-11-12T18:36:20.219Z""","null","+","null","","","","","","",""
"","","","","","image-keyboard-response","71","140225","0.0-13.0-2.1-1.3","x321hmua4d","","x321hmua4d","""2024-11-12T18:36:20.219Z""","741","materials/imgs/D75.png","arrowleft","","[""materials/imgs/D96.png"",""materials/imgs/D4.png""]","false","validation","","",""
"","","","","","html-keyboard-response","72","140726","0.0-13.0-0.2-0.14","x321hmua4d","","x321hmua4d","""2024-11-12T18:36:20.219Z""","null","+","null","","","","","","",""
"","","","","","image-keyboard-response","73","141655","0.0-13.0-0.2-1.14","x321hmua4d","","x321hmua4d","""2024-11-12T18:36:20.219Z""","927","materials/imgs/D85.png","arrowleft","","[""materials/imgs/D83.png"",""materials/imgs/D81.png""]","false","random","","",""
"","","","","","html-keyboard-response","74","142157","0.0-13.0-0.2-0.15","x321hmua4d","","x321hmua4d","""2024-11-12T18:36:20.219Z""","null","+","null","","","","","","",""
"","","","","","image-keyboard-response","75","143203","0.0-13.0-0.2-1.15","x321hmua4d","","x321hmua4d","""2024-11-12T18:36:20.219Z""","1038","materials/imgs/D80.png","arrowright","","[""materials/imgs/D85.png"",""materials/imgs/D78.png""]","false","random","","",""
"","","","","","html-keyboard-response","76","143705","0.0-13.0-0.2-0.16","x321hmua4d","","x321hmua4d","""2024-11-12T18:36:20.219Z""","null","+","null","","","","","","",""
"","","","","","image-keyboard-response","77","144571","0.0-13.0-0.2-1.16","x321hmua4d","","x321hmua4d","""2024-11-12T18:36:20.219Z""","860","materials/imgs/D79.png","arrowright","","[""materials/imgs/D101.png"",""materials/imgs/D105.png""]","false","random","","",""
"","","","","","html-keyboard-response","78","145073","0.0-13.0-0.2-0.17","x321hmua4d","","x321hmua4d","""2024-11-12T18:36:20.219Z""","null","+","null","","","","","","",""
"","","","","","image-keyboard-response","79","145856","0.0-13.0-0.2-1.17","x321hmua4d","","x321hmua4d","""2024-11-12T18:36:20.219Z""","782","materials/imgs/D34.png","arrowleft","","[""materials/imgs/D101.png"",""materials/imgs/D11.png""]","false","random","","",""
"","","","","","html-keyboard-response","80","146357","0.0-13.0-0.2-0.18","x321hmua4d","","x321hmua4d","""2024-11-12T18:36:20.219Z""","null","+","null","","","","","","",""
"","","","","","image-keyboard-response","81","147142","0.0-13.0-0.2-1.18","x321hmua4d","","x321hmua4d","""2024-11-12T18:36:20.219Z""","778","materials/imgs/D94.png","arrowleft","","[""materials/imgs/D106.png"",""materials/imgs/D6.png""]","false","random","","",""
"","","","","","html-keyboard-response","82","147643","0.0-13.0-0.2-0.19","x321hmua4d","","x321hmua4d","""2024-11-12T18:36:20.219Z""","null","+","null","","","","","","",""
"","","","","","image-keyboard-response","83","148470","0.0-13.0-0.2-1.19","x321hmua4d","","x321hmua4d","""2024-11-12T18:36:20.219Z""","819","materials/imgs/D1.png","arrowright","","[""materials/imgs/D104.png"",""materials/imgs/D101.png""]","false","random","","",""
"","","","","","html-keyboard-response","84","148971","0.0-13.0-0.2-0.20","x321hmua4d","","x321hmua4d","""2024-11-12T18:36:20.219Z""","null","+","null","","","","","","",""
"","","","","","image-keyboard-response","85","149780","0.0-13.0-0.2-1.20","x321hmua4d","","x321hmua4d","""2024-11-12T18:36:20.219Z""","802","materials/imgs/D26.png","arrowright","","[""materials/imgs/D55.png"",""materials/imgs/D19.png""]","false","random","","",""
"","","","","","html-keyboard-response","86","150281","0.0-13.0-1.2-0.2","x321hmua4d","","x321hmua4d","""2024-11-12T18:36:20.219Z""","null","+","null","","","","","","",""
"","","","","","image-keyboard-response","87","150917","0.0-13.0-1.2-1.2","x321hmua4d","","x321hmua4d","""2024-11-12T18:36:20.219Z""","635","materials/imgs/D106.png","arrowleft","","[""materials/imgs/D106.png"",""materials/imgs/D101.png""]","","check","materials/imgs/D106.png","0","true"
"","","","","","html-keyboard-response","88","151418","0.0-13.0-2.2-0.4","x321hmua4d","","x321hmua4d","""2024-11-12T18:36:20.219Z""","null","+","null","","","","","","",""
"","","","","","image-keyboard-response","89","152781","0.0-13.0-2.2-1.4","x321hmua4d","","x321hmua4d","""2024-11-12T18:36:20.219Z""","1362","materials/imgs/D6.png","arrowright","","[""materials/imgs/D26.png"",""materials/imgs/D76.png""]","false","validation","","",""
"","","","","","html-keyboard-response","90","153282","0.0-13.0-2.2-0.5","x321hmua4d","","x321hmua4d","""2024-11-12T18:36:20.219Z""","null","+","null","","","","","","",""
"","","","","","image-keyboard-response","91","154012","0.0-13.0-2.2-1.5","x321hmua4d","","x321hmua4d","""2024-11-12T18:36:20.219Z""","725","materials/imgs/D9.png","arrowright","","[""materials/imgs/D103.png"",""materials/imgs/D4.png""]","false","validation","","",""
"","","","","","html-keyboard-response","92","154514","0.0-13.0-0.3-0.21","x321hmua4d","","x321hmua4d","""2024-11-12T18:36:20.219Z""","null","+","null","","","","","","",""
"","","","","","image-keyboard-response","93","155548","0.0-13.0-0.3-1.21","x321hmua4d","","x321hmua4d","""2024-11-12T18:36:20.219Z""","1033","materials/imgs/D96.png","arrowright","","[""materials/imgs/D4.png"",""materials/imgs/D106.png""]","false","random","","",""
"","","","","","html-keyboard-response","94","156049","0.0-13.0-0.3-0.22","x321hmua4d","","x321hmua4d","""2024-11-12T18:36:20.219Z""","null","+","null","","","","","","",""
"","","","","","image-keyboard-response","95","156918","0.0-13.0-0.3-1.22","x321hmua4d","","x321hmua4d","""2024-11-12T18:36:20.219Z""","867","materials/imgs/D81.png","arrowright","","[""materials/imgs/D20.png"",""materials/imgs/D9.png""]","false","random","","",""
"","","","","","html-keyboard-response","96","157420","0.0-13.0-0.3-0.23","x321hmua4d","","x321hmua4d","""2024-11-12T18:36:20.219Z""","null","+","null","","","","","","",""
"","","","","","image-keyboard-response","97","158129","0.0-13.0-0.3-1.23","x321hmua4d","","x321hmua4d","""2024-11-12T18:36:20.219Z""","708","materials/imgs/D17.png","arrowright","","[""materials/imgs/D75.png"",""materials/imgs/D9.png""]","false","random","","",""
"","","","","","html-keyboard-response","98","158630","0.0-13.0-0.3-0.24","x321hmua4d","","x321hmua4d","""2024-11-12T18:36:20.219Z""","null","+","null","","","","","","",""
"","","","","","image-keyboard-response","99","159324","0.0-13.0-0.3-1.24","x321hmua4d","","x321hmua4d","""2024-11-12T18:36:20.219Z""","693","materials/imgs/D96.png","arrowright","","[""materials/imgs/D103.png"",""materials/imgs/D19.png""]","false","random","","",""
"","","","","","html-keyboard-response","100","159826","0.0-13.0-0.3-0.25","x321hmua4d","","x321hmua4d","""2024-11-12T18:36:20.219Z""","null","+","null","","","","","","",""
"","","","","","image-keyboard-response","101","160663","0.0-13.0-0.3-1.25","x321hmua4d","","x321hmua4d","""2024-11-12T18:36:20.219Z""","835","materials/imgs/D77.png","arrowright","","[""materials/imgs/D51.png"",""materials/imgs/D106.png""]","false","random","","",""
"","","","","","html-keyboard-response","102","161165","0.0-13.0-0.3-0.26","x321hmua4d","","x321hmua4d","""2024-11-12T18:36:20.219Z""","null","+","null","","","","","","",""
"","","","","","image-keyboard-response","103","161827","0.0-13.0-0.3-1.26","x321hmua4d","","x321hmua4d","""2024-11-12T18:36:20.219Z""","661","materials/imgs/D84.png","arrowleft","","[""materials/imgs/D95.png"",""materials/imgs/D11.png""]","false","random","","",""
"","","","","","html-keyboard-response","104","162328","0.0-13.0-0.3-0.27","x321hmua4d","","x321hmua4d","""2024-11-12T18:36:20.219Z""","null","+","null","","","","","","",""
"","","","","","image-keyboard-response","105","163075","0.0-13.0-0.3-1.27","x321hmua4d","","x321hmua4d","""2024-11-12T18:36:20.219Z""","745","materials/imgs/D24.png","arrowleft","","[""materials/imgs/D37.png"",""materials/imgs/D96.png""]","false","random","","",""
"","","","","","html-keyboard-response","106","163577","0.0-13.0-1.3-0.3","x321hmua4d","","x321hmua4d","""2024-11-12T18:36:20.219Z""","null","+","null","","","","","","",""
"","","","","","image-keyboard-response","107","164166","0.0-13.0-1.3-1.3","x321hmua4d","","x321hmua4d","""2024-11-12T18:36:20.219Z""","580","materials/imgs/D8.png","arrowright","","[""materials/imgs/D18.png"",""materials/imgs/D8.png""]","","check","materials/imgs/D8.png","1","true"
"","","","","","html-keyboard-response","108","164667","0.0-13.0-2.3-0.6","x321hmua4d","","x321hmua4d","""2024-11-12T18:36:20.219Z""","null","+","null","","","","","","",""
"","","","","","image-keyboard-response","109","165300","0.0-13.0-2.3-1.6","x321hmua4d","","x321hmua4d","""2024-11-12T18:36:20.219Z""","632","materials/imgs/D85.png","arrowleft","","[""materials/imgs/D6.png"",""materials/imgs/D111.png""]","false","validation","","",""
"","","","","","html-keyboard-response","110","165802","0.0-13.0-2.3-0.7","x321hmua4d","","x321hmua4d","""2024-11-12T18:36:20.219Z""","null","+","null","","","","","","",""
"","","","","","image-keyboard-response","111","166430","0.0-13.0-2.3-1.7","x321hmua4d","","x321hmua4d","""2024-11-12T18:36:20.219Z""","627","materials/imgs/D24.png","arrowleft","","[""materials/imgs/D36.png"",""materials/imgs/D8.png""]","false","validation","","",""
"","","","","","html-keyboard-response","112","166932","0.0-13.0-0.4-0.28","x321hmua4d","","x321hmua4d","""2024-11-12T18:36:20.219Z""","null","+","null","","","","","","",""
"","","","","","image-keyboard-response","113","167546","0.0-13.0-0.4-1.28","x321hmua4d","","x321hmua4d","""2024-11-12T18:36:20.219Z""","613","materials/imgs/D78.png","arrowleft","","[""materials/imgs/D16.png"",""materials/imgs/D11.png""]","false","random","","",""
"","","","","","html-keyboard-response","114","168048","0.0-13.0-0.4-0.29","x321hmua4d","","x321hmua4d","""2024-11-12T18:36:20.219Z""","null","+","null","","","","","","",""
"","","","","","image-keyboard-response","115","168864","0.0-13.0-0.4-1.29","x321hmua4d","","x321hmua4d","""2024-11-12T18:36:20.219Z""","815","materials/imgs/D18.png","arrowright","","[""materials/imgs/D85.png"",""materials/imgs/D37.png""]","false","random","","",""
"","","","","","html-keyboard-response","116","169365","0.0-13.0-0.4-0.30","x321hmua4d","","x321hmua4d","""2024-11-12T18:36:20.219Z""","null","+","null","","","","","","",""
"","","","","","image-keyboard-response","117","170035","0.0-13.0-0.4-1.30","x321hmua4d","","x321hmua4d","""2024-11-12T18:36:20.219Z""","668","materials/imgs/D32.png","arrowleft","","[""materials/imgs/D87.png"",""materials/imgs/D25.png""]","false","random","","",""
"","","","","","html-keyboard-response","118","170536","0.0-13.0-0.4-0.31","x321hmua4d","","x321hmua4d","""2024-11-12T18:36:20.219Z""","null","+","null","","","","","","",""
"","","","","","image-keyboard-response","119","171349","0.0-13.0-0.4-1.31","x321hmua4d","","x321hmua4d","""2024-11-12T18:36:20.219Z""","811","materials/imgs/D84.png","arrowleft","","[""materials/imgs/D95.png"",""materials/imgs/D25.png""]","false","random","","",""
"","","","","","html-keyboard-response","120","171850","0.0-13.0-0.4-0.32","x321hmua4d","","x321hmua4d","""2024-11-12T18:36:20.219Z""","null","+","null","","","","","","",""
"","","","","","image-keyboard-response","121","172734","0.0-13.0-0.4-1.32","x321hmua4d","","x321hmua4d","""2024-11-12T18:36:20.219Z""","883","materials/imgs/D81.png","arrowleft","","[""materials/imgs/D103.png"",""materials/imgs/D47.png""]","false","random","","",""
"","","","","","html-keyboard-response","122","173235","0.0-13.0-0.4-0.33","x321hmua4d","","x321hmua4d","""2024-11-12T18:36:20.219Z""","null","+","null","","","","","","",""
"","","","","","image-keyboard-response","123","174315","0.0-13.0-0.4-1.33","x321hmua4d","","x321hmua4d","""2024-11-12T18:36:20.219Z""","1078","materials/imgs/D76.png","arrowright","","[""materials/imgs/D34.png"",""materials/imgs/D18.png""]","false","random","","",""
"","","","","","html-keyboard-response","124","174817","0.0-13.0-0.4-0.34","x321hmua4d","","x321hmua4d","""2024-11-12T18:36:20.219Z""","null","+","null","","","","","","",""
"","","","","","image-keyboard-response","125","175873","0.0-13.0-0.4-1.34","x321hmua4d","","x321hmua4d","""2024-11-12T18:36:20.219Z""","1055","materials/imgs/D78.png","arrowright","","[""materials/imgs/D57.png"",""materials/imgs/D32.png""]","false","random","","",""
"","","","","","html-keyboard-response","126","176375","0.0-13.0-1.4-0.4","x321hmua4d","","x321hmua4d","""2024-11-12T18:36:20.219Z""","null","+","null","","","","","","",""
"","","","","","image-keyboard-response","127","176993","0.0-13.0-1.4-1.4","x321hmua4d","","x321hmua4d","""2024-11-12T18:36:20.219Z""","617","materials/imgs/D76.png","arrowleft","","[""materials/imgs/D76.png"",""materials/imgs/D78.png""]","","check","materials/imgs/D76.png","0","true"
"","","","","","html-keyboard-response","128","177494","0.0-13.0-2.4-0.8","x321hmua4d","","x321hmua4d","""2024-11-12T18:36:20.219Z""","null","+","null","","","","","","",""
"","","","","","image-keyboard-response","129","178843","0.0-13.0-2.4-1.8","x321hmua4d","","x321hmua4d","""2024-11-12T18:36:20.219Z""","1348","materials/imgs/D84.png","arrowleft","","[""materials/imgs/D106.png"",""materials/imgs/D37.png""]","false","validation","","",""
"","","","","","html-keyboard-response","130","179345","0.0-13.0-2.4-0.9","x321hmua4d","","x321hmua4d","""2024-11-12T18:36:20.219Z""","null","+","null","","","","","","",""
"","","","","","image-keyboard-response","131","180160","0.0-13.0-2.4-1.9","x321hmua4d","","x321hmua4d","""2024-11-12T18:36:20.219Z""","814","materials/imgs/D11.png","arrowleft","","[""materials/imgs/D83.png"",""materials/imgs/D48.png""]","false","validation","","",""
"","","","","","html-button-response","132","182389","0.0-14.0","x321hmua4d","","x321hmua4d","""2024-11-12T18:36:20.219Z""","2228","You have completed 25% of the trials. Please click 'Continue' when you are ready proceed.","0","","","","","","",""
"","","","","","html-keyboard-response","133","182890","0.0-15.0-0.0-0.0","x321hmua4d","","x321hmua4d","""2024-11-12T18:36:20.219Z""","null","+","null","","","","","","",""
"","","","","","image-keyboard-response","134","183594","0.0-15.0-0.0-1.0","x321hmua4d","","x321hmua4d","""2024-11-12T18:36:20.219Z""","703","materials/imgs/D65.png","arrowright","","[""materials/imgs/D96.png"",""materials/imgs/D66.png""]","false","random","","",""
"","","","","","html-keyboard-response","135","184095","0.0-15.0-0.0-0.1","x321hmua4d","","x321hmua4d","""2024-11-12T18:36:20.219Z""","null","+","null","","","","","","",""
"","","","","","image-keyboard-response","136","184730","0.0-15.0-0.0-1.1","x321hmua4d","","x321hmua4d","""2024-11-12T18:36:20.219Z""","628","materials/imgs/D3.png","arrowleft","","[""materials/imgs/D29.png"",""materials/imgs/D55.png""]","false","random","","",""
"","","","","","html-keyboard-response","137","185232","0.0-15.0-0.0-0.2","x321hmua4d","","x321hmua4d","""2024-11-12T18:36:20.219Z""","null","+","null","","","","","","",""
"","","","","","image-keyboard-response","138","186082","0.0-15.0-0.0-1.2","x321hmua4d","","x321hmua4d","""2024-11-12T18:36:20.219Z""","849","materials/imgs/D85.png","arrowright","","[""materials/imgs/D34.png"",""materials/imgs/D78.png""]","false","random","","",""
"","","","","","html-keyboard-response","139","186584","0.0-15.0-0.0-0.3","x321hmua4d","","x321hmua4d","""2024-11-12T18:36:20.219Z""","null","+","null","","","","","","",""
"","","","","","image-keyboard-response","140","187432","0.0-15.0-0.0-1.3","x321hmua4d","","x321hmua4d","""2024-11-12T18:36:20.219Z""","847","materials/imgs/D37.png","arrowleft","","[""materials/imgs/D82.png"",""materials/imgs/D57.png""]","false","random","","",""
"","","","","","html-keyboard-response","141","187933","0.0-15.0-0.0-0.4","x321hmua4d","","x321hmua4d","""2024-11-12T18:36:20.219Z""","null","+","null","","","","","","",""
"","","","","","image-keyboard-response","142","188533","0.0-15.0-0.0-1.4","x321hmua4d","","x321hmua4d","""2024-11-12T18:36:20.219Z""","598","materials/imgs/D92.png","arrowleft","","[""materials/imgs/D84.png"",""materials/imgs/D64.png""]","false","random","","",""
"","","","","","html-keyboard-response","143","189035","0.0-15.0-0.0-0.5","x321hmua4d","","x321hmua4d","""2024-11-12T18:36:20.219Z""","null","+","null","","","","","","",""
"","","","","","image-keyboard-response","144","189729","0.0-15.0-0.0-1.5","x321hmua4d","","x321hmua4d","""2024-11-12T18:36:20.219Z""","693","materials/imgs/D37.png","arrowright","","[""materials/imgs/D101.png"",""materials/imgs/D36.png""]","false","random","","",""
"","","","","","html-keyboard-response","145","190230","0.0-15.0-0.0-0.6","x321hmua4d","","x321hmua4d","""2024-11-12T18:36:20.219Z""","null","+","null","","","","","","",""
"","","","","","image-keyboard-response","146","191222","0.0-15.0-0.0-1.6","x321hmua4d","","x321hmua4d","""2024-11-12T18:36:20.219Z""","991","materials/imgs/D18.png","arrowright","","[""materials/imgs/D16.png"",""materials/imgs/D77.png""]","false","random","","",""
"","","","","","html-keyboard-response","147","191724","0.0-15.0-1.0-0.0","x321hmua4d","","x321hmua4d","""2024-11-12T18:36:20.219Z""","null","+","null","","","","","","",""
"","","","","","image-keyboard-response","148","192385","0.0-15.0-1.0-1.0","x321hmua4d","","x321hmua4d","""2024-11-12T18:36:20.219Z""","660","materials/imgs/D8.png","arrowright","","[""materials/imgs/D18.png"",""materials/imgs/D8.png""]","","check","materials/imgs/D8.png","1","true"
"","","","","","html-keyboard-response","149","192886","0.0-15.0-2.0-0.0","x321hmua4d","","x321hmua4d","""2024-11-12T18:36:20.219Z""","null","+","null","","","","","","",""
"","","","","","image-keyboard-response","150","193626","0.0-15.0-2.0-1.0","x321hmua4d","","x321hmua4d","""2024-11-12T18:36:20.219Z""","738","materials/imgs/D46.png","arrowleft","","[""materials/imgs/D92.png"",""materials/imgs/D77.png""]","false","validation","","",""
"","","","","","html-keyboard-response","151","194128","0.0-15.0-2.0-0.1","x321hmua4d","","x321hmua4d","""2024-11-12T18:36:20.219Z""","null","+","null","","","","","","",""
"","","","","","image-keyboard-response","152","194933","0.0-15.0-2.0-1.1","x321hmua4d","","x321hmua4d","""2024-11-12T18:36:20.219Z""","805","materials/imgs/D48.png","arrowright","","[""materials/imgs/D4.png"",""materials/imgs/D37.png""]","false","validation","","",""
"","","","","","html-keyboard-response","153","195434","0.0-15.0-0.1-0.7","x321hmua4d","","x321hmua4d","""2024-11-12T18:36:20.219Z""","null","+","null","","","","","","",""
"","","","","","image-keyboard-response","154","196560","0.0-15.0-0.1-1.7","x321hmua4d","","x321hmua4d","""2024-11-12T18:36:20.219Z""","1124","materials/imgs/D77.png","arrowright","","[""materials/imgs/D26.png"",""materials/imgs/D84.png""]","false","random","","",""
"","","","","","html-keyboard-response","155","197061","0.0-15.0-0.1-0.8","x321hmua4d","","x321hmua4d","""2024-11-12T18:36:20.219Z""","null","+","null","","","","","","",""
"","","","","","image-keyboard-response","156","197816","0.0-15.0-0.1-1.8","x321hmua4d","","x321hmua4d","""2024-11-12T18:36:20.219Z""","754","materials/imgs/D25.png","arrowright","","[""materials/imgs/D47.png"",""materials/imgs/D26.png""]","false","random","","",""
"","","","","","html-keyboard-response","157","198318","0.0-15.0-0.1-0.9","x321hmua4d","","x321hmua4d","""2024-11-12T18:36:20.219Z""","null","+","null","","","","","","",""
"","","","","","image-keyboard-response","158","199247","0.0-15.0-0.1-1.9","x321hmua4d","","x321hmua4d","""2024-11-12T18:36:20.219Z""","927","materials/imgs/D84.png","arrowright","","[""materials/imgs/D68.png"",""materials/imgs/D14.png""]","false","random","","",""
"","","","","","html-keyboard-response","159","199749","0.0-15.0-0.1-0.10","x321hmua4d","","x321hmua4d","""2024-11-12T18:36:20.219Z""","null","+","null","","","","","","",""
"","","","","","image-keyboard-response","160","200496","0.0-15.0-0.1-1.10","x321hmua4d","","x321hmua4d","""2024-11-12T18:36:20.219Z""","746","materials/imgs/D82.png","arrowright","","[""materials/imgs/D101.png"",""materials/imgs/D84.png""]","false","random","","",""
"","","","","","html-keyboard-response","161","200998","0.0-15.0-0.1-0.11","x321hmua4d","","x321hmua4d","""2024-11-12T18:36:20.219Z""","null","+","null","","","","","","",""
"","","","","","image-keyboard-response","162","201715","0.0-15.0-0.1-1.11","x321hmua4d","","x321hmua4d","""2024-11-12T18:36:20.219Z""","716","materials/imgs/D29.png","arrowleft","","[""materials/imgs/D87.png"",""materials/imgs/D80.png""]","false","random","","",""
"","","","","","html-keyboard-response","163","202217","0.0-15.0-0.1-0.12","x321hmua4d","","x321hmua4d","""2024-11-12T18:36:20.219Z""","null","+","null","","","","","","",""
"","","","","","image-keyboard-response","164","203355","0.0-15.0-0.1-1.12","x321hmua4d","","x321hmua4d","""2024-11-12T18:36:20.219Z""","1137","materials/imgs/D85.png","arrowleft","","[""materials/imgs/D57.png"",""materials/imgs/D22.png""]","false","random","","",""
"","","","","","html-keyboard-response","165","203856","0.0-15.0-0.1-0.13","x321hmua4d","","x321hmua4d","""2024-11-12T18:36:20.219Z""","null","+","null","","","","","","",""
"","","","","","image-keyboard-response","166","205313","0.0-15.0-0.1-1.13","x321hmua4d","","x321hmua4d","""2024-11-12T18:36:20.219Z""","1455","materials/imgs/D64.png","arrowright","","[""materials/imgs/D3.png"",""materials/imgs/D35.png""]","false","random","","",""
"","","","","","html-keyboard-response","167","205814","0.0-15.0-1.1-0.1","x321hmua4d","","x321hmua4d","""2024-11-12T18:36:20.219Z""","null","+","null","","","","","","",""
"","","","","","image-keyboard-response","168","206447","0.0-15.0-1.1-1.1","x321hmua4d","","x321hmua4d","""2024-11-12T18:36:20.219Z""","632","materials/imgs/D64.png","arrowleft","","[""materials/imgs/D64.png"",""materials/imgs/D53.png""]","","check","materials/imgs/D64.png","0","true"
"","","","","","html-keyboard-response","169","206948","0.0-15.0-2.1-0.2","x321hmua4d","","x321hmua4d","""2024-11-12T18:36:20.219Z""","null","+","null","","","","","","",""
"","","","","","image-keyboard-response","170","207729","0.0-15.0-2.1-1.2","x321hmua4d","","x321hmua4d","""2024-11-12T18:36:20.219Z""","780","materials/imgs/D4.png","arrowleft","","[""materials/imgs/D52.png"",""materials/imgs/D83.png""]","false","validation","","",""
"","","","","","html-keyboard-response","171","208231","0.0-15.0-2.1-0.3","x321hmua4d","","x321hmua4d","""2024-11-12T18:36:20.219Z""","null","+","null","","","","","","",""
"","","","","","image-keyboard-response","172","208954","0.0-15.0-2.1-1.3","x321hmua4d","","x321hmua4d","""2024-11-12T18:36:20.219Z""","723","materials/imgs/D35.png","arrowleft","","[""materials/imgs/D83.png"",""materials/imgs/D24.png""]","false","validation","","",""
"","","","","","html-keyboard-response","173","209455","0.0-15.0-0.2-0.14","x321hmua4d","","x321hmua4d","""2024-11-12T18:36:20.219Z""","null","+","null","","","","","","",""
"","","","","","image-keyboard-response","174","210190","0.0-15.0-0.2-1.14","x321hmua4d","","x321hmua4d","""2024-11-12T18:36:20.219Z""","734","materials/imgs/D11.png","arrowleft","","[""materials/imgs/D6.png"",""materials/imgs/D1.png""]","false","random","","",""
"","","","","","html-keyboard-response","175","210691","0.0-15.0-0.2-0.15","x321hmua4d","","x321hmua4d","""2024-11-12T18:36:20.219Z""","null","+","null","","","","","","",""
"","","","","","image-keyboard-response","176","211415","0.0-15.0-0.2-1.15","x321hmua4d","","x321hmua4d","""2024-11-12T18:36:20.219Z""","718","materials/imgs/D21.png","arrowleft","","[""materials/imgs/D16.png"",""materials/imgs/D20.png""]","false","random","","",""
"","","","","","html-keyboard-response","177","211917","0.0-15.0-0.2-0.16","x321hmua4d","","x321hmua4d","""2024-11-12T18:36:20.219Z""","null","+","null","","","","","","",""
"","","","","","image-keyboard-response","178","212660","0.0-15.0-0.2-1.16","x321hmua4d","","x321hmua4d","""2024-11-12T18:36:20.219Z""","743","materials/imgs/D53.png","arrowleft","","[""materials/imgs/D22.png"",""materials/imgs/D75.png""]","false","random","","",""
"","","","","","html-keyboard-response","179","213162","0.0-15.0-0.2-0.17","x321hmua4d","","x321hmua4d","""2024-11-12T18:36:20.219Z""","null","+","null","","","","","","",""
"","","","","","image-keyboard-response","180","214134","0.0-15.0-0.2-1.17","x321hmua4d","","x321hmua4d","""2024-11-12T18:36:20.219Z""","971","materials/imgs/D111.png","arrowleft","","[""materials/imgs/D56.png"",""materials/imgs/D96.png""]","false","random","","",""
"","","","","","html-keyboard-response","181","214636","0.0-15.0-0.2-0.18","x321hmua4d","","x321hmua4d","""2024-11-12T18:36:20.219Z""","null","+","null","","","","","","",""
"","","","","","image-keyboard-response","182","215509","0.0-15.0-0.2-1.18","x321hmua4d","","x321hmua4d","""2024-11-12T18:36:20.219Z""","872","materials/imgs/D66.png","arrowright","","[""materials/imgs/D101.png"",""materials/imgs/D111.png""]","false","random","","",""
"","","","","","html-keyboard-response","183","216011","0.0-15.0-0.2-0.19","x321hmua4d","","x321hmua4d","""2024-11-12T18:36:20.219Z""","null","+","null","","","","","","",""
"","","","","","image-keyboard-response","184","216735","0.0-15.0-0.2-1.19","x321hmua4d","","x321hmua4d","""2024-11-12T18:36:20.219Z""","721","materials/imgs/D78.png","arrowleft","","[""materials/imgs/D55.png"",""materials/imgs/D84.png""]","false","random","","",""
"","","","","","html-keyboard-response","185","217237","0.0-15.0-0.2-0.20","x321hmua4d","","x321hmua4d","""2024-11-12T18:36:20.219Z""","null","+","null","","","","","","",""
"","","","","","image-keyboard-response","186","218374","0.0-15.0-0.2-1.20","x321hmua4d","","x321hmua4d","""2024-11-12T18:36:20.219Z""","1134","materials/imgs/D34.png","arrowleft","","[""materials/imgs/D65.png"",""materials/imgs/D1.png""]","false","random","","",""
"","","","","","html-keyboard-response","187","218875","0.0-15.0-1.2-0.2","x321hmua4d","","x321hmua4d","""2024-11-12T18:36:20.219Z""","null","+","null","","","","","","",""
"","","","","","image-keyboard-response","188","219565","0.0-15.0-1.2-1.2","x321hmua4d","","x321hmua4d","""2024-11-12T18:36:20.219Z""","689","materials/imgs/D26.png","arrowleft","","[""materials/imgs/D26.png"",""materials/imgs/D46.png""]","","check","materials/imgs/D26.png","0","true"
"","","","","","html-keyboard-response","189","220067","0.0-15.0-2.2-0.4","x321hmua4d","","x321hmua4d","""2024-11-12T18:36:20.219Z""","null","+","null","","","","","","",""
"","","","","","image-keyboard-response","190","221158","0.0-15.0-2.2-1.4","x321hmua4d","","x321hmua4d","""2024-11-12T18:36:20.219Z""","1090","materials/imgs/D106.png","arrowright","","[""materials/imgs/D57.png"",""materials/imgs/D18.png""]","false","validation","","",""
"","","","","","html-keyboard-response","191","221660","0.0-15.0-2.2-0.5","x321hmua4d","","x321hmua4d","""2024-11-12T18:36:20.219Z""","null","+","null","","","","","","",""
"","","","","","image-keyboard-response","192","222524","0.0-15.0-2.2-1.5","x321hmua4d","","x321hmua4d","""2024-11-12T18:36:20.219Z""","863","materials/imgs/D19.png","arrowleft","","[""materials/imgs/D111.png"",""materials/imgs/D56.png""]","false","validation","","",""
"","","","","","html-keyboard-response","193","223026","0.0-15.0-0.3-0.21","x321hmua4d","","x321hmua4d","""2024-11-12T18:36:20.219Z""","null","+","null","","","","","","",""
"","","","","","image-keyboard-response","194","223809","0.0-15.0-0.3-1.21","x321hmua4d","","x321hmua4d","""2024-11-12T18:36:20.219Z""","782","materials/imgs/D77.png","arrowleft","","[""materials/imgs/D79.png"",""materials/imgs/D29.png""]","false","random","","",""
"","","","","","html-keyboard-response","195","224311","0.0-15.0-0.3-0.22","x321hmua4d","","x321hmua4d","""2024-11-12T18:36:20.219Z""","null","+","null","","","","","","",""
"","","","","","image-keyboard-response","196","224971","0.0-15.0-0.3-1.22","x321hmua4d","","x321hmua4d","""2024-11-12T18:36:20.219Z""","659","materials/imgs/D6.png","arrowleft","","[""materials/imgs/D17.png"",""materials/imgs/D9.png""]","false","random","","",""
"","","","","","html-keyboard-response","197","225473","0.0-15.0-0.3-0.23","x321hmua4d","","x321hmua4d","""2024-11-12T18:36:20.219Z""","null","+","null","","","","","","",""
"","","","","","image-keyboard-response","198","226134","0.0-15.0-0.3-1.23","x321hmua4d","","x321hmua4d","""2024-11-12T18:36:20.219Z""","661","materials/imgs/D4.png","arrowright","","[""materials/imgs/D75.png"",""materials/imgs/D77.png""]","false","random","","",""
"","","","","","html-keyboard-response","199","226636","0.0-15.0-0.3-0.24","x321hmua4d","","x321hmua4d","""2024-11-12T18:36:20.219Z""","null","+","null","","","","","","",""
"","","","","","image-keyboard-response","200","227351","0.0-15.0-0.3-1.24","x321hmua4d","","x321hmua4d","""2024-11-12T18:36:20.219Z""","714","materials/imgs/D21.png","arrowleft","","[""materials/imgs/D68.png"",""materials/imgs/D8.png""]","false","random","","",""
"","","","","","html-keyboard-response","201","227853","0.0-15.0-0.3-0.25","x321hmua4d","","x321hmua4d","""2024-11-12T18:36:20.219Z""","null","+","null","","","","","","",""
"","","","","","image-keyboard-response","202","228739","0.0-15.0-0.3-1.25","x321hmua4d","","x321hmua4d","""2024-11-12T18:36:20.219Z""","886","materials/imgs/D19.png","arrowleft","","[""materials/imgs/D106.png"",""materials/imgs/D16.png""]","false","random","","",""
"","","","","","html-keyboard-response","203","229241","0.0-15.0-0.3-0.26","x321hmua4d","","x321hmua4d","""2024-11-12T18:36:20.219Z""","null","+","null","","","","","","",""
"","","","","","image-keyboard-response","204","230070","0.0-15.0-0.3-1.26","x321hmua4d","","x321hmua4d","""2024-11-12T18:36:20.219Z""","827","materials/imgs/D11.png","arrowright","","[""materials/imgs/D24.png"",""materials/imgs/D79.png""]","false","random","","",""
"","","","","","html-keyboard-response","205","230571","0.0-15.0-0.3-0.27","x321hmua4d","","x321hmua4d","""2024-11-12T18:36:20.219Z""","null","+","null","","","","","","",""
"","","","","","image-keyboard-response","206","231601","0.0-15.0-0.3-1.27","x321hmua4d","","x321hmua4d","""2024-11-12T18:36:20.219Z""","1029","materials/imgs/D94.png","arrowright","","[""materials/imgs/D111.png"",""materials/imgs/D53.png""]","false","random","","",""
"","","","","","html-keyboard-response","207","232103","0.0-15.0-1.3-0.3","x321hmua4d","","x321hmua4d","""2024-11-12T18:36:20.219Z""","null","+","null","","","","","","",""
"","","","","","image-keyboard-response","208","232738","0.0-15.0-1.3-1.3","x321hmua4d","","x321hmua4d","""2024-11-12T18:36:20.219Z""","634","materials/imgs/D106.png","arrowleft","","[""materials/imgs/D106.png"",""materials/imgs/D101.png""]","","check","materials/imgs/D106.png","0","true"
"","","","","","html-keyboard-response","209","233239","0.0-15.0-2.3-0.6","x321hmua4d","","x321hmua4d","""2024-11-12T18:36:20.219Z""","null","+","null","","","","","","",""
"","","","","","image-keyboard-response","210","233805","0.0-15.0-2.3-1.6","x321hmua4d","","x321hmua4d","""2024-11-12T18:36:20.219Z""","565","materials/imgs/D53.png","arrowleft","","[""materials/imgs/D77.png"",""materials/imgs/D75.png""]","false","validation","","",""
"","","","","","html-keyboard-response","211","234307","0.0-15.0-2.3-0.7","x321hmua4d","","x321hmua4d","""2024-11-12T18:36:20.219Z""","null","+","null","","","","","","",""
"","","","","","image-keyboard-response","212","234969","0.0-15.0-2.3-1.7","x321hmua4d","","x321hmua4d","""2024-11-12T18:36:20.219Z""","661","materials/imgs/D19.png","arrowleft","","[""materials/imgs/D111.png"",""materials/imgs/D56.png""]","false","validation","","",""
"","","","","","html-keyboard-response","213","235470","0.0-15.0-0.4-0.28","x321hmua4d","","x321hmua4d","""2024-11-12T18:36:20.219Z""","null","+","null","","","","","","",""
"","","","","","image-keyboard-response","214","236564","0.0-15.0-0.4-1.28","x321hmua4d","","x321hmua4d","""2024-11-12T18:36:20.219Z""","1094","materials/imgs/D96.png","arrowleft","","[""materials/imgs/D87.png"",""materials/imgs/D4.png""]","false","random","","",""
"","","","","","html-keyboard-response","215","237066","0.0-15.0-0.4-0.29","x321hmua4d","","x321hmua4d","""2024-11-12T18:36:20.219Z""","null","+","null","","","","","","",""
"","","","","","image-keyboard-response","216","238404","0.0-15.0-0.4-1.29","x321hmua4d","","x321hmua4d","""2024-11-12T18:36:20.219Z""","1336","materials/imgs/D36.png","arrowleft","","[""materials/imgs/D64.png"",""materials/imgs/D94.png""]","false","random","","",""
"","","","","","html-keyboard-response","217","238905","0.0-15.0-0.4-0.30","x321hmua4d","","x321hmua4d","""2024-11-12T18:36:20.219Z""","null","+","null","","","","","","",""
"","","","","","image-keyboard-response","218","239812","0.0-15.0-0.4-1.30","x321hmua4d","","x321hmua4d","""2024-11-12T18:36:20.219Z""","906","materials/imgs/D79.png","arrowleft","","[""materials/imgs/D77.png"",""materials/imgs/D52.png""]","false","random","","",""
"","","","","","html-keyboard-response","219","240314","0.0-15.0-0.4-0.31","x321hmua4d","","x321hmua4d","""2024-11-12T18:36:20.219Z""","null","+","null","","","","","","",""
"","","","","","image-keyboard-response","220","240989","0.0-15.0-0.4-1.31","x321hmua4d","","x321hmua4d","""2024-11-12T18:36:20.219Z""","674","materials/imgs/D65.png","arrowleft","","[""materials/imgs/D35.png"",""materials/imgs/D6.png""]","false","random","","",""
"","","","","","html-keyboard-response","221","241490","0.0-15.0-0.4-0.32","x321hmua4d","","x321hmua4d","""2024-11-12T18:36:20.219Z""","null","+","null","","","","","","",""
"","","","","","image-keyboard-response","222","242221","0.0-15.0-0.4-1.32","x321hmua4d","","x321hmua4d","""2024-11-12T18:36:20.219Z""","729","materials/imgs/D53.png","arrowleft","","[""materials/imgs/D57.png"",""materials/imgs/D80.png""]","false","random","","",""
"","","","","","html-keyboard-response","223","242723","0.0-15.0-0.4-0.33","x321hmua4d","","x321hmua4d","""2024-11-12T18:36:20.219Z""","null","+","null","","","","","","",""
"","","","","","image-keyboard-response","224","243491","0.0-15.0-0.4-1.33","x321hmua4d","","x321hmua4d","""2024-11-12T18:36:20.219Z""","766","materials/imgs/D48.png","arrowleft","","[""materials/imgs/D74.png"",""materials/imgs/D21.png""]","false","random","","",""
"","","","","","html-keyboard-response","225","243992","0.0-15.0-0.4-0.34","x321hmua4d","","x321hmua4d","""2024-11-12T18:36:20.219Z""","null","+","null","","","","","","",""
"","","","","","image-keyboard-response","226","244902","0.0-15.0-0.4-1.34","x321hmua4d","","x321hmua4d","""2024-11-12T18:36:20.219Z""","909","materials/imgs/D11.png","arrowleft","","[""materials/imgs/D24.png"",""materials/imgs/D57.png""]","false","random","","",""
"","","","","","html-keyboard-response","227","245403","0.0-15.0-1.4-0.4","x321hmua4d","","x321hmua4d","""2024-11-12T18:36:20.219Z""","null","+","null","","","","","","",""
"","","","","","image-keyboard-response","228","246078","0.0-15.0-1.4-1.4","x321hmua4d","","x321hmua4d","""2024-11-12T18:36:20.219Z""","673","materials/imgs/D26.png","arrowleft","","[""materials/imgs/D26.png"",""materials/imgs/D46.png""]","","check","materials/imgs/D26.png","0","true"
"","","","","","html-keyboard-response","229","246579","0.0-15.0-2.4-0.8","x321hmua4d","","x321hmua4d","""2024-11-12T18:36:20.219Z""","null","+","null","","","","","","",""
"","","","","","image-keyboard-response","230","247549","0.0-15.0-2.4-1.8","x321hmua4d","","x321hmua4d","""2024-11-12T18:36:20.219Z""","969","materials/imgs/D77.png","arrowleft","","[""materials/imgs/D102.png"",""materials/imgs/D65.png""]","false","validation","","",""
"","","","","","html-keyboard-response","231","248050","0.0-15.0-2.4-0.9","x321hmua4d","","x321hmua4d","""2024-11-12T18:36:20.219Z""","null","+","null","","","","","","",""
"","","","","","image-keyboard-response","232","248950","0.0-15.0-2.4-1.9","x321hmua4d","","x321hmua4d","""2024-11-12T18:36:20.219Z""","899","materials/imgs/D111.png","arrowleft","","[""materials/imgs/D82.png"",""materials/imgs/D95.png""]","false","validation","","",""
"","","","","","html-button-response","233","251458","0.0-16.0","x321hmua4d","","x321hmua4d","""2024-11-12T18:36:20.219Z""","2508","You have completed 50% of the trials. Please click 'Continue' when you are ready proceed.","0","","","","","","",""
"","","","","","html-keyboard-response","234","251959","0.0-17.0-0.0-0.0","x321hmua4d","","x321hmua4d","""2024-11-12T18:36:20.219Z""","null","+","null","","","","","","",""
"","","","","","image-keyboard-response","235","252814","0.0-17.0-0.0-1.0","x321hmua4d","","x321hmua4d","""2024-11-12T18:36:20.219Z""","854","materials/imgs/D52.png","arrowright","","[""materials/imgs/D111.png"",""materials/imgs/D104.png""]","false","random","","",""
"","","","","","html-keyboard-response","236","253316","0.0-17.0-0.0-0.1","x321hmua4d","","x321hmua4d","""2024-11-12T18:36:20.219Z""","null","+","null","","","","","","",""
"","","","","","image-keyboard-response","237","254105","0.0-17.0-0.0-1.1","x321hmua4d","","x321hmua4d","""2024-11-12T18:36:20.219Z""","788","materials/imgs/D8.png","arrowleft","","[""materials/imgs/D24.png"",""materials/imgs/D106.png""]","false","random","","",""
"","","","","","html-keyboard-response","238","254608","0.0-17.0-0.0-0.2","x321hmua4d","","x321hmua4d","""2024-11-12T18:36:20.219Z""","null","+","null","","","","","","",""
"","","","","","image-keyboard-response","239","255279","0.0-17.0-0.0-1.2","x321hmua4d","","x321hmua4d","""2024-11-12T18:36:20.219Z""","670","materials/imgs/D32.png","arrowright","","[""materials/imgs/D111.png"",""materials/imgs/D16.png""]","false","random","","",""
"","","","","","html-keyboard-response","240","255781","0.0-17.0-0.0-0.3","x321hmua4d","","x321hmua4d","""2024-11-12T18:36:20.219Z""","null","+","null","","","","","","",""
"","","","","","image-keyboard-response","241","256491","0.0-17.0-0.0-1.3","x321hmua4d","","x321hmua4d","""2024-11-12T18:36:20.219Z""","709","materials/imgs/D85.png","arrowright","","[""materials/imgs/D18.png"",""materials/imgs/D52.png""]","false","random","","",""
"","","","","","html-keyboard-response","242","256992","0.0-17.0-0.0-0.4","x321hmua4d","","x321hmua4d","""2024-11-12T18:36:20.219Z""","null","+","null","","","","","","",""
"","","","","","image-keyboard-response","243","257917","0.0-17.0-0.0-1.4","x321hmua4d","","x321hmua4d","""2024-11-12T18:36:20.219Z""","924","materials/imgs/D103.png","arrowright","","[""materials/imgs/D20.png"",""materials/imgs/D79.png""]","false","random","","",""
"","","","","","html-keyboard-response","244","258419","0.0-17.0-0.0-0.5","x321hmua4d","","x321hmua4d","""2024-11-12T18:36:20.219Z""","null","+","null","","","","","","",""
"","","","","","image-keyboard-response","245","259071","0.0-17.0-0.0-1.5","x321hmua4d","","x321hmua4d","""2024-11-12T18:36:20.219Z""","651","materials/imgs/D82.png","arrowleft","","[""materials/imgs/D80.png"",""materials/imgs/D94.png""]","false","random","","",""
"","","","","","html-keyboard-response","246","259572","0.0-17.0-0.0-0.6","x321hmua4d","","x321hmua4d","""2024-11-12T18:36:20.219Z""","null","+","null","","","","","","",""
"","","","","","image-keyboard-response","247","260342","0.0-17.0-0.0-1.6","x321hmua4d","","x321hmua4d","""2024-11-12T18:36:20.219Z""","769","materials/imgs/D75.png","arrowright","","[""materials/imgs/D68.png"",""materials/imgs/D11.png""]","false","random","","",""
"","","","","","html-keyboard-response","248","260844","0.0-17.0-1.0-0.0","x321hmua4d","","x321hmua4d","""2024-11-12T18:36:20.219Z""","null","+","null","","","","","","",""
"","","","","","image-keyboard-response","249","261404","0.0-17.0-1.0-1.0","x321hmua4d","","x321hmua4d","""2024-11-12T18:36:20.219Z""","560","materials/imgs/D53.png","arrowright","","[""materials/imgs/D64.png"",""materials/imgs/D53.png""]","","check","materials/imgs/D53.png","1","true"
"","","","","","html-keyboard-response","250","261906","0.0-17.0-2.0-0.0","x321hmua4d","","x321hmua4d","""2024-11-12T18:36:20.219Z""","null","+","null","","","","","","",""
"","","","","","image-keyboard-response","251","262510","0.0-17.0-2.0-1.0","x321hmua4d","","x321hmua4d","""2024-11-12T18:36:20.219Z""","603","materials/imgs/D47.png","arrowleft","","[""materials/imgs/D1.png"",""materials/imgs/D52.png""]","false","validation","","",""
"","","","","","html-keyboard-response","252","263011","0.0-17.0-2.0-0.1","x321hmua4d","","x321hmua4d","""2024-11-12T18:36:20.219Z""","null","+","null","","","","","","",""
"","","","","","image-keyboard-response","253","263505","0.0-17.0-2.0-1.1","x321hmua4d","","x321hmua4d","""2024-11-12T18:36:20.219Z""","492","materials/imgs/D52.png","arrowleft","","[""materials/imgs/D9.png"",""materials/imgs/D19.png""]","true","validation","","",""
"","","","","","html-keyboard-response","254","267953","0.0-17.0-2.0-2.1-0.1","x321hmua4d","","x321hmua4d","""2024-11-12T18:36:20.219Z""","4447","<p><strong>You're going too fast.</strong><p>Please slow down and assess each triplet.<p>Press 'y' to continue.</p></p>","y","","","","","","",""
"","","","","","html-keyboard-response","255","268455","0.0-17.0-0.1-0.7","x321hmua4d","","x321hmua4d","""2024-11-12T18:36:20.219Z""","null","+","null","","","","","","",""
"","","","","","image-keyboard-response","256","270671","0.0-17.0-0.1-1.7","x321hmua4d","","x321hmua4d","""2024-11-12T18:36:20.219Z""","2215","materials/imgs/D106.png","arrowleft","","[""materials/imgs/D85.png"",""materials/imgs/D9.png""]","false","random","","",""
"","","","","","html-keyboard-response","257","271173","0.0-17.0-0.1-0.8","x321hmua4d","","x321hmua4d","""2024-11-12T18:36:20.219Z""","null","+","null","","","","","","",""
"","","","","","image-keyboard-response","258","272220","0.0-17.0-0.1-1.8","x321hmua4d","","x321hmua4d","""2024-11-12T18:36:20.219Z""","1046","materials/imgs/D6.png","arrowleft","","[""materials/imgs/D29.png"",""materials/imgs/D35.png""]","false","random","","",""
"","","","","","html-keyboard-response","259","272722","0.0-17.0-0.1-0.9","x321hmua4d","","x321hmua4d","""2024-11-12T18:36:20.219Z""","null","+","null","","","","","","",""
"","","","","","image-keyboard-response","260","273914","0.0-17.0-0.1-1.9","x321hmua4d","","x321hmua4d","""2024-11-12T18:36:20.219Z""","1190","materials/imgs/D3.png","arrowright","","[""materials/imgs/D25.png"",""materials/imgs/D35.png""]","false","random","","",""
"","","","","","html-keyboard-response","261","274415","0.0-17.0-0.1-0.10","x321hmua4d","","x321hmua4d","""2024-11-12T18:36:20.219Z""","null","+","null","","","","","","",""
"","","","","","image-keyboard-response","262","275777","0.0-17.0-0.1-1.10","x321hmua4d","","x321hmua4d","""2024-11-12T18:36:20.219Z""","1360","materials/imgs/D105.png","arrowleft","","[""materials/imgs/D75.png"",""materials/imgs/D46.png""]","false","random","","",""
"","","","","","html-keyboard-response","263","276279","0.0-17.0-0.1-0.11","x321hmua4d","","x321hmua4d","""2024-11-12T18:36:20.219Z""","null","+","null","","","","","","",""
"","","","","","image-keyboard-response","264","277160","0.0-17.0-0.1-1.11","x321hmua4d","","x321hmua4d","""2024-11-12T18:36:20.219Z""","881","materials/imgs/D77.png","arrowright","","[""materials/imgs/D8.png"",""materials/imgs/D9.png""]","false","random","","",""
"","","","","","html-keyboard-response","265","277662","0.0-17.0-0.1-0.12","x321hmua4d","","x321hmua4d","""2024-11-12T18:36:20.219Z""","null","+","null","","","","","","",""
"","","","","","image-keyboard-response","266","278751","0.0-17.0-0.1-1.12","x321hmua4d","","x321hmua4d","""2024-11-12T18:36:20.219Z""","1087","materials/imgs/D4.png","arrowright","","[""materials/imgs/D20.png"",""materials/imgs/D80.png""]","false","random","","",""
"","","","","","html-keyboard-response","267","279253","0.0-17.0-0.1-0.13","x321hmua4d","","x321hmua4d","""2024-11-12T18:36:20.219Z""","null","+","null","","","","","","",""
"","","","","","image-keyboard-response","268","280470","0.0-17.0-0.1-1.13","x321hmua4d","","x321hmua4d","""2024-11-12T18:36:20.219Z""","1217","materials/imgs/D66.png","arrowright","","[""materials/imgs/D26.png"",""materials/imgs/D14.png""]","false","random","","",""
"","","","","","html-keyboard-response","269","280972","0.0-17.0-1.1-0.1","x321hmua4d","","x321hmua4d","""2024-11-12T18:36:20.219Z""","null","+","null","","","","","","",""
"","","","","","image-keyboard-response","270","281822","0.0-17.0-1.1-1.1","x321hmua4d","","x321hmua4d","""2024-11-12T18:36:20.219Z""","849","materials/imgs/D18.png","arrowright","","[""materials/imgs/D8.png"",""materials/imgs/D18.png""]","","check","materials/imgs/D18.png","1","true"
"","","","","","html-keyboard-response","271","282323","0.0-17.0-2.1-0.2","x321hmua4d","","x321hmua4d","""2024-11-12T18:36:20.219Z""","null","+","null","","","","","","",""
"","","","","","image-keyboard-response","272","283582","0.0-17.0-2.1-1.2","x321hmua4d","","x321hmua4d","""2024-11-12T18:36:20.219Z""","1258","materials/imgs/D25.png","arrowright","","[""materials/imgs/D103.png"",""materials/imgs/D64.png""]","false","validation","","",""
"","","","","","html-keyboard-response","273","284084","0.0-17.0-2.1-0.3","x321hmua4d","","x321hmua4d","""2024-11-12T18:36:20.219Z""","null","+","null","","","","","","",""
"","","","","","image-keyboard-response","274","284911","0.0-17.0-2.1-1.3","x321hmua4d","","x321hmua4d","""2024-11-12T18:36:20.219Z""","827","materials/imgs/D76.png","arrowleft","","[""materials/imgs/D83.png"",""materials/imgs/D6.png""]","false","validation","","",""
"","","","","","html-keyboard-response","275","285413","0.0-17.0-0.2-0.14","x321hmua4d","","x321hmua4d","""2024-11-12T18:36:20.219Z""","null","+","null","","","","","","",""
"","","","","","image-keyboard-response","276","286503","0.0-17.0-0.2-1.14","x321hmua4d","","x321hmua4d","""2024-11-12T18:36:20.219Z""","1089","materials/imgs/D80.png","arrowleft","","[""materials/imgs/D79.png"",""materials/imgs/D6.png""]","false","random","","",""
"","","","","","html-keyboard-response","277","287004","0.0-17.0-0.2-0.15","x321hmua4d","","x321hmua4d","""2024-11-12T18:36:20.219Z""","null","+","null","","","","","","",""
"","","","","","image-keyboard-response","278","288043","0.0-17.0-0.2-1.15","x321hmua4d","","x321hmua4d","""2024-11-12T18:36:20.219Z""","1037","materials/imgs/D82.png","arrowright","","[""materials/imgs/D37.png"",""materials/imgs/D92.png""]","false","random","","",""
"","","","","","html-keyboard-response","279","288545","0.0-17.0-0.2-0.16","x321hmua4d","","x321hmua4d","""2024-11-12T18:36:20.219Z""","null","+","null","","","","","","",""
"","","","","","image-keyboard-response","280","289751","0.0-17.0-0.2-1.16","x321hmua4d","","x321hmua4d","""2024-11-12T18:36:20.219Z""","1206","materials/imgs/D83.png","arrowleft","","[""materials/imgs/D35.png"",""materials/imgs/D95.png""]","false","random","","",""
"","","","","","html-keyboard-response","281","290253","0.0-17.0-0.2-0.17","x321hmua4d","","x321hmua4d","""2024-11-12T18:36:20.219Z""","null","+","null","","","","","","",""
"","","","","","image-keyboard-response","282","291297","0.0-17.0-0.2-1.17","x321hmua4d","","x321hmua4d","""2024-11-12T18:36:20.219Z""","1043","materials/imgs/D77.png","arrowleft","","[""materials/imgs/D57.png"",""materials/imgs/D48.png""]","false","random","","",""
"","","","","","html-keyboard-response","283","291799","0.0-17.0-0.2-0.18","x321hmua4d","","x321hmua4d","""2024-11-12T18:36:20.219Z""","null","+","null","","","","","","",""
"","","","","","image-keyboard-response","284","293093","0.0-17.0-0.2-1.18","x321hmua4d","","x321hmua4d","""2024-11-12T18:36:20.219Z""","1293","materials/imgs/D4.png","arrowright","","[""materials/imgs/D6.png"",""materials/imgs/D16.png""]","false","random","","",""
"","","","","","html-keyboard-response","285","293595","0.0-17.0-0.2-0.19","x321hmua4d","","x321hmua4d","""2024-11-12T18:36:20.219Z""","null","+","null","","","","","","",""
"","","","","","image-keyboard-response","286","294770","0.0-17.0-0.2-1.19","x321hmua4d","","x321hmua4d","""2024-11-12T18:36:20.219Z""","1174","materials/imgs/D24.png","arrowright","","[""materials/imgs/D20.png"",""materials/imgs/D22.png""]","false","random","","",""
"","","","","","html-keyboard-response","287","295271","0.0-17.0-0.2-0.20","x321hmua4d","","x321hmua4d","""2024-11-12T18:36:20.219Z""","null","+","null","","","","","","",""
"","","","","","image-keyboard-response","288","296092","0.0-17.0-0.2-1.20","x321hmua4d","","x321hmua4d","""2024-11-12T18:36:20.219Z""","819","materials/imgs/D51.png","arrowleft","","[""materials/imgs/D82.png"",""materials/imgs/D48.png""]","false","random","","",""
"","","","","","html-keyboard-response","289","296593","0.0-17.0-1.2-0.2","x321hmua4d","","x321hmua4d","""2024-11-12T18:36:20.219Z""","null","+","null","","","","","","",""
"","","","","","image-keyboard-response","290","297396","0.0-17.0-1.2-1.2","x321hmua4d","","x321hmua4d","""2024-11-12T18:36:20.219Z""","802","materials/imgs/D64.png","arrowleft","","[""materials/imgs/D64.png"",""materials/imgs/D53.png""]","","check","materials/imgs/D64.png","0","true"
"","","","","","html-keyboard-response","291","297898","0.0-17.0-2.2-0.4","x321hmua4d","","x321hmua4d","""2024-11-12T18:36:20.219Z""","null","+","null","","","","","","",""
"","","","","","image-keyboard-response","292","299040","0.0-17.0-2.2-1.4","x321hmua4d","","x321hmua4d","""2024-11-12T18:36:20.219Z""","1141","materials/imgs/D65.png","arrowleft","","[""materials/imgs/D4.png"",""materials/imgs/D16.png""]","false","validation","","",""
"","","","","","html-keyboard-response","293","299542","0.0-17.0-2.2-0.5","x321hmua4d","","x321hmua4d","""2024-11-12T18:36:20.219Z""","null","+","null","","","","","","",""
"","","","","","image-keyboard-response","294","300555","0.0-17.0-2.2-1.5","x321hmua4d","","x321hmua4d","""2024-11-12T18:36:20.219Z""","1012","materials/imgs/D95.png","arrowleft","","[""materials/imgs/D36.png"",""materials/imgs/D4.png""]","false","validation","","",""
"","","","","","html-keyboard-response","295","301056","0.0-17.0-0.3-0.21","x321hmua4d","","x321hmua4d","""2024-11-12T18:36:20.219Z""","null","+","null","","","","","","",""
"","","","","","image-keyboard-response","296","302052","0.0-17.0-0.3-1.21","x321hmua4d","","x321hmua4d","""2024-11-12T18:36:20.219Z""","995","materials/imgs/D36.png","arrowright","","[""materials/imgs/D66.png"",""materials/imgs/D49.png""]","false","random","","",""
"","","","","","html-keyboard-response","297","302554","0.0-17.0-0.3-0.22","x321hmua4d","","x321hmua4d","""2024-11-12T18:36:20.219Z""","null","+","null","","","","","","",""
"","","","","","image-keyboard-response","298","303539","0.0-17.0-0.3-1.22","x321hmua4d","","x321hmua4d","""2024-11-12T18:36:20.219Z""","984","materials/imgs/D14.png","arrowright","","[""materials/imgs/D9.png"",""materials/imgs/D4.png""]","false","random","","",""
"","","","","","html-keyboard-response","299","304040","0.0-17.0-0.3-0.23","x321hmua4d","","x321hmua4d","""2024-11-12T18:36:20.219Z""","null","+","null","","","","","","",""
"","","","","","image-keyboard-response","300","304962","0.0-17.0-0.3-1.23","x321hmua4d","","x321hmua4d","""2024-11-12T18:36:20.219Z""","920","materials/imgs/D16.png","arrowright","","[""materials/imgs/D18.png"",""materials/imgs/D104.png""]","false","random","","",""
"","","","","","html-keyboard-response","301","305464","0.0-17.0-0.3-0.24","x321hmua4d","","x321hmua4d","""2024-11-12T18:36:20.219Z""","null","+","null","","","","","","",""
"","","","","","image-keyboard-response","302","306214","0.0-17.0-0.3-1.24","x321hmua4d","","x321hmua4d","""2024-11-12T18:36:20.219Z""","748","materials/imgs/D82.png","arrowleft","","[""materials/imgs/D6.png"",""materials/imgs/D48.png""]","false","random","","",""
"","","","","","html-keyboard-response","303","306715","0.0-17.0-0.3-0.25","x321hmua4d","","x321hmua4d","""2024-11-12T18:36:20.219Z""","null","+","null","","","","","","",""
"","","","","","image-keyboard-response","304","307512","0.0-17.0-0.3-1.25","x321hmua4d","","x321hmua4d","""2024-11-12T18:36:20.219Z""","795","materials/imgs/D56.png","arrowleft","","[""materials/imgs/D80.png"",""materials/imgs/D9.png""]","false","random","","",""
"","","","","","html-keyboard-response","305","308013","0.0-17.0-0.3-0.26","x321hmua4d","","x321hmua4d","""2024-11-12T18:36:20.219Z""","null","+","null","","","","","","",""
"","","","","","image-keyboard-response","306","309061","0.0-17.0-0.3-1.26","x321hmua4d","","x321hmua4d","""2024-11-12T18:36:20.219Z""","1047","materials/imgs/D94.png","arrowleft","","[""materials/imgs/D103.png"",""materials/imgs/D32.png""]","false","random","","",""
"","","","","","html-keyboard-response","307","309562","0.0-17.0-0.3-0.27","x321hmua4d","","x321hmua4d","""2024-11-12T18:36:20.219Z""","null","+","null","","","","","","",""
"","","","","","image-keyboard-response","308","310727","0.0-17.0-0.3-1.27","x321hmua4d","","x321hmua4d","""2024-11-12T18:36:20.219Z""","1164","materials/imgs/D83.png","arrowleft","","[""materials/imgs/D4.png"",""materials/imgs/D49.png""]","false","random","","",""
"","","","","","html-keyboard-response","309","311228","0.0-17.0-1.3-0.3","x321hmua4d","","x321hmua4d","""2024-11-12T18:36:20.219Z""","null","+","null","","","","","","",""
"","","","","","image-keyboard-response","310","311914","0.0-17.0-1.3-1.3","x321hmua4d","","x321hmua4d","""2024-11-12T18:36:20.219Z""","685","materials/imgs/D26.png","arrowleft","","[""materials/imgs/D26.png"",""materials/imgs/D46.png""]","","check","materials/imgs/D26.png","0","true"
"","","","","","html-keyboard-response","311","312416","0.0-17.0-2.3-0.6","x321hmua4d","","x321hmua4d","""2024-11-12T18:36:20.219Z""","null","+","null","","","","","","",""
"","","","","","image-keyboard-response","312","313453","0.0-17.0-2.3-1.6","x321hmua4d","","x321hmua4d","""2024-11-12T18:36:20.219Z""","1036","materials/imgs/D25.png","arrowright","","[""materials/imgs/D103.png"",""materials/imgs/D64.png""]","false","validation","","",""
"","","","","","html-keyboard-response","313","313954","0.0-17.0-2.3-0.7","x321hmua4d","","x321hmua4d","""2024-11-12T18:36:20.219Z""","null","+","null","","","","","","",""
"","","","","","image-keyboard-response","314","315125","0.0-17.0-2.3-1.7","x321hmua4d","","x321hmua4d","""2024-11-12T18:36:20.219Z""","1170","materials/imgs/D66.png","arrowleft","","[""materials/imgs/D85.png"",""materials/imgs/D25.png""]","false","validation","","",""
"","","","","","html-keyboard-response","315","315627","0.0-17.0-0.4-0.28","x321hmua4d","","x321hmua4d","""2024-11-12T18:36:20.219Z""","null","+","null","","","","","","",""
"","","","","","image-keyboard-response","316","316223","0.0-17.0-0.4-1.28","x321hmua4d","","x321hmua4d","""2024-11-12T18:36:20.219Z""","595","materials/imgs/D55.png","arrowright","","[""materials/imgs/D29.png"",""materials/imgs/D49.png""]","false","random","","",""
"","","","","","html-keyboard-response","317","316724","0.0-17.0-0.4-0.29","x321hmua4d","","x321hmua4d","""2024-11-12T18:36:20.219Z""","null","+","null","","","","","","",""
"","","","","","image-keyboard-response","318","317569","0.0-17.0-0.4-1.29","x321hmua4d","","x321hmua4d","""2024-11-12T18:36:20.219Z""","844","materials/imgs/D74.png","arrowleft","","[""materials/imgs/D32.png"",""materials/imgs/D1.png""]","false","random","","",""
"","","","","","html-keyboard-response","319","318071","0.0-17.0-0.4-0.30","x321hmua4d","","x321hmua4d","""2024-11-12T18:36:20.219Z""","null","+","null","","","","","","",""
"","","","","","image-keyboard-response","320","319257","0.0-17.0-0.4-1.30","x321hmua4d","","x321hmua4d","""2024-11-12T18:36:20.219Z""","1185","materials/imgs/D66.png","arrowleft","","[""materials/imgs/D102.png"",""materials/imgs/D57.png""]","false","random","","",""
"","","","","","html-keyboard-response","321","319758","0.0-17.0-0.4-0.31","x321hmua4d","","x321hmua4d","""2024-11-12T18:36:20.219Z""","null","+","null","","","","","","",""
"","","","","","image-keyboard-response","322","320716","0.0-17.0-0.4-1.31","x321hmua4d","","x321hmua4d","""2024-11-12T18:36:20.219Z""","958","materials/imgs/D49.png","arrowleft","","[""materials/imgs/D14.png"",""materials/imgs/D66.png""]","false","random","","",""
"","","","","","html-keyboard-response","323","321218","0.0-17.0-0.4-0.32","x321hmua4d","","x321hmua4d","""2024-11-12T18:36:20.219Z""","null","+","null","","","","","","",""
"","","","","","image-keyboard-response","324","322397","0.0-17.0-0.4-1.32","x321hmua4d","","x321hmua4d","""2024-11-12T18:36:20.219Z""","1178","materials/imgs/D96.png","arrowright","","[""materials/imgs/D48.png"",""materials/imgs/D102.png""]","false","random","","",""
"","","","","","html-keyboard-response","325","322898","0.0-17.0-0.4-0.33","x321hmua4d","","x321hmua4d","""2024-11-12T18:36:20.219Z""","null","+","null","","","","","","",""
"","","","","","image-keyboard-response","326","324153","0.0-17.0-0.4-1.33","x321hmua4d","","x321hmua4d","""2024-11-12T18:36:20.219Z""","1253","materials/imgs/D56.png","arrowright","","[""materials/imgs/D4.png"",""materials/imgs/D3.png""]","false","random","","",""
"","","","","","html-keyboard-response","327","324655","0.0-17.0-0.4-0.34","x321hmua4d","","x321hmua4d","""2024-11-12T18:36:20.219Z""","null","+","null","","","","","","",""
"","","","","","image-keyboard-response","328","326378","0.0-17.0-0.4-1.34","x321hmua4d","","x321hmua4d","""2024-11-12T18:36:20.219Z""","1722","materials/imgs/D80.png","arrowleft","","[""materials/imgs/D102.png"",""materials/imgs/D48.png""]","false","random","","",""
"","","","","","html-keyboard-response","329","326880","0.0-17.0-1.4-0.4","x321hmua4d","","x321hmua4d","""2024-11-12T18:36:20.219Z""","null","+","null","","","","","","",""
"","","","","","image-keyboard-response","330","327559","0.0-17.0-1.4-1.4","x321hmua4d","","x321hmua4d","""2024-11-12T18:36:20.219Z""","678","materials/imgs/D64.png","arrowleft","","[""materials/imgs/D64.png"",""materials/imgs/D53.png""]","","check","materials/imgs/D64.png","0","true"
"","","","","","html-keyboard-response","331","328060","0.0-17.0-2.4-0.8","x321hmua4d","","x321hmua4d","""2024-11-12T18:36:20.219Z""","null","+","null","","","","","","",""
"","","","","","image-keyboard-response","332","329492","0.0-17.0-2.4-1.8","x321hmua4d","","x321hmua4d","""2024-11-12T18:36:20.219Z""","1431","materials/imgs/D79.png","arrowleft","","[""materials/imgs/D51.png"",""materials/imgs/D64.png""]","false","validation","","",""
"","","","","","html-keyboard-response","333","329993","0.0-17.0-2.4-0.9","x321hmua4d","","x321hmua4d","""2024-11-12T18:36:20.219Z""","null","+","null","","","","","","",""
"","","","","","image-keyboard-response","334","331489","0.0-17.0-2.4-1.9","x321hmua4d","","x321hmua4d","""2024-11-12T18:36:20.219Z""","1494","materials/imgs/D51.png","arrowright","","[""materials/imgs/D92.png"",""materials/imgs/D20.png""]","false","validation","","",""
"","","","","","html-button-response","335","333618","0.0-18.0","x321hmua4d","","x321hmua4d","""2024-11-12T18:36:20.219Z""","2128","You have completed 75% of the trials. Please click 'Continue' when you are ready proceed.","0","","","","","","",""
"","","","","","html-keyboard-response","336","334118","0.0-19.0-0.0-0.0","x321hmua4d","","x321hmua4d","""2024-11-12T18:36:20.219Z""","null","+","null","","","","","","",""
"","","","","","image-keyboard-response","337","335431","0.0-19.0-0.0-1.0","x321hmua4d","","x321hmua4d","""2024-11-12T18:36:20.219Z""","1312","materials/imgs/D66.png","arrowleft","","[""materials/imgs/D16.png"",""materials/imgs/D78.png""]","false","random","","",""
"","","","","","html-keyboard-response","338","335932","0.0-19.0-0.0-0.1","x321hmua4d","","x321hmua4d","""2024-11-12T18:36:20.219Z""","null","+","null","","","","","","",""
"","","","","","image-keyboard-response","339","337213","0.0-19.0-0.0-1.1","x321hmua4d","","x321hmua4d","""2024-11-12T18:36:20.219Z""","1279","materials/imgs/D34.png","arrowright","","[""materials/imgs/D47.png"",""materials/imgs/D18.png""]","false","random","","",""
"","","","","","html-keyboard-response","340","337715","0.0-19.0-0.0-0.2","x321hmua4d","","x321hmua4d","""2024-11-12T18:36:20.219Z""","null","+","null","","","","","","",""
"","","","","","image-keyboard-response","341","338787","0.0-19.0-0.0-1.2","x321hmua4d","","x321hmua4d","""2024-11-12T18:36:20.219Z""","1071","materials/imgs/D47.png","arrowright","","[""materials/imgs/D4.png"",""materials/imgs/D92.png""]","false","random","","",""
"","","","","","html-keyboard-response","342","339287","0.0-19.0-0.0-0.3","x321hmua4d","","x321hmua4d","""2024-11-12T18:36:20.219Z""","null","+","null","","","","","","",""
"","","","","","image-keyboard-response","343","340122","0.0-19.0-0.0-1.3","x321hmua4d","","x321hmua4d","""2024-11-12T18:36:20.219Z""","833","materials/imgs/D57.png","arrowright","","[""materials/imgs/D75.png"",""materials/imgs/D16.png""]","false","random","","",""
"","","","","","html-keyboard-response","344","340624","0.0-19.0-0.0-0.4","x321hmua4d","","x321hmua4d","""2024-11-12T18:36:20.219Z""","null","+","null","","","","","","",""
"","","","","","image-keyboard-response","345","341536","0.0-19.0-0.0-1.4","x321hmua4d","","x321hmua4d","""2024-11-12T18:36:20.219Z""","911","materials/imgs/D9.png","arrowleft","","[""materials/imgs/D102.png"",""materials/imgs/D47.png""]","false","random","","",""
"","","","","","html-keyboard-response","346","342037","0.0-19.0-0.0-0.5","x321hmua4d","","x321hmua4d","""2024-11-12T18:36:20.219Z""","null","+","null","","","","","","",""
"","","","","","image-keyboard-response","347","343283","0.0-19.0-0.0-1.5","x321hmua4d","","x321hmua4d","""2024-11-12T18:36:20.219Z""","1245","materials/imgs/D102.png","arrowleft","","[""materials/imgs/D48.png"",""materials/imgs/D85.png""]","false","random","","",""
"","","","","","html-keyboard-response","348","343785","0.0-19.0-0.0-0.6","x321hmua4d","","x321hmua4d","""2024-11-12T18:36:20.219Z""","null","+","null","","","","","","",""
"","","","","","image-keyboard-response","349","344718","0.0-19.0-0.0-1.6","x321hmua4d","","x321hmua4d","""2024-11-12T18:36:20.219Z""","932","materials/imgs/D75.png","arrowright","","[""materials/imgs/D105.png"",""materials/imgs/D56.png""]","false","random","","",""
"","","","","","html-keyboard-response","350","345219","0.0-19.0-1.0-0.0","x321hmua4d","","x321hmua4d","""2024-11-12T18:36:20.219Z""","null","+","null","","","","","","",""
"","","","","","image-keyboard-response","351","345949","0.0-19.0-1.0-1.0","x321hmua4d","","x321hmua4d","""2024-11-12T18:36:20.219Z""","729","materials/imgs/D106.png","arrowleft","","[""materials/imgs/D106.png"",""materials/imgs/D101.png""]","","check","materials/imgs/D106.png","0","true"
"","","","","","html-keyboard-response","352","346450","0.0-19.0-2.0-0.0","x321hmua4d","","x321hmua4d","""2024-11-12T18:36:20.219Z""","null","+","null","","","","","","",""
"","","","","","image-keyboard-response","353","347361","0.0-19.0-2.0-1.0","x321hmua4d","","x321hmua4d","""2024-11-12T18:36:20.219Z""","909","materials/imgs/D20.png","arrowleft","","[""materials/imgs/D84.png"",""materials/imgs/D85.png""]","false","validation","","",""
"","","","","","html-keyboard-response","354","347862","0.0-19.0-2.0-0.1","x321hmua4d","","x321hmua4d","""2024-11-12T18:36:20.219Z""","null","+","null","","","","","","",""
"","","","","","image-keyboard-response","355","349352","0.0-19.0-2.0-1.1","x321hmua4d","","x321hmua4d","""2024-11-12T18:36:20.219Z""","1488","materials/imgs/D111.png","arrowright","","[""materials/imgs/D82.png"",""materials/imgs/D95.png""]","false","validation","","",""
"","","","","","html-keyboard-response","356","349854","0.0-19.0-0.1-0.7","x321hmua4d","","x321hmua4d","""2024-11-12T18:36:20.219Z""","null","+","null","","","","","","",""
"","","","","","image-keyboard-response","357","350992","0.0-19.0-0.1-1.7","x321hmua4d","","x321hmua4d","""2024-11-12T18:36:20.219Z""","1136","materials/imgs/D47.png","arrowright","","[""materials/imgs/D105.png"",""materials/imgs/D74.png""]","false","random","","",""
"","","","","","html-keyboard-response","358","351494","0.0-19.0-0.1-0.8","x321hmua4d","","x321hmua4d","""2024-11-12T18:36:20.219Z""","null","+","null","","","","","","",""
"","","","","","image-keyboard-response","359","352629","0.0-19.0-0.1-1.8","x321hmua4d","","x321hmua4d","""2024-11-12T18:36:20.219Z""","1134","materials/imgs/D19.png","arrowright","","[""materials/imgs/D18.png"",""materials/imgs/D81.png""]","false","random","","",""
"","","","","","html-keyboard-response","360","353130","0.0-19.0-0.1-0.9","x321hmua4d","","x321hmua4d","""2024-11-12T18:36:20.219Z""","null","+","null","","","","","","",""
"","","","","","image-keyboard-response","361","353940","0.0-19.0-0.1-1.9","x321hmua4d","","x321hmua4d","""2024-11-12T18:36:20.219Z""","809","materials/imgs/D80.png","arrowleft","","[""materials/imgs/D104.png"",""materials/imgs/D74.png""]","false","random","","",""
"","","","","","html-keyboard-response","362","354441","0.0-19.0-0.1-0.10","x321hmua4d","","x321hmua4d","""2024-11-12T18:36:20.219Z""","null","+","null","","","","","","",""
"","","","","","image-keyboard-response","363","355637","0.0-19.0-0.1-1.10","x321hmua4d","","x321hmua4d","""2024-11-12T18:36:20.219Z""","1194","materials/imgs/D1.png","arrowright","","[""materials/imgs/D77.png"",""materials/imgs/D14.png""]","false","random","","",""
"","","","","","html-keyboard-response","364","356138","0.0-19.0-0.1-0.11","x321hmua4d","","x321hmua4d","""2024-11-12T18:36:20.219Z""","null","+","null","","","","","","",""
"","","","","","image-keyboard-response","365","357176","0.0-19.0-0.1-1.11","x321hmua4d","","x321hmua4d","""2024-11-12T18:36:20.219Z""","1037","materials/imgs/D105.png","arrowright","","[""materials/imgs/D29.png"",""materials/imgs/D79.png""]","false","random","","",""
"","","","","","html-keyboard-response","366","357678","0.0-19.0-0.1-0.12","x321hmua4d","","x321hmua4d","""2024-11-12T18:36:20.219Z""","null","+","null","","","","","","",""
"","","","","","image-keyboard-response","367","358440","0.0-19.0-0.1-1.12","x321hmua4d","","x321hmua4d","""2024-11-12T18:36:20.219Z""","761","materials/imgs/D26.png","arrowright","","[""materials/imgs/D9.png"",""materials/imgs/D94.png""]","false","random","","",""
"","","","","","html-keyboard-response","368","358942","0.0-19.0-0.1-0.13","x321hmua4d","","x321hmua4d","""2024-11-12T18:36:20.219Z""","null","+","null","","","","","","",""
"","","","","","image-keyboard-response","369","359952","0.0-19.0-0.1-1.13","x321hmua4d","","x321hmua4d","""2024-11-12T18:36:20.219Z""","1009","materials/imgs/D35.png","arrowright","","[""materials/imgs/D32.png"",""materials/imgs/D83.png""]","false","random","","",""
"","","","","","html-keyboard-response","370","360453","0.0-19.0-1.1-0.1","x321hmua4d","","x321hmua4d","""2024-11-12T18:36:20.219Z""","null","+","null","","","","","","",""
"","","","","","image-keyboard-response","371","361187","0.0-19.0-1.1-1.1","x321hmua4d","","x321hmua4d","""2024-11-12T18:36:20.219Z""","732","materials/imgs/D46.png","arrowleft","","[""materials/imgs/D46.png"",""materials/imgs/D26.png""]","","check","materials/imgs/D46.png","0","true"
"","","","","","html-keyboard-response","372","361688","0.0-19.0-2.1-0.2","x321hmua4d","","x321hmua4d","""2024-11-12T18:36:20.219Z""","null","+","null","","","","","","",""
"","","","","","image-keyboard-response","373","362924","0.0-19.0-2.1-1.2","x321hmua4d","","x321hmua4d","""2024-11-12T18:36:20.219Z""","1235","materials/imgs/D68.png","arrowleft","","[""materials/imgs/D96.png"",""materials/imgs/D48.png""]","false","validation","","",""
"","","","","","html-keyboard-response","374","363426","0.0-19.0-2.1-0.3","x321hmua4d","","x321hmua4d","""2024-11-12T18:36:20.219Z""","null","+","null","","","","","","",""
"","","","","","image-keyboard-response","375","364261","0.0-19.0-2.1-1.3","x321hmua4d","","x321hmua4d","""2024-11-12T18:36:20.219Z""","834","materials/imgs/D8.png","arrowleft","","[""materials/imgs/D101.png"",""materials/imgs/D52.png""]","false","validation","","",""
"","","","","","html-keyboard-response","376","364763","0.0-19.0-0.2-0.14","x321hmua4d","","x321hmua4d","""2024-11-12T18:36:20.219Z""","null","+","null","","","","","","",""
"","","","","","image-keyboard-response","377","365665","0.0-19.0-0.2-1.14","x321hmua4d","","x321hmua4d","""2024-11-12T18:36:20.219Z""","900","materials/imgs/D68.png","arrowright","","[""materials/imgs/D83.png"",""materials/imgs/D79.png""]","false","random","","",""
"","","","","","html-keyboard-response","378","366166","0.0-19.0-0.2-0.15","x321hmua4d","","x321hmua4d","""2024-11-12T18:36:20.219Z""","null","+","null","","","","","","",""
"","","","","","image-keyboard-response","379","367249","0.0-19.0-0.2-1.15","x321hmua4d","","x321hmua4d","""2024-11-12T18:36:20.219Z""","1080","materials/imgs/D102.png","arrowright","","[""materials/imgs/D66.png"",""materials/imgs/D22.png""]","false","random","","",""
"","","","","","html-keyboard-response","380","367750","0.0-19.0-0.2-0.16","x321hmua4d","","x321hmua4d","""2024-11-12T18:36:20.219Z""","null","+","null","","","","","","",""
"","","","","","image-keyboard-response","381","368536","0.0-19.0-0.2-1.16","x321hmua4d","","x321hmua4d","""2024-11-12T18:36:20.219Z""","785","materials/imgs/D65.png","arrowleft","","[""materials/imgs/D95.png"",""materials/imgs/D79.png""]","false","random","","",""
"","","","","","html-keyboard-response","382","369038","0.0-19.0-0.2-0.17","x321hmua4d","","x321hmua4d","""2024-11-12T18:36:20.219Z""","null","+","null","","","","","","",""
"","","","","","image-keyboard-response","383","369945","0.0-19.0-0.2-1.17","x321hmua4d","","x321hmua4d","""2024-11-12T18:36:20.219Z""","906","materials/imgs/D46.png","arrowleft","","[""materials/imgs/D37.png"",""materials/imgs/D68.png""]","false","random","","",""
"","","","","","html-keyboard-response","384","370446","0.0-19.0-0.2-0.18","x321hmua4d","","x321hmua4d","""2024-11-12T18:36:20.219Z""","null","+","null","","","","","","",""
"","","","","","image-keyboard-response","385","371175","0.0-19.0-0.2-1.18","x321hmua4d","","x321hmua4d","""2024-11-12T18:36:20.219Z""","728","materials/imgs/D92.png","arrowleft","","[""materials/imgs/D32.png"",""materials/imgs/D64.png""]","false","random","","",""
"","","","","","html-keyboard-response","386","371677","0.0-19.0-0.2-0.19","x321hmua4d","","x321hmua4d","""2024-11-12T18:36:20.219Z""","null","+","null","","","","","","",""
"","","","","","image-keyboard-response","387","372565","0.0-19.0-0.2-1.19","x321hmua4d","","x321hmua4d","""2024-11-12T18:36:20.219Z""","886","materials/imgs/D24.png","arrowleft","","[""materials/imgs/D82.png"",""materials/imgs/D1.png""]","false","random","","",""
"","","","","","html-keyboard-response","388","373067","0.0-19.0-0.2-0.20","x321hmua4d","","x321hmua4d","""2024-11-12T18:36:20.219Z""","null","+","null","","","","","","",""
"","","","","","image-keyboard-response","389","373858","0.0-19.0-0.2-1.20","x321hmua4d","","x321hmua4d","""2024-11-12T18:36:20.219Z""","789","materials/imgs/D95.png","arrowright","","[""materials/imgs/D104.png"",""materials/imgs/D111.png""]","false","random","","",""
"","","","","","html-keyboard-response","390","374359","0.0-19.0-1.2-0.2","x321hmua4d","","x321hmua4d","""2024-11-12T18:36:20.219Z""","null","+","null","","","","","","",""
"","","","","","image-keyboard-response","391","374981","0.0-19.0-1.2-1.2","x321hmua4d","","x321hmua4d","""2024-11-12T18:36:20.219Z""","621","materials/imgs/D78.png","arrowright","","[""materials/imgs/D76.png"",""materials/imgs/D78.png""]","","check","materials/imgs/D78.png","1","true"
"","","","","","html-keyboard-response","392","375483","0.0-19.0-2.2-0.4","x321hmua4d","","x321hmua4d","""2024-11-12T18:36:20.219Z""","null","+","null","","","","","","",""
"","","","","","image-keyboard-response","393","376565","0.0-19.0-2.2-1.4","x321hmua4d","","x321hmua4d","""2024-11-12T18:36:20.219Z""","1081","materials/imgs/D53.png","arrowleft","","[""materials/imgs/D77.png"",""materials/imgs/D75.png""]","false","validation","","",""
"","","","","","html-keyboard-response","394","377067","0.0-19.0-2.2-0.5","x321hmua4d","","x321hmua4d","""2024-11-12T18:36:20.219Z""","null","+","null","","","","","","",""
"","","","","","image-keyboard-response","395","377649","0.0-19.0-2.2-1.5","x321hmua4d","","x321hmua4d","""2024-11-12T18:36:20.219Z""","581","materials/imgs/D105.png","arrowleft","","[""materials/imgs/D106.png"",""materials/imgs/D52.png""]","false","validation","","",""
"","","","","","html-keyboard-response","396","378151","0.0-19.0-0.3-0.21","x321hmua4d","","x321hmua4d","""2024-11-12T18:36:20.219Z""","null","+","null","","","","","","",""
"","","","","","image-keyboard-response","397","379175","0.0-19.0-0.3-1.21","x321hmua4d","","x321hmua4d","""2024-11-12T18:36:20.219Z""","1023","materials/imgs/D3.png","arrowright","","[""materials/imgs/D94.png"",""materials/imgs/D17.png""]","false","random","","",""
"","","","","","html-keyboard-response","398","379677","0.0-19.0-0.3-0.22","x321hmua4d","","x321hmua4d","""2024-11-12T18:36:20.219Z""","null","+","null","","","","","","",""
"","","","","","image-keyboard-response","399","380761","0.0-19.0-0.3-1.22","x321hmua4d","","x321hmua4d","""2024-11-12T18:36:20.219Z""","1083","materials/imgs/D68.png","arrowright","","[""materials/imgs/D64.png"",""materials/imgs/D92.png""]","false","random","","",""
"","","","","","html-keyboard-response","400","381263","0.0-19.0-0.3-0.23","x321hmua4d","","x321hmua4d","""2024-11-12T18:36:20.219Z""","null","+","null","","","","","","",""
"","","","","","image-keyboard-response","401","382322","0.0-19.0-0.3-1.23","x321hmua4d","","x321hmua4d","""2024-11-12T18:36:20.219Z""","1058","materials/imgs/D53.png","arrowright","","[""materials/imgs/D94.png"",""materials/imgs/D52.png""]","false","random","","",""
"","","","","","html-keyboard-response","402","382824","0.0-19.0-0.3-0.24","x321hmua4d","","x321hmua4d","""2024-11-12T18:36:20.219Z""","null","+","null","","","","","","",""
"","","","","","image-keyboard-response","403","383905","0.0-19.0-0.3-1.24","x321hmua4d","","x321hmua4d","""2024-11-12T18:36:20.219Z""","1080","materials/imgs/D29.png","arrowright","","[""materials/imgs/D56.png"",""materials/imgs/D85.png""]","false","random","","",""
"","","","","","html-keyboard-response","404","384406","0.0-19.0-0.3-0.25","x321hmua4d","","x321hmua4d","""2024-11-12T18:36:20.219Z""","null","+","null","","","","","","",""
"","","","","","image-keyboard-response","405","385121","0.0-19.0-0.3-1.25","x321hmua4d","","x321hmua4d","""2024-11-12T18:36:20.219Z""","714","materials/imgs/D52.png","arrowright","","[""materials/imgs/D18.png"",""materials/imgs/D82.png""]","false","random","","",""
"","","","","","html-keyboard-response","406","385622","0.0-19.0-0.3-0.26","x321hmua4d","","x321hmua4d","""2024-11-12T18:36:20.219Z""","null","+","null","","","","","","",""
"","","","","","image-keyboard-response","407","387070","0.0-19.0-0.3-1.26","x321hmua4d","","x321hmua4d","""2024-11-12T18:36:20.219Z""","1447","materials/imgs/D19.png","arrowleft","","[""materials/imgs/D46.png"",""materials/imgs/D37.png""]","false","random","","",""
"","","","","","html-keyboard-response","408","387571","0.0-19.0-0.3-0.27","x321hmua4d","","x321hmua4d","""2024-11-12T18:36:20.219Z""","null","+","null","","","","","","",""
"","","","","","image-keyboard-response","409","388641","0.0-19.0-0.3-1.27","x321hmua4d","","x321hmua4d","""2024-11-12T18:36:20.219Z""","1069","materials/imgs/D79.png","arrowleft","","[""materials/imgs/D20.png"",""materials/imgs/D34.png""]","false","random","","",""
"","","","","","html-keyboard-response","410","389142","0.0-19.0-1.3-0.3","x321hmua4d","","x321hmua4d","""2024-11-12T18:36:20.219Z""","null","+","null","","","","","","",""
"","","","","","image-keyboard-response","411","389758","0.0-19.0-1.3-1.3","x321hmua4d","","x321hmua4d","""2024-11-12T18:36:20.219Z""","614","materials/imgs/D26.png","arrowleft","","[""materials/imgs/D26.png"",""materials/imgs/D46.png""]","","check","materials/imgs/D26.png","0","true"
"","","","","","html-keyboard-response","412","390259","0.0-19.0-2.3-0.6","x321hmua4d","","x321hmua4d","""2024-11-12T18:36:20.219Z""","null","+","null","","","","","","",""
"","","","","","image-keyboard-response","413","391593","0.0-19.0-2.3-1.6","x321hmua4d","","x321hmua4d","""2024-11-12T18:36:20.219Z""","1332","materials/imgs/D75.png","arrowleft","","[""materials/imgs/D96.png"",""materials/imgs/D4.png""]","false","validation","","",""
"","","","","","html-keyboard-response","414","392095","0.0-19.0-2.3-0.7","x321hmua4d","","x321hmua4d","""2024-11-12T18:36:20.219Z""","null","+","null","","","","","","",""
"","","","","","image-keyboard-response","415","393100","0.0-19.0-2.3-1.7","x321hmua4d","","x321hmua4d","""2024-11-12T18:36:20.219Z""","1004","materials/imgs/D36.png","arrowright","","[""materials/imgs/D47.png"",""materials/imgs/D49.png""]","false","validation","","",""
"","","","","","html-keyboard-response","416","393601","0.0-19.0-0.4-0.28","x321hmua4d","","x321hmua4d","""2024-11-12T18:36:20.219Z""","null","+","null","","","","","","",""
"","","","","","image-keyboard-response","417","395432","0.0-19.0-0.4-1.28","x321hmua4d","","x321hmua4d","""2024-11-12T18:36:20.219Z""","1830","materials/imgs/D102.png","arrowright","","[""materials/imgs/D56.png"",""materials/imgs/D36.png""]","false","random","","",""
"","","","","","html-keyboard-response","418","395933","0.0-19.0-0.4-0.29","x321hmua4d","","x321hmua4d","""2024-11-12T18:36:20.219Z""","null","+","null","","","","","","",""
"","","","","","image-keyboard-response","419","396771","0.0-19.0-0.4-1.29","x321hmua4d","","x321hmua4d","""2024-11-12T18:36:20.219Z""","837","materials/imgs/D80.png","arrowright","","[""materials/imgs/D48.png"",""materials/imgs/D29.png""]","false","random","","",""
"","","","","","html-keyboard-response","420","397273","0.0-19.0-0.4-0.30","x321hmua4d","","x321hmua4d","""2024-11-12T18:36:20.219Z""","null","+","null","","","","","","",""
"","","","","","image-keyboard-response","421","398474","0.0-19.0-0.4-1.30","x321hmua4d","","x321hmua4d","""2024-11-12T18:36:20.219Z""","1200","materials/imgs/D48.png","arrowright","","[""materials/imgs/D35.png"",""materials/imgs/D76.png""]","false","random","","",""
"","","","","","html-keyboard-response","422","398976","0.0-19.0-0.4-0.31","x321hmua4d","","x321hmua4d","""2024-11-12T18:36:20.219Z""","null","+","null","","","","","","",""
"","","","","","image-keyboard-response","423","400650","0.0-19.0-0.4-1.31","x321hmua4d","","x321hmua4d","""2024-11-12T18:36:20.219Z""","1673","materials/imgs/D105.png","arrowleft","","[""materials/imgs/D87.png"",""materials/imgs/D103.png""]","false","random","","",""
"","","","","","html-keyboard-response","424","401151","0.0-19.0-0.4-0.32","x321hmua4d","","x321hmua4d","""2024-11-12T18:36:20.219Z""","null","+","null","","","","","","",""
"","","","","","image-keyboard-response","425","403000","0.0-19.0-0.4-1.32","x321hmua4d","","x321hmua4d","""2024-11-12T18:36:20.219Z""","1847","materials/imgs/D1.png","arrowleft","","[""materials/imgs/D77.png"",""materials/imgs/D21.png""]","false","random","","",""
"","","","","","html-keyboard-response","426","403501","0.0-19.0-0.4-0.33","x321hmua4d","","x321hmua4d","""2024-11-12T18:36:20.219Z""","null","+","null","","","","","","",""
"","","","","","image-keyboard-response","427","404704","0.0-19.0-0.4-1.33","x321hmua4d","","x321hmua4d","""2024-11-12T18:36:20.219Z""","1201","materials/imgs/D11.png","arrowright","","[""materials/imgs/D53.png"",""materials/imgs/D81.png""]","false","random","","",""
"","","","","","html-keyboard-response","428","405205","0.0-19.0-0.4-0.34","x321hmua4d","","x321hmua4d","""2024-11-12T18:36:20.219Z""","null","+","null","","","","","","",""
"","","","","","image-keyboard-response","429","407202","0.0-19.0-0.4-1.34","x321hmua4d","","x321hmua4d","""2024-11-12T18:36:20.219Z""","1995","materials/imgs/D17.png","arrowright","","[""materials/imgs/D65.png"",""materials/imgs/D81.png""]","false","random","","",""
"","","","","","html-keyboard-response","430","407704","0.0-19.0-1.4-0.4","x321hmua4d","","x321hmua4d","""2024-11-12T18:36:20.219Z""","null","+","null","","","","","","",""
"","","","","","image-keyboard-response","431","408479","0.0-19.0-1.4-1.4","x321hmua4d","","x321hmua4d","""2024-11-12T18:36:20.219Z""","774","materials/imgs/D106.png","arrowleft","","[""materials/imgs/D106.png"",""materials/imgs/D101.png""]","","check","materials/imgs/D106.png","0","true"
"","","","","","html-keyboard-response","432","408981","0.0-19.0-2.4-0.8","x321hmua4d","","x321hmua4d","""2024-11-12T18:36:20.219Z""","null","+","null","","","","","","",""
"","","","","","image-keyboard-response","433","409784","0.0-19.0-2.4-1.8","x321hmua4d","","x321hmua4d","""2024-11-12T18:36:20.219Z""","802","materials/imgs/D57.png","arrowright","","[""materials/imgs/D111.png"",""materials/imgs/D4.png""]","false","validation","","",""
"","","","","","html-keyboard-response","434","410285","0.0-19.0-2.4-0.9","x321hmua4d","","x321hmua4d","""2024-11-12T18:36:20.219Z""","null","+","null","","","","","","",""
"","","","","","image-keyboard-response","435","411184","0.0-19.0-2.4-1.9","x321hmua4d","","x321hmua4d","""2024-11-12T18:36:20.219Z""","897","materials/imgs/D37.png","arrowleft","","[""materials/imgs/D84.png"",""materials/imgs/D111.png""]","false","validation","","",""
