"success","timeout","failed_images","failed_audio","failed_video","trial_type","trial_index","time_elapsed","internal_node_id","subject_id","sona_id","subjectID","dateInfo","rt","stimulus","response","question_order","choices","speedy","sampleAlg","selected_image","selected_index","correct"
"true","false","[]","[]","[]","preload","0","335","0.0-0.0","yoevce1vmq","","yoevce1vmq","""2024-11-12T18:18:09.911Z""","","","","","","","","","",""
"true","","","","","fullscreen","1","2633","0.0-1.0","yoevce1vmq","","yoevce1vmq","""2024-11-12T18:18:09.911Z""","","","","","","","","","",""
"","","","","","html-keyboard-response","2","2646","0.0-2.0","yoevce1vmq","","yoevce1vmq","""2024-11-12T18:18:09.911Z""","null","","null","","","","","","",""
"","","","","","html-button-response","3","10245","0.0-3.0","yoevce1vmq","","yoevce1vmq","""2024-11-12T18:18:09.911Z""","7597","<div style='text-align:center; font-size:20px; line-height:25px; width: 1200px;'>
                Welcome to our experiment! <br>
                <br>At the bottom of this screen, you will see a button that says 'Begin Experiment.
                <br>Please only click that button when you are ready to complete the 25 minute experiment in one sitting. <br>
                <br> Once you click that button, it will not be possible to restart the experiment. <br><br>","0","","","","","","",""
"true","","","","","fullscreen","4","12158","0.0-4.0","yoevce1vmq","","yoevce1vmq","""2024-11-12T18:18:09.911Z""","","","","","","","","","",""
"","","","","","survey-multi-select","5","57697","0.0-5.0","yoevce1vmq","","yoevce1vmq","""2024-11-12T18:18:09.911Z""","45535","","{""Consent"":[""<strong>I consent</strong>""]}","[0]","","","","","",""
"","","","","","html-button-response","6","58697","0.0-6.0","yoevce1vmq","","yoevce1vmq","""2024-11-12T18:18:09.911Z""","998","Welcome! <p> This experiment involves two parts: demographic information, followed by the experimental task.<p> It will take about 25 minutes to complete both parts.","0","","","","","","",""
"","","","","","survey-text","7","77077","0.0-7.0","yoevce1vmq","","yoevce1vmq","""2024-11-12T18:18:09.911Z""","18377","","{""Age"":""18"",""Gender"":""Male"",""Race/ethnicity"":""White""}","","","","","","",""
"","","","","","html-button-response","8","89369","0.0-8.0","yoevce1vmq","","yoevce1vmq","""2024-11-12T18:18:09.911Z""","12290","<div style='text-align: center;'>
      <p>In each trial of this task, you will see three texture images: one target item on top, and two choices beneath the target item.</p>
      <p><strong>Please select the item that is most like the target item.</strong></p>
      <p>To select the option on the <strong>LEFT</strong>, press the <strong>LEFT ARROW</strong> key. 
      To select the option on the <strong>RIGHT</strong>, press the <strong>RIGHT ARROW</strong> key.</p>
                  <!-- Target Image at the Top -->
      <div style='margin: 20px;'>
        <img src='materials/imgs/instruction_images/InstructionImg1D78.png' alt='Target Image' style='width:200px; height:auto;' />
        <p><em>Target Image</em></p>
      </div>

      <!-- Two Choice Images Below -->
      <div style='display: flex; justify-content: center;'>
        <div style='margin-right: 50px;'>
          <img src='materials/imgs/instruction_images/InstructionImg2D34.png' alt='Choice Image 1' style='width:150px; height:auto;' />
          <p><em><strong>LEFT ARROW</strong></em></p>
        </div>
        <div style='margin-left: 50px;'>
          <img src='materials/imgs/instruction_images/InstructionImg3D80.png' alt='Choice Image 2' style='width:150px; height:auto;' />
          <p><em><strong>RIGHT ARROW</strong></em></p>
        </div>
      </div>
    </div>

      <p>When you are ready to proceed, please click 'Continue' to begin practice.</p>","0","","","","","","",""
"","","","","","html-keyboard-response","9","91874","0.0-9.0","yoevce1vmq","","yoevce1vmq","""2024-11-12T18:18:09.911Z""","null","+","null","","","","","","",""
"","","","","","html-keyboard-response","10","92374","0.0-10.0-0.0-0.0","yoevce1vmq","","yoevce1vmq","""2024-11-12T18:18:09.911Z""","null","+","null","","","","","","",""
"","","","","","image-keyboard-response","11","99912","0.0-10.0-0.0-1.0","yoevce1vmq","","yoevce1vmq","""2024-11-12T18:18:09.911Z""","7532","materials/imgs/D74.png","arrowleft","","[""materials/imgs/D77.png"",""materials/imgs/D17.png""]","false","random","","",""
"","","","","","html-keyboard-response","12","100414","0.0-10.0-0.0-0.1","yoevce1vmq","","yoevce1vmq","""2024-11-12T18:18:09.911Z""","null","+","null","","","","","","",""
"","","","","","image-keyboard-response","13","102220","0.0-10.0-0.0-1.1","yoevce1vmq","","yoevce1vmq","""2024-11-12T18:18:09.911Z""","1804","materials/imgs/D16.png","arrowleft","","[""materials/imgs/D14.png"",""materials/imgs/D32.png""]","false","random","","",""
"","","","","","html-keyboard-response","14","102722","0.0-10.0-0.0-0.2","yoevce1vmq","","yoevce1vmq","""2024-11-12T18:18:09.911Z""","null","+","null","","","","","","",""
"","","","","","image-keyboard-response","15","107644","0.0-10.0-0.0-1.2","yoevce1vmq","","yoevce1vmq","""2024-11-12T18:18:09.911Z""","4920","materials/imgs/D80.png","arrowleft","","[""materials/imgs/D14.png"",""materials/imgs/D65.png""]","false","random","","",""
"","","","","","html-keyboard-response","16","108146","0.0-10.0-0.0-0.3","yoevce1vmq","","yoevce1vmq","""2024-11-12T18:18:09.911Z""","null","+","null","","","","","","",""
"","","","","","image-keyboard-response","17","109615","0.0-10.0-0.0-1.3","yoevce1vmq","","yoevce1vmq","""2024-11-12T18:18:09.911Z""","1468","materials/imgs/D103.png","arrowright","","[""materials/imgs/D25.png"",""materials/imgs/D57.png""]","false","random","","",""
"","","","","","html-keyboard-response","18","110117","0.0-10.0-0.0-0.4","yoevce1vmq","","yoevce1vmq","""2024-11-12T18:18:09.911Z""","null","+","null","","","","","","",""
"","","","","","image-keyboard-response","19","111432","0.0-10.0-0.0-1.4","yoevce1vmq","","yoevce1vmq","""2024-11-12T18:18:09.911Z""","1313","materials/imgs/D22.png","arrowright","","[""materials/imgs/D96.png"",""materials/imgs/D18.png""]","false","random","","",""
"","","","","","html-keyboard-response","20","111933","0.0-10.0-0.0-0.5","yoevce1vmq","","yoevce1vmq","""2024-11-12T18:18:09.911Z""","null","+","null","","","","","","",""
"","","","","","image-keyboard-response","21","115116","0.0-10.0-0.0-1.5","yoevce1vmq","","yoevce1vmq","""2024-11-12T18:18:09.911Z""","3181","materials/imgs/D47.png","arrowright","","[""materials/imgs/D3.png"",""materials/imgs/D83.png""]","false","random","","",""
"","","","","","html-keyboard-response","22","115618","0.0-10.0-0.0-0.6","yoevce1vmq","","yoevce1vmq","""2024-11-12T18:18:09.911Z""","null","+","null","","","","","","",""
"","","","","","image-keyboard-response","23","117476","0.0-10.0-0.0-1.6","yoevce1vmq","","yoevce1vmq","""2024-11-12T18:18:09.911Z""","1856","materials/imgs/D79.png","arrowleft","","[""materials/imgs/D78.png"",""materials/imgs/D21.png""]","false","random","","",""
"","","","","","html-keyboard-response","24","117977","0.0-10.0-0.0-0.7","yoevce1vmq","","yoevce1vmq","""2024-11-12T18:18:09.911Z""","null","+","null","","","","","","",""
"","","","","","image-keyboard-response","25","119734","0.0-10.0-0.0-1.7","yoevce1vmq","","yoevce1vmq","""2024-11-12T18:18:09.911Z""","1755","materials/imgs/D52.png","arrowleft","","[""materials/imgs/D102.png"",""materials/imgs/D25.png""]","false","random","","",""
"","","","","","html-keyboard-response","26","120235","0.0-10.0-0.0-0.8","yoevce1vmq","","yoevce1vmq","""2024-11-12T18:18:09.911Z""","null","+","null","","","","","","",""
"","","","","","image-keyboard-response","27","121459","0.0-10.0-0.0-1.8","yoevce1vmq","","yoevce1vmq","""2024-11-12T18:18:09.911Z""","1222","materials/imgs/D87.png","arrowleft","","[""materials/imgs/D37.png"",""materials/imgs/D77.png""]","false","random","","",""
"","","","","","html-keyboard-response","28","121961","0.0-10.0-0.0-0.9","yoevce1vmq","","yoevce1vmq","""2024-11-12T18:18:09.911Z""","null","+","null","","","","","","",""
"","","","","","image-keyboard-response","29","123113","0.0-10.0-0.0-1.9","yoevce1vmq","","yoevce1vmq","""2024-11-12T18:18:09.911Z""","1150","materials/imgs/D22.png","arrowleft","","[""materials/imgs/D9.png"",""materials/imgs/D95.png""]","false","random","","",""
"","","","","","html-button-response","30","128021","0.0-11.0","yoevce1vmq","","yoevce1vmq","""2024-11-12T18:18:09.911Z""","4907","<p>Great job!</p>
      <p>You are now ready to begin the experiment.</p>
      <p>There will be around 200 trials. You will have opportunities to take breaks at three stages of the trials.</p>
      <p>When you are ready to begin please click 'Continue'.</p>","0","","","","","","",""
"","","","","","html-keyboard-response","31","130525","0.0-12.0","yoevce1vmq","","yoevce1vmq","""2024-11-12T18:18:09.911Z""","null","+","null","","","","","","",""
"","","","","","html-keyboard-response","32","131026","0.0-13.0-0.0-0.0","yoevce1vmq","","yoevce1vmq","""2024-11-12T18:18:09.911Z""","null","+","null","","","","","","",""
"","","","","","image-keyboard-response","33","135337","0.0-13.0-0.0-1.0","yoevce1vmq","","yoevce1vmq","""2024-11-12T18:18:09.911Z""","4306","materials/imgs/D84.png","arrowleft","","[""materials/imgs/D49.png"",""materials/imgs/D95.png""]","false","random","","",""
"","","","","","html-keyboard-response","34","135838","0.0-13.0-0.0-0.1","yoevce1vmq","","yoevce1vmq","""2024-11-12T18:18:09.911Z""","null","+","null","","","","","","",""
"","","","","","image-keyboard-response","35","137473","0.0-13.0-0.0-1.1","yoevce1vmq","","yoevce1vmq","""2024-11-12T18:18:09.911Z""","1633","materials/imgs/D79.png","arrowright","","[""materials/imgs/D101.png"",""materials/imgs/D65.png""]","false","random","","",""
"","","","","","html-keyboard-response","36","137974","0.0-13.0-0.0-0.2","yoevce1vmq","","yoevce1vmq","""2024-11-12T18:18:09.911Z""","null","+","null","","","","","","",""
"","","","","","image-keyboard-response","37","139002","0.0-13.0-0.0-1.2","yoevce1vmq","","yoevce1vmq","""2024-11-12T18:18:09.911Z""","1026","materials/imgs/D66.png","arrowleft","","[""materials/imgs/D1.png"",""materials/imgs/D87.png""]","false","random","","",""
"","","","","","html-keyboard-response","38","139503","0.0-13.0-0.0-0.3","yoevce1vmq","","yoevce1vmq","""2024-11-12T18:18:09.911Z""","null","+","null","","","","","","",""
"","","","","","image-keyboard-response","39","140343","0.0-13.0-0.0-1.3","yoevce1vmq","","yoevce1vmq","""2024-11-12T18:18:09.911Z""","838","materials/imgs/D83.png","arrowright","","[""materials/imgs/D21.png"",""materials/imgs/D64.png""]","false","random","","",""
"","","","","","html-keyboard-response","40","140844","0.0-13.0-0.0-0.4","yoevce1vmq","","yoevce1vmq","""2024-11-12T18:18:09.911Z""","null","+","null","","","","","","",""
"","","","","","image-keyboard-response","41","142160","0.0-13.0-0.0-1.4","yoevce1vmq","","yoevce1vmq","""2024-11-12T18:18:09.911Z""","1315","materials/imgs/D52.png","arrowleft","","[""materials/imgs/D94.png"",""materials/imgs/D26.png""]","false","random","","",""
"","","","","","html-keyboard-response","42","142662","0.0-13.0-0.0-0.5","yoevce1vmq","","yoevce1vmq","""2024-11-12T18:18:09.911Z""","null","+","null","","","","","","",""
"","","","","","image-keyboard-response","43","144058","0.0-13.0-0.0-1.5","yoevce1vmq","","yoevce1vmq","""2024-11-12T18:18:09.911Z""","1395","materials/imgs/D68.png","arrowleft","","[""materials/imgs/D34.png"",""materials/imgs/D16.png""]","false","random","","",""
"","","","","","html-keyboard-response","44","144559","0.0-13.0-0.0-0.6","yoevce1vmq","","yoevce1vmq","""2024-11-12T18:18:09.911Z""","null","+","null","","","","","","",""
"","","","","","image-keyboard-response","45","146634","0.0-13.0-0.0-1.6","yoevce1vmq","","yoevce1vmq","""2024-11-12T18:18:09.911Z""","2073","materials/imgs/D66.png","arrowright","","[""materials/imgs/D21.png"",""materials/imgs/D14.png""]","false","random","","",""
"","","","","","html-keyboard-response","46","147135","0.0-13.0-1.0-0.0","yoevce1vmq","","yoevce1vmq","""2024-11-12T18:18:09.911Z""","null","+","null","","","","","","",""
"","","","","","image-keyboard-response","47","147843","0.0-13.0-1.0-1.0","yoevce1vmq","","yoevce1vmq","""2024-11-12T18:18:09.911Z""","706","materials/imgs/D106.png","arrowleft","","[""materials/imgs/D106.png"",""materials/imgs/D101.png""]","","check","materials/imgs/D106.png","0","true"
"","","","","","html-keyboard-response","48","148344","0.0-13.0-2.0-0.0","yoevce1vmq","","yoevce1vmq","""2024-11-12T18:18:09.911Z""","null","+","null","","","","","","",""
"","","","","","image-keyboard-response","49","149439","0.0-13.0-2.0-1.0","yoevce1vmq","","yoevce1vmq","""2024-11-12T18:18:09.911Z""","1093","materials/imgs/D102.png","arrowright","","[""materials/imgs/D32.png"",""materials/imgs/D111.png""]","false","validation","","",""
"","","","","","html-keyboard-response","50","149940","0.0-13.0-2.0-0.1","yoevce1vmq","","yoevce1vmq","""2024-11-12T18:18:09.911Z""","null","+","null","","","","","","",""
"","","","","","image-keyboard-response","51","151624","0.0-13.0-2.0-1.1","yoevce1vmq","","yoevce1vmq","""2024-11-12T18:18:09.911Z""","1682","materials/imgs/D18.png","arrowleft","","[""materials/imgs/D32.png"",""materials/imgs/D57.png""]","false","validation","","",""
"","","","","","html-keyboard-response","52","152125","0.0-13.0-0.1-0.7","yoevce1vmq","","yoevce1vmq","""2024-11-12T18:18:09.911Z""","null","+","null","","","","","","",""
"","","","","","image-keyboard-response","53","153070","0.0-13.0-0.1-1.7","yoevce1vmq","","yoevce1vmq","""2024-11-12T18:18:09.911Z""","943","materials/imgs/D79.png","arrowleft","","[""materials/imgs/D16.png"",""materials/imgs/D77.png""]","false","random","","",""
"","","","","","html-keyboard-response","54","153571","0.0-13.0-0.1-0.8","yoevce1vmq","","yoevce1vmq","""2024-11-12T18:18:09.911Z""","null","+","null","","","","","","",""
"","","","","","image-keyboard-response","55","155375","0.0-13.0-0.1-1.8","yoevce1vmq","","yoevce1vmq","""2024-11-12T18:18:09.911Z""","1802","materials/imgs/D106.png","arrowleft","","[""materials/imgs/D11.png"",""materials/imgs/D92.png""]","false","random","","",""
"","","","","","html-keyboard-response","56","155876","0.0-13.0-0.1-0.9","yoevce1vmq","","yoevce1vmq","""2024-11-12T18:18:09.911Z""","null","+","null","","","","","","",""
"","","","","","image-keyboard-response","57","157196","0.0-13.0-0.1-1.9","yoevce1vmq","","yoevce1vmq","""2024-11-12T18:18:09.911Z""","1318","materials/imgs/D103.png","arrowleft","","[""materials/imgs/D106.png"",""materials/imgs/D75.png""]","false","random","","",""
"","","","","","html-keyboard-response","58","157697","0.0-13.0-0.1-0.10","yoevce1vmq","","yoevce1vmq","""2024-11-12T18:18:09.911Z""","null","+","null","","","","","","",""
"","","","","","image-keyboard-response","59","158360","0.0-13.0-0.1-1.10","yoevce1vmq","","yoevce1vmq","""2024-11-12T18:18:09.911Z""","661","materials/imgs/D9.png","arrowleft","","[""materials/imgs/D87.png"",""materials/imgs/D102.png""]","false","random","","",""
"","","","","","html-keyboard-response","60","158861","0.0-13.0-0.1-0.11","yoevce1vmq","","yoevce1vmq","""2024-11-12T18:18:09.911Z""","null","+","null","","","","","","",""
"","","","","","image-keyboard-response","61","161483","0.0-13.0-0.1-1.11","yoevce1vmq","","yoevce1vmq","""2024-11-12T18:18:09.911Z""","2620","materials/imgs/D8.png","arrowleft","","[""materials/imgs/D104.png"",""materials/imgs/D79.png""]","false","random","","",""
"","","","","","html-keyboard-response","62","161984","0.0-13.0-0.1-0.12","yoevce1vmq","","yoevce1vmq","""2024-11-12T18:18:09.911Z""","null","+","null","","","","","","",""
"","","","","","image-keyboard-response","63","164590","0.0-13.0-0.1-1.12","yoevce1vmq","","yoevce1vmq","""2024-11-12T18:18:09.911Z""","2604","materials/imgs/D24.png","arrowright","","[""materials/imgs/D102.png"",""materials/imgs/D18.png""]","false","random","","",""
"","","","","","html-keyboard-response","64","165091","0.0-13.0-0.1-0.13","yoevce1vmq","","yoevce1vmq","""2024-11-12T18:18:09.911Z""","null","+","null","","","","","","",""
"","","","","","image-keyboard-response","65","166222","0.0-13.0-0.1-1.13","yoevce1vmq","","yoevce1vmq","""2024-11-12T18:18:09.911Z""","1129","materials/imgs/D35.png","arrowright","","[""materials/imgs/D105.png"",""materials/imgs/D56.png""]","false","random","","",""
"","","","","","html-keyboard-response","66","166723","0.0-13.0-1.1-0.1","yoevce1vmq","","yoevce1vmq","""2024-11-12T18:18:09.911Z""","null","+","null","","","","","","",""
"","","","","","image-keyboard-response","67","167389","0.0-13.0-1.1-1.1","yoevce1vmq","","yoevce1vmq","""2024-11-12T18:18:09.911Z""","664","materials/imgs/D26.png","arrowleft","","[""materials/imgs/D26.png"",""materials/imgs/D46.png""]","","check","materials/imgs/D26.png","0","true"
"","","","","","html-keyboard-response","68","167890","0.0-13.0-2.1-0.2","yoevce1vmq","","yoevce1vmq","""2024-11-12T18:18:09.911Z""","null","+","null","","","","","","",""
"","","","","","image-keyboard-response","69","171633","0.0-13.0-2.1-1.2","yoevce1vmq","","yoevce1vmq","""2024-11-12T18:18:09.911Z""","3741","materials/imgs/D66.png","arrowleft","","[""materials/imgs/D85.png"",""materials/imgs/D25.png""]","false","validation","","",""
"","","","","","html-keyboard-response","70","172134","0.0-13.0-2.1-0.3","yoevce1vmq","","yoevce1vmq","""2024-11-12T18:18:09.911Z""","null","+","null","","","","","","",""
"","","","","","image-keyboard-response","71","175571","0.0-13.0-2.1-1.3","yoevce1vmq","","yoevce1vmq","""2024-11-12T18:18:09.911Z""","3435","materials/imgs/D46.png","arrowleft","","[""materials/imgs/D92.png"",""materials/imgs/D77.png""]","false","validation","","",""
"","","","","","html-keyboard-response","72","176072","0.0-13.0-0.2-0.14","yoevce1vmq","","yoevce1vmq","""2024-11-12T18:18:09.911Z""","null","+","null","","","","","","",""
"","","","","","image-keyboard-response","73","177923","0.0-13.0-0.2-1.14","yoevce1vmq","","yoevce1vmq","""2024-11-12T18:18:09.911Z""","1849","materials/imgs/D6.png","arrowleft","","[""materials/imgs/D11.png"",""materials/imgs/D26.png""]","false","random","","",""
"","","","","","html-keyboard-response","74","178424","0.0-13.0-0.2-0.15","yoevce1vmq","","yoevce1vmq","""2024-11-12T18:18:09.911Z""","null","+","null","","","","","","",""
"","","","","","image-keyboard-response","75","179703","0.0-13.0-0.2-1.15","yoevce1vmq","","yoevce1vmq","""2024-11-12T18:18:09.911Z""","1278","materials/imgs/D68.png","arrowright","","[""materials/imgs/D46.png"",""materials/imgs/D29.png""]","false","random","","",""
"","","","","","html-keyboard-response","76","180205","0.0-13.0-0.2-0.16","yoevce1vmq","","yoevce1vmq","""2024-11-12T18:18:09.911Z""","null","+","null","","","","","","",""
"","","","","","image-keyboard-response","77","181643","0.0-13.0-0.2-1.16","yoevce1vmq","","yoevce1vmq","""2024-11-12T18:18:09.911Z""","1437","materials/imgs/D92.png","arrowright","","[""materials/imgs/D53.png"",""materials/imgs/D104.png""]","false","random","","",""
"","","","","","html-keyboard-response","78","182145","0.0-13.0-0.2-0.17","yoevce1vmq","","yoevce1vmq","""2024-11-12T18:18:09.911Z""","null","+","null","","","","","","",""
"","","","","","image-keyboard-response","79","183524","0.0-13.0-0.2-1.17","yoevce1vmq","","yoevce1vmq","""2024-11-12T18:18:09.911Z""","1377","materials/imgs/D94.png","arrowleft","","[""materials/imgs/D51.png"",""materials/imgs/D3.png""]","false","random","","",""
"","","","","","html-keyboard-response","80","184025","0.0-13.0-0.2-0.18","yoevce1vmq","","yoevce1vmq","""2024-11-12T18:18:09.911Z""","null","+","null","","","","","","",""
"","","","","","image-keyboard-response","81","187646","0.0-13.0-0.2-1.18","yoevce1vmq","","yoevce1vmq","""2024-11-12T18:18:09.911Z""","3619","materials/imgs/D34.png","arrowright","","[""materials/imgs/D19.png"",""materials/imgs/D82.png""]","false","random","","",""
"","","","","","html-keyboard-response","82","188148","0.0-13.0-0.2-0.19","yoevce1vmq","","yoevce1vmq","""2024-11-12T18:18:09.911Z""","null","+","null","","","","","","",""
"","","","","","image-keyboard-response","83","189404","0.0-13.0-0.2-1.19","yoevce1vmq","","yoevce1vmq","""2024-11-12T18:18:09.911Z""","1255","materials/imgs/D56.png","arrowright","","[""materials/imgs/D16.png"",""materials/imgs/D82.png""]","false","random","","",""
"","","","","","html-keyboard-response","84","189906","0.0-13.0-0.2-0.20","yoevce1vmq","","yoevce1vmq","""2024-11-12T18:18:09.911Z""","null","+","null","","","","","","",""
"","","","","","image-keyboard-response","85","190982","0.0-13.0-0.2-1.20","yoevce1vmq","","yoevce1vmq","""2024-11-12T18:18:09.911Z""","1074","materials/imgs/D46.png","arrowright","","[""materials/imgs/D102.png"",""materials/imgs/D51.png""]","false","random","","",""
"","","","","","html-keyboard-response","86","191483","0.0-13.0-1.2-0.2","yoevce1vmq","","yoevce1vmq","""2024-11-12T18:18:09.911Z""","null","+","null","","","","","","",""
"","","","","","image-keyboard-response","87","192158","0.0-13.0-1.2-1.2","yoevce1vmq","","yoevce1vmq","""2024-11-12T18:18:09.911Z""","674","materials/imgs/D106.png","arrowleft","","[""materials/imgs/D106.png"",""materials/imgs/D101.png""]","","check","materials/imgs/D106.png","0","true"
"","","","","","html-keyboard-response","88","192660","0.0-13.0-2.2-0.4","yoevce1vmq","","yoevce1vmq","""2024-11-12T18:18:09.911Z""","null","+","null","","","","","","",""
"","","","","","image-keyboard-response","89","197678","0.0-13.0-2.2-1.4","yoevce1vmq","","yoevce1vmq","""2024-11-12T18:18:09.911Z""","5017","materials/imgs/D106.png","arrowleft","","[""materials/imgs/D57.png"",""materials/imgs/D18.png""]","false","validation","","",""
"","","","","","html-keyboard-response","90","198180","0.0-13.0-2.2-0.5","yoevce1vmq","","yoevce1vmq","""2024-11-12T18:18:09.911Z""","null","+","null","","","","","","",""
"","","","","","image-keyboard-response","91","201543","0.0-13.0-2.2-1.5","yoevce1vmq","","yoevce1vmq","""2024-11-12T18:18:09.911Z""","3361","materials/imgs/D103.png","arrowright","","[""materials/imgs/D76.png"",""materials/imgs/D106.png""]","false","validation","","",""
"","","","","","html-keyboard-response","92","202043","0.0-13.0-0.3-0.21","yoevce1vmq","","yoevce1vmq","""2024-11-12T18:18:09.911Z""","null","+","null","","","","","","",""
"","","","","","image-keyboard-response","93","203885","0.0-13.0-0.3-1.21","yoevce1vmq","","yoevce1vmq","""2024-11-12T18:18:09.911Z""","1839","materials/imgs/D6.png","arrowright","","[""materials/imgs/D56.png"",""materials/imgs/D105.png""]","false","random","","",""
"","","","","","html-keyboard-response","94","204386","0.0-13.0-0.3-0.22","yoevce1vmq","","yoevce1vmq","""2024-11-12T18:18:09.911Z""","null","+","null","","","","","","",""
"","","","","","image-keyboard-response","95","205437","0.0-13.0-0.3-1.22","yoevce1vmq","","yoevce1vmq","""2024-11-12T18:18:09.911Z""","1050","materials/imgs/D82.png","arrowright","","[""materials/imgs/D96.png"",""materials/imgs/D1.png""]","false","random","","",""
"","","","","","html-keyboard-response","96","205938","0.0-13.0-0.3-0.23","yoevce1vmq","","yoevce1vmq","""2024-11-12T18:18:09.911Z""","null","+","null","","","","","","",""
"","","","","","image-keyboard-response","97","208397","0.0-13.0-0.3-1.23","yoevce1vmq","","yoevce1vmq","""2024-11-12T18:18:09.911Z""","2457","materials/imgs/D96.png","arrowleft","","[""materials/imgs/D22.png"",""materials/imgs/D17.png""]","false","random","","",""
"","","","","","html-keyboard-response","98","208899","0.0-13.0-0.3-0.24","yoevce1vmq","","yoevce1vmq","""2024-11-12T18:18:09.911Z""","null","+","null","","","","","","",""
"","","","","","image-keyboard-response","99","209932","0.0-13.0-0.3-1.24","yoevce1vmq","","yoevce1vmq","""2024-11-12T18:18:09.911Z""","1032","materials/imgs/D4.png","arrowright","","[""materials/imgs/D101.png"",""materials/imgs/D83.png""]","false","random","","",""
"","","","","","html-keyboard-response","100","210434","0.0-13.0-0.3-0.25","yoevce1vmq","","yoevce1vmq","""2024-11-12T18:18:09.911Z""","null","+","null","","","","","","",""
"","","","","","image-keyboard-response","101","211465","0.0-13.0-0.3-1.25","yoevce1vmq","","yoevce1vmq","""2024-11-12T18:18:09.911Z""","1029","materials/imgs/D1.png","arrowleft","","[""materials/imgs/D105.png"",""materials/imgs/D102.png""]","false","random","","",""
"","","","","","html-keyboard-response","102","211966","0.0-13.0-0.3-0.26","yoevce1vmq","","yoevce1vmq","""2024-11-12T18:18:09.911Z""","null","+","null","","","","","","",""
"","","","","","image-keyboard-response","103","213414","0.0-13.0-0.3-1.26","yoevce1vmq","","yoevce1vmq","""2024-11-12T18:18:09.911Z""","1446","materials/imgs/D68.png","arrowleft","","[""materials/imgs/D76.png"",""materials/imgs/D104.png""]","false","random","","",""
"","","","","","html-keyboard-response","104","213915","0.0-13.0-0.3-0.27","yoevce1vmq","","yoevce1vmq","""2024-11-12T18:18:09.911Z""","null","+","null","","","","","","",""
"","","","","","image-keyboard-response","105","214869","0.0-13.0-0.3-1.27","yoevce1vmq","","yoevce1vmq","""2024-11-12T18:18:09.911Z""","952","materials/imgs/D35.png","arrowright","","[""materials/imgs/D87.png"",""materials/imgs/D65.png""]","false","random","","",""
"","","","","","html-keyboard-response","106","215370","0.0-13.0-1.3-0.3","yoevce1vmq","","yoevce1vmq","""2024-11-12T18:18:09.911Z""","null","+","null","","","","","","",""
"","","","","","image-keyboard-response","107","216001","0.0-13.0-1.3-1.3","yoevce1vmq","","yoevce1vmq","""2024-11-12T18:18:09.911Z""","629","materials/imgs/D106.png","arrowleft","","[""materials/imgs/D106.png"",""materials/imgs/D101.png""]","","check","materials/imgs/D106.png","0","true"
"","","","","","html-keyboard-response","108","216502","0.0-13.0-2.3-0.6","yoevce1vmq","","yoevce1vmq","""2024-11-12T18:18:09.911Z""","null","+","null","","","","","","",""
"","","","","","image-keyboard-response","109","219249","0.0-13.0-2.3-1.6","yoevce1vmq","","yoevce1vmq","""2024-11-12T18:18:09.911Z""","2745","materials/imgs/D92.png","arrowright","","[""materials/imgs/D56.png"",""materials/imgs/D77.png""]","false","validation","","",""
"","","","","","html-keyboard-response","110","219751","0.0-13.0-2.3-0.7","yoevce1vmq","","yoevce1vmq","""2024-11-12T18:18:09.911Z""","null","+","null","","","","","","",""
"","","","","","image-keyboard-response","111","222917","0.0-13.0-2.3-1.7","yoevce1vmq","","yoevce1vmq","""2024-11-12T18:18:09.911Z""","3165","materials/imgs/D6.png","arrowright","","[""materials/imgs/D26.png"",""materials/imgs/D76.png""]","false","validation","","",""
"","","","","","html-keyboard-response","112","223419","0.0-13.0-0.4-0.28","yoevce1vmq","","yoevce1vmq","""2024-11-12T18:18:09.911Z""","null","+","null","","","","","","",""
"","","","","","image-keyboard-response","113","224440","0.0-13.0-0.4-1.28","yoevce1vmq","","yoevce1vmq","""2024-11-12T18:18:09.911Z""","1020","materials/imgs/D1.png","arrowright","","[""materials/imgs/D36.png"",""materials/imgs/D95.png""]","false","random","","",""
"","","","","","html-keyboard-response","114","224941","0.0-13.0-0.4-0.29","yoevce1vmq","","yoevce1vmq","""2024-11-12T18:18:09.911Z""","null","+","null","","","","","","",""
"","","","","","image-keyboard-response","115","226193","0.0-13.0-0.4-1.29","yoevce1vmq","","yoevce1vmq","""2024-11-12T18:18:09.911Z""","1250","materials/imgs/D29.png","arrowleft","","[""materials/imgs/D106.png"",""materials/imgs/D95.png""]","false","random","","",""
"","","","","","html-keyboard-response","116","226695","0.0-13.0-0.4-0.30","yoevce1vmq","","yoevce1vmq","""2024-11-12T18:18:09.911Z""","null","+","null","","","","","","",""
"","","","","","image-keyboard-response","117","228221","0.0-13.0-0.4-1.30","yoevce1vmq","","yoevce1vmq","""2024-11-12T18:18:09.911Z""","1525","materials/imgs/D74.png","arrowleft","","[""materials/imgs/D9.png"",""materials/imgs/D94.png""]","false","random","","",""
"","","","","","html-keyboard-response","118","228723","0.0-13.0-0.4-0.31","yoevce1vmq","","yoevce1vmq","""2024-11-12T18:18:09.911Z""","null","+","null","","","","","","",""
"","","","","","image-keyboard-response","119","229477","0.0-13.0-0.4-1.31","yoevce1vmq","","yoevce1vmq","""2024-11-12T18:18:09.911Z""","753","materials/imgs/D103.png","arrowright","","[""materials/imgs/D19.png"",""materials/imgs/D104.png""]","false","random","","",""
"","","","","","html-keyboard-response","120","229979","0.0-13.0-0.4-0.32","yoevce1vmq","","yoevce1vmq","""2024-11-12T18:18:09.911Z""","null","+","null","","","","","","",""
"","","","","","image-keyboard-response","121","230901","0.0-13.0-0.4-1.32","yoevce1vmq","","yoevce1vmq","""2024-11-12T18:18:09.911Z""","921","materials/imgs/D53.png","arrowright","","[""materials/imgs/D76.png"",""materials/imgs/D17.png""]","false","random","","",""
"","","","","","html-keyboard-response","122","231402","0.0-13.0-0.4-0.33","yoevce1vmq","","yoevce1vmq","""2024-11-12T18:18:09.911Z""","null","+","null","","","","","","",""
"","","","","","image-keyboard-response","123","232676","0.0-13.0-0.4-1.33","yoevce1vmq","","yoevce1vmq","""2024-11-12T18:18:09.911Z""","1273","materials/imgs/D106.png","arrowleft","","[""materials/imgs/D14.png"",""materials/imgs/D29.png""]","false","random","","",""
"","","","","","html-keyboard-response","124","233178","0.0-13.0-0.4-0.34","yoevce1vmq","","yoevce1vmq","""2024-11-12T18:18:09.911Z""","null","+","null","","","","","","",""
"","","","","","image-keyboard-response","125","234925","0.0-13.0-0.4-1.34","yoevce1vmq","","yoevce1vmq","""2024-11-12T18:18:09.911Z""","1746","materials/imgs/D25.png","arrowleft","","[""materials/imgs/D83.png"",""materials/imgs/D18.png""]","false","random","","",""
"","","","","","html-keyboard-response","126","235426","0.0-13.0-1.4-0.4","yoevce1vmq","","yoevce1vmq","""2024-11-12T18:18:09.911Z""","null","+","null","","","","","","",""
"","","","","","image-keyboard-response","127","236063","0.0-13.0-1.4-1.4","yoevce1vmq","","yoevce1vmq","""2024-11-12T18:18:09.911Z""","635","materials/imgs/D106.png","arrowleft","","[""materials/imgs/D106.png"",""materials/imgs/D101.png""]","","check","materials/imgs/D106.png","0","true"
"","","","","","html-keyboard-response","128","236564","0.0-13.0-2.4-0.8","yoevce1vmq","","yoevce1vmq","""2024-11-12T18:18:09.911Z""","null","+","null","","","","","","",""
"","","","","","image-keyboard-response","129","240630","0.0-13.0-2.4-1.8","yoevce1vmq","","yoevce1vmq","""2024-11-12T18:18:09.911Z""","4064","materials/imgs/D4.png","arrowright","","[""materials/imgs/D52.png"",""materials/imgs/D83.png""]","false","validation","","",""
"","","","","","html-keyboard-response","130","241131","0.0-13.0-2.4-0.9","yoevce1vmq","","yoevce1vmq","""2024-11-12T18:18:09.911Z""","null","+","null","","","","","","",""
"","","","","","image-keyboard-response","131","242544","0.0-13.0-2.4-1.9","yoevce1vmq","","yoevce1vmq","""2024-11-12T18:18:09.911Z""","1411","materials/imgs/D84.png","arrowleft","","[""materials/imgs/D106.png"",""materials/imgs/D37.png""]","false","validation","","",""
"","","","","","html-button-response","132","244002","0.0-14.0","yoevce1vmq","","yoevce1vmq","""2024-11-12T18:18:09.911Z""","1457","You have completed 25% of the trials. Please click 'Continue' when you are ready proceed.","0","","","","","","",""
"","","","","","html-keyboard-response","133","244503","0.0-15.0-0.0-0.0","yoevce1vmq","","yoevce1vmq","""2024-11-12T18:18:09.911Z""","null","+","null","","","","","","",""
"","","","","","image-keyboard-response","134","246225","0.0-15.0-0.0-1.0","yoevce1vmq","","yoevce1vmq","""2024-11-12T18:18:09.911Z""","1720","materials/imgs/D22.png","arrowright","","[""materials/imgs/D16.png"",""materials/imgs/D66.png""]","false","random","","",""
"","","","","","html-keyboard-response","135","246726","0.0-15.0-0.0-0.1","yoevce1vmq","","yoevce1vmq","""2024-11-12T18:18:09.911Z""","null","+","null","","","","","","",""
"","","","","","image-keyboard-response","136","248665","0.0-15.0-0.0-1.1","yoevce1vmq","","yoevce1vmq","""2024-11-12T18:18:09.911Z""","1937","materials/imgs/D101.png","arrowright","","[""materials/imgs/D80.png"",""materials/imgs/D22.png""]","false","random","","",""
"","","","","","html-keyboard-response","137","249166","0.0-15.0-0.0-0.2","yoevce1vmq","","yoevce1vmq","""2024-11-12T18:18:09.911Z""","null","+","null","","","","","","",""
"","","","","","image-keyboard-response","138","250029","0.0-15.0-0.0-1.2","yoevce1vmq","","yoevce1vmq","""2024-11-12T18:18:09.911Z""","861","materials/imgs/D77.png","arrowleft","","[""materials/imgs/D4.png"",""materials/imgs/D26.png""]","false","random","","",""
"","","","","","html-keyboard-response","139","250531","0.0-15.0-0.0-0.3","yoevce1vmq","","yoevce1vmq","""2024-11-12T18:18:09.911Z""","null","+","null","","","","","","",""
"","","","","","image-keyboard-response","140","252167","0.0-15.0-0.0-1.3","yoevce1vmq","","yoevce1vmq","""2024-11-12T18:18:09.911Z""","1635","materials/imgs/D34.png","arrowright","","[""materials/imgs/D76.png"",""materials/imgs/D37.png""]","false","random","","",""
"","","","","","html-keyboard-response","141","252669","0.0-15.0-0.0-0.4","yoevce1vmq","","yoevce1vmq","""2024-11-12T18:18:09.911Z""","null","+","null","","","","","","",""
"","","","","","image-keyboard-response","142","255024","0.0-15.0-0.0-1.4","yoevce1vmq","","yoevce1vmq","""2024-11-12T18:18:09.911Z""","2354","materials/imgs/D74.png","arrowleft","","[""materials/imgs/D95.png"",""materials/imgs/D32.png""]","false","random","","",""
"","","","","","html-keyboard-response","143","255526","0.0-15.0-0.0-0.5","yoevce1vmq","","yoevce1vmq","""2024-11-12T18:18:09.911Z""","null","+","null","","","","","","",""
"","","","","","image-keyboard-response","144","256332","0.0-15.0-0.0-1.5","yoevce1vmq","","yoevce1vmq","""2024-11-12T18:18:09.911Z""","804","materials/imgs/D56.png","arrowright","","[""materials/imgs/D32.png"",""materials/imgs/D95.png""]","false","random","","",""
"","","","","","html-keyboard-response","145","256833","0.0-15.0-0.0-0.6","yoevce1vmq","","yoevce1vmq","""2024-11-12T18:18:09.911Z""","null","+","null","","","","","","",""
"","","","","","image-keyboard-response","146","257973","0.0-15.0-0.0-1.6","yoevce1vmq","","yoevce1vmq","""2024-11-12T18:18:09.911Z""","1138","materials/imgs/D101.png","arrowright","","[""materials/imgs/D85.png"",""materials/imgs/D92.png""]","false","random","","",""
"","","","","","html-keyboard-response","147","258474","0.0-15.0-1.0-0.0","yoevce1vmq","","yoevce1vmq","""2024-11-12T18:18:09.911Z""","null","+","null","","","","","","",""
"","","","","","image-keyboard-response","148","259119","0.0-15.0-1.0-1.0","yoevce1vmq","","yoevce1vmq","""2024-11-12T18:18:09.911Z""","644","materials/imgs/D8.png","arrowright","","[""materials/imgs/D18.png"",""materials/imgs/D8.png""]","","check","materials/imgs/D8.png","1","true"
"","","","","","html-keyboard-response","149","259621","0.0-15.0-2.0-0.0","yoevce1vmq","","yoevce1vmq","""2024-11-12T18:18:09.911Z""","null","+","null","","","","","","",""
"","","","","","image-keyboard-response","150","264733","0.0-15.0-2.0-1.0","yoevce1vmq","","yoevce1vmq","""2024-11-12T18:18:09.911Z""","5111","materials/imgs/D51.png","arrowright","","[""materials/imgs/D92.png"",""materials/imgs/D20.png""]","false","validation","","",""
"","","","","","html-keyboard-response","151","265235","0.0-15.0-2.0-0.1","yoevce1vmq","","yoevce1vmq","""2024-11-12T18:18:09.911Z""","null","+","null","","","","","","",""
"","","","","","image-keyboard-response","152","269893","0.0-15.0-2.0-1.1","yoevce1vmq","","yoevce1vmq","""2024-11-12T18:18:09.911Z""","4657","materials/imgs/D85.png","arrowright","","[""materials/imgs/D6.png"",""materials/imgs/D111.png""]","false","validation","","",""
"","","","","","html-keyboard-response","153","270394","0.0-15.0-0.1-0.7","yoevce1vmq","","yoevce1vmq","""2024-11-12T18:18:09.911Z""","null","+","null","","","","","","",""
"","","","","","image-keyboard-response","154","271674","0.0-15.0-0.1-1.7","yoevce1vmq","","yoevce1vmq","""2024-11-12T18:18:09.911Z""","1278","materials/imgs/D19.png","arrowright","","[""materials/imgs/D36.png"",""materials/imgs/D47.png""]","false","random","","",""
"","","","","","html-keyboard-response","155","272175","0.0-15.0-0.1-0.8","yoevce1vmq","","yoevce1vmq","""2024-11-12T18:18:09.911Z""","null","+","null","","","","","","",""
"","","","","","image-keyboard-response","156","273775","0.0-15.0-0.1-1.8","yoevce1vmq","","yoevce1vmq","""2024-11-12T18:18:09.911Z""","1599","materials/imgs/D94.png","arrowleft","","[""materials/imgs/D47.png"",""materials/imgs/D111.png""]","false","random","","",""
"","","","","","html-keyboard-response","157","274277","0.0-15.0-0.1-0.9","yoevce1vmq","","yoevce1vmq","""2024-11-12T18:18:09.911Z""","null","+","null","","","","","","",""
"","","","","","image-keyboard-response","158","276275","0.0-15.0-0.1-1.9","yoevce1vmq","","yoevce1vmq","""2024-11-12T18:18:09.911Z""","1997","materials/imgs/D111.png","arrowleft","","[""materials/imgs/D83.png"",""materials/imgs/D78.png""]","false","random","","",""
"","","","","","html-keyboard-response","159","276777","0.0-15.0-0.1-0.10","yoevce1vmq","","yoevce1vmq","""2024-11-12T18:18:09.911Z""","null","+","null","","","","","","",""
"","","","","","image-keyboard-response","160","278122","0.0-15.0-0.1-1.10","yoevce1vmq","","yoevce1vmq","""2024-11-12T18:18:09.911Z""","1339","materials/imgs/D64.png","arrowleft","","[""materials/imgs/D16.png"",""materials/imgs/D77.png""]","false","random","","",""
"","","","","","html-keyboard-response","161","278623","0.0-15.0-0.1-0.11","yoevce1vmq","","yoevce1vmq","""2024-11-12T18:18:09.911Z""","null","+","null","","","","","","",""
"","","","","","image-keyboard-response","162","280456","0.0-15.0-0.1-1.11","yoevce1vmq","","yoevce1vmq","""2024-11-12T18:18:09.911Z""","1832","materials/imgs/D14.png","arrowleft","","[""materials/imgs/D22.png"",""materials/imgs/D75.png""]","false","random","","",""
"","","","","","html-keyboard-response","163","280958","0.0-15.0-0.1-0.12","yoevce1vmq","","yoevce1vmq","""2024-11-12T18:18:09.911Z""","null","+","null","","","","","","",""
"","","","","","image-keyboard-response","164","281801","0.0-15.0-0.1-1.12","yoevce1vmq","","yoevce1vmq","""2024-11-12T18:18:09.911Z""","842","materials/imgs/D53.png","arrowright","","[""materials/imgs/D96.png"",""materials/imgs/D66.png""]","false","random","","",""
"","","","","","html-keyboard-response","165","282302","0.0-15.0-0.1-0.13","yoevce1vmq","","yoevce1vmq","""2024-11-12T18:18:09.911Z""","null","+","null","","","","","","",""
"","","","","","image-keyboard-response","166","283230","0.0-15.0-0.1-1.13","yoevce1vmq","","yoevce1vmq","""2024-11-12T18:18:09.911Z""","926","materials/imgs/D21.png","arrowright","","[""materials/imgs/D20.png"",""materials/imgs/D80.png""]","false","random","","",""
"","","","","","html-keyboard-response","167","283732","0.0-15.0-1.1-0.1","yoevce1vmq","","yoevce1vmq","""2024-11-12T18:18:09.911Z""","null","+","null","","","","","","",""
"","","","","","image-keyboard-response","168","284426","0.0-15.0-1.1-1.1","yoevce1vmq","","yoevce1vmq","""2024-11-12T18:18:09.911Z""","693","materials/imgs/D64.png","arrowleft","","[""materials/imgs/D64.png"",""materials/imgs/D53.png""]","","check","materials/imgs/D64.png","0","true"
"","","","","","html-keyboard-response","169","284928","0.0-15.0-2.1-0.2","yoevce1vmq","","yoevce1vmq","""2024-11-12T18:18:09.911Z""","null","+","null","","","","","","",""
"","","","","","image-keyboard-response","170","286178","0.0-15.0-2.1-1.2","yoevce1vmq","","yoevce1vmq","""2024-11-12T18:18:09.911Z""","1249","materials/imgs/D11.png","arrowleft","","[""materials/imgs/D83.png"",""materials/imgs/D48.png""]","false","validation","","",""
"","","","","","html-keyboard-response","171","286679","0.0-15.0-2.1-0.3","yoevce1vmq","","yoevce1vmq","""2024-11-12T18:18:09.911Z""","null","+","null","","","","","","",""
"","","","","","image-keyboard-response","172","288159","0.0-15.0-2.1-1.3","yoevce1vmq","","yoevce1vmq","""2024-11-12T18:18:09.911Z""","1479","materials/imgs/D16.png","arrowleft","","[""materials/imgs/D52.png"",""materials/imgs/D25.png""]","false","validation","","",""
"","","","","","html-keyboard-response","173","288661","0.0-15.0-0.2-0.14","yoevce1vmq","","yoevce1vmq","""2024-11-12T18:18:09.911Z""","null","+","null","","","","","","",""
"","","","","","image-keyboard-response","174","289873","0.0-15.0-0.2-1.14","yoevce1vmq","","yoevce1vmq","""2024-11-12T18:18:09.911Z""","1211","materials/imgs/D57.png","arrowright","","[""materials/imgs/D19.png"",""materials/imgs/D18.png""]","false","random","","",""
"","","","","","html-keyboard-response","175","290374","0.0-15.0-0.2-0.15","yoevce1vmq","","yoevce1vmq","""2024-11-12T18:18:09.911Z""","null","+","null","","","","","","",""
"","","","","","image-keyboard-response","176","292354","0.0-15.0-0.2-1.15","yoevce1vmq","","yoevce1vmq","""2024-11-12T18:18:09.911Z""","1978","materials/imgs/D26.png","arrowright","","[""materials/imgs/D87.png"",""materials/imgs/D53.png""]","false","random","","",""
"","","","","","html-keyboard-response","177","292856","0.0-15.0-0.2-0.16","yoevce1vmq","","yoevce1vmq","""2024-11-12T18:18:09.911Z""","null","+","null","","","","","","",""
"","","","","","image-keyboard-response","178","293836","0.0-15.0-0.2-1.16","yoevce1vmq","","yoevce1vmq","""2024-11-12T18:18:09.911Z""","978","materials/imgs/D18.png","arrowright","","[""materials/imgs/D101.png"",""materials/imgs/D56.png""]","false","random","","",""
"","","","","","html-keyboard-response","179","294337","0.0-15.0-0.2-0.17","yoevce1vmq","","yoevce1vmq","""2024-11-12T18:18:09.911Z""","null","+","null","","","","","","",""
"","","","","","image-keyboard-response","180","295303","0.0-15.0-0.2-1.17","yoevce1vmq","","yoevce1vmq","""2024-11-12T18:18:09.911Z""","964","materials/imgs/D24.png","arrowright","","[""materials/imgs/D46.png"",""materials/imgs/D17.png""]","false","random","","",""
"","","","","","html-keyboard-response","181","295804","0.0-15.0-0.2-0.18","yoevce1vmq","","yoevce1vmq","""2024-11-12T18:18:09.911Z""","null","+","null","","","","","","",""
"","","","","","image-keyboard-response","182","296974","0.0-15.0-0.2-1.18","yoevce1vmq","","yoevce1vmq","""2024-11-12T18:18:09.911Z""","1168","materials/imgs/D105.png","arrowright","","[""materials/imgs/D74.png"",""materials/imgs/D20.png""]","false","random","","",""
"","","","","","html-keyboard-response","183","297475","0.0-15.0-0.2-0.19","yoevce1vmq","","yoevce1vmq","""2024-11-12T18:18:09.911Z""","null","+","null","","","","","","",""
"","","","","","image-keyboard-response","184","298180","0.0-15.0-0.2-1.19","yoevce1vmq","","yoevce1vmq","""2024-11-12T18:18:09.911Z""","704","materials/imgs/D21.png","arrowright","","[""materials/imgs/D46.png"",""materials/imgs/D4.png""]","false","random","","",""
"","","","","","html-keyboard-response","185","298681","0.0-15.0-0.2-0.20","yoevce1vmq","","yoevce1vmq","""2024-11-12T18:18:09.911Z""","null","+","null","","","","","","",""
"","","","","","image-keyboard-response","186","299410","0.0-15.0-0.2-1.20","yoevce1vmq","","yoevce1vmq","""2024-11-12T18:18:09.911Z""","727","materials/imgs/D84.png","arrowleft","","[""materials/imgs/D4.png"",""materials/imgs/D51.png""]","false","random","","",""
"","","","","","html-keyboard-response","187","299912","0.0-15.0-1.2-0.2","yoevce1vmq","","yoevce1vmq","""2024-11-12T18:18:09.911Z""","null","+","null","","","","","","",""
"","","","","","image-keyboard-response","188","300803","0.0-15.0-1.2-1.2","yoevce1vmq","","yoevce1vmq","""2024-11-12T18:18:09.911Z""","890","materials/imgs/D64.png","arrowleft","","[""materials/imgs/D64.png"",""materials/imgs/D53.png""]","","check","materials/imgs/D64.png","0","true"
"","","","","","html-keyboard-response","189","301305","0.0-15.0-2.2-0.4","yoevce1vmq","","yoevce1vmq","""2024-11-12T18:18:09.911Z""","null","+","null","","","","","","",""
"","","","","","image-keyboard-response","190","304867","0.0-15.0-2.2-1.4","yoevce1vmq","","yoevce1vmq","""2024-11-12T18:18:09.911Z""","3561","materials/imgs/D64.png","arrowright","","[""materials/imgs/D6.png"",""materials/imgs/D81.png""]","false","validation","","",""
"","","","","","html-keyboard-response","191","305369","0.0-15.0-2.2-0.5","yoevce1vmq","","yoevce1vmq","""2024-11-12T18:18:09.911Z""","null","+","null","","","","","","",""
"","","","","","image-keyboard-response","192","307059","0.0-15.0-2.2-1.5","yoevce1vmq","","yoevce1vmq","""2024-11-12T18:18:09.911Z""","1689","materials/imgs/D83.png","arrowleft","","[""materials/imgs/D24.png"",""materials/imgs/D8.png""]","false","validation","","",""
"","","","","","html-keyboard-response","193","307560","0.0-15.0-0.3-0.21","yoevce1vmq","","yoevce1vmq","""2024-11-12T18:18:09.911Z""","null","+","null","","","","","","",""
"","","","","","image-keyboard-response","194","310481","0.0-15.0-0.3-1.21","yoevce1vmq","","yoevce1vmq","""2024-11-12T18:18:09.911Z""","2919","materials/imgs/D83.png","arrowright","","[""materials/imgs/D29.png"",""materials/imgs/D4.png""]","false","random","","",""
"","","","","","html-keyboard-response","195","310982","0.0-15.0-0.3-0.22","yoevce1vmq","","yoevce1vmq","""2024-11-12T18:18:09.911Z""","null","+","null","","","","","","",""
"","","","","","image-keyboard-response","196","311690","0.0-15.0-0.3-1.22","yoevce1vmq","","yoevce1vmq","""2024-11-12T18:18:09.911Z""","706","materials/imgs/D1.png","arrowright","","[""materials/imgs/D52.png"",""materials/imgs/D95.png""]","false","random","","",""
"","","","","","html-keyboard-response","197","312192","0.0-15.0-0.3-0.23","yoevce1vmq","","yoevce1vmq","""2024-11-12T18:18:09.911Z""","null","+","null","","","","","","",""
"","","","","","image-keyboard-response","198","312787","0.0-15.0-0.3-1.23","yoevce1vmq","","yoevce1vmq","""2024-11-12T18:18:09.911Z""","594","materials/imgs/D79.png","arrowright","","[""materials/imgs/D87.png"",""materials/imgs/D105.png""]","false","random","","",""
"","","","","","html-keyboard-response","199","313288","0.0-15.0-0.3-0.24","yoevce1vmq","","yoevce1vmq","""2024-11-12T18:18:09.911Z""","null","+","null","","","","","","",""
"","","","","","image-keyboard-response","200","314986","0.0-15.0-0.3-1.24","yoevce1vmq","","yoevce1vmq","""2024-11-12T18:18:09.911Z""","1696","materials/imgs/D79.png","arrowleft","","[""materials/imgs/D49.png"",""materials/imgs/D95.png""]","false","random","","",""
"","","","","","html-keyboard-response","201","315487","0.0-15.0-0.3-0.25","yoevce1vmq","","yoevce1vmq","""2024-11-12T18:18:09.911Z""","null","+","null","","","","","","",""
"","","","","","image-keyboard-response","202","316096","0.0-15.0-0.3-1.25","yoevce1vmq","","yoevce1vmq","""2024-11-12T18:18:09.911Z""","606","materials/imgs/D106.png","arrowright","","[""materials/imgs/D94.png"",""materials/imgs/D78.png""]","false","random","","",""
"","","","","","html-keyboard-response","203","316597","0.0-15.0-0.3-0.26","yoevce1vmq","","yoevce1vmq","""2024-11-12T18:18:09.911Z""","null","+","null","","","","","","",""
"","","","","","image-keyboard-response","204","317519","0.0-15.0-0.3-1.26","yoevce1vmq","","yoevce1vmq","""2024-11-12T18:18:09.911Z""","921","materials/imgs/D55.png","arrowleft","","[""materials/imgs/D11.png"",""materials/imgs/D46.png""]","false","random","","",""
"","","","","","html-keyboard-response","205","318021","0.0-15.0-0.3-0.27","yoevce1vmq","","yoevce1vmq","""2024-11-12T18:18:09.911Z""","null","+","null","","","","","","",""
"","","","","","image-keyboard-response","206","318946","0.0-15.0-0.3-1.27","yoevce1vmq","","yoevce1vmq","""2024-11-12T18:18:09.911Z""","923","materials/imgs/D94.png","arrowleft","","[""materials/imgs/D1.png"",""materials/imgs/D78.png""]","false","random","","",""
"","","","","","html-keyboard-response","207","319447","0.0-15.0-1.3-0.3","yoevce1vmq","","yoevce1vmq","""2024-11-12T18:18:09.911Z""","null","+","null","","","","","","",""
"","","","","","image-keyboard-response","208","320144","0.0-15.0-1.3-1.3","yoevce1vmq","","yoevce1vmq","""2024-11-12T18:18:09.911Z""","696","materials/imgs/D8.png","arrowright","","[""materials/imgs/D18.png"",""materials/imgs/D8.png""]","","check","materials/imgs/D8.png","1","true"
"","","","","","html-keyboard-response","209","320646","0.0-15.0-2.3-0.6","yoevce1vmq","","yoevce1vmq","""2024-11-12T18:18:09.911Z""","null","+","null","","","","","","",""
"","","","","","image-keyboard-response","210","321550","0.0-15.0-2.3-1.6","yoevce1vmq","","yoevce1vmq","""2024-11-12T18:18:09.911Z""","903","materials/imgs/D24.png","arrowleft","","[""materials/imgs/D36.png"",""materials/imgs/D8.png""]","false","validation","","",""
"","","","","","html-keyboard-response","211","322051","0.0-15.0-2.3-0.7","yoevce1vmq","","yoevce1vmq","""2024-11-12T18:18:09.911Z""","null","+","null","","","","","","",""
"","","","","","image-keyboard-response","212","323902","0.0-15.0-2.3-1.7","yoevce1vmq","","yoevce1vmq","""2024-11-12T18:18:09.911Z""","1849","materials/imgs/D20.png","arrowright","","[""materials/imgs/D84.png"",""materials/imgs/D85.png""]","false","validation","","",""
"","","","","","html-keyboard-response","213","324403","0.0-15.0-0.4-0.28","yoevce1vmq","","yoevce1vmq","""2024-11-12T18:18:09.911Z""","null","+","null","","","","","","",""
"","","","","","image-keyboard-response","214","326864","0.0-15.0-0.4-1.28","yoevce1vmq","","yoevce1vmq","""2024-11-12T18:18:09.911Z""","2459","materials/imgs/D52.png","arrowleft","","[""materials/imgs/D16.png"",""materials/imgs/D49.png""]","false","random","","",""
"","","","","","html-keyboard-response","215","327366","0.0-15.0-0.4-0.29","yoevce1vmq","","yoevce1vmq","""2024-11-12T18:18:09.911Z""","null","+","null","","","","","","",""
"","","","","","image-keyboard-response","216","328022","0.0-15.0-0.4-1.29","yoevce1vmq","","yoevce1vmq","""2024-11-12T18:18:09.911Z""","655","materials/imgs/D92.png","arrowright","","[""materials/imgs/D6.png"",""materials/imgs/D11.png""]","false","random","","",""
"","","","","","html-keyboard-response","217","328524","0.0-15.0-0.4-0.30","yoevce1vmq","","yoevce1vmq","""2024-11-12T18:18:09.911Z""","null","+","null","","","","","","",""
"","","","","","image-keyboard-response","218","331997","0.0-15.0-0.4-1.30","yoevce1vmq","","yoevce1vmq","""2024-11-12T18:18:09.911Z""","3472","materials/imgs/D87.png","arrowright","","[""materials/imgs/D53.png"",""materials/imgs/D14.png""]","false","random","","",""
"","","","","","html-keyboard-response","219","332499","0.0-15.0-0.4-0.31","yoevce1vmq","","yoevce1vmq","""2024-11-12T18:18:09.911Z""","null","+","null","","","","","","",""
"","","","","","image-keyboard-response","220","334818","0.0-15.0-0.4-1.31","yoevce1vmq","","yoevce1vmq","""2024-11-12T18:18:09.911Z""","2318","materials/imgs/D111.png","arrowleft","","[""materials/imgs/D57.png"",""materials/imgs/D85.png""]","false","random","","",""
"","","","","","html-keyboard-response","221","335320","0.0-15.0-0.4-0.32","yoevce1vmq","","yoevce1vmq","""2024-11-12T18:18:09.911Z""","null","+","null","","","","","","",""
"","","","","","image-keyboard-response","222","336820","0.0-15.0-0.4-1.32","yoevce1vmq","","yoevce1vmq","""2024-11-12T18:18:09.911Z""","1499","materials/imgs/D111.png","arrowleft","","[""materials/imgs/D76.png"",""materials/imgs/D102.png""]","false","random","","",""
"","","","","","html-keyboard-response","223","337321","0.0-15.0-0.4-0.33","yoevce1vmq","","yoevce1vmq","""2024-11-12T18:18:09.911Z""","null","+","null","","","","","","",""
"","","","","","image-keyboard-response","224","344463","0.0-15.0-0.4-1.33","yoevce1vmq","","yoevce1vmq","""2024-11-12T18:18:09.911Z""","7140","materials/imgs/D53.png","arrowright","","[""materials/imgs/D95.png"",""materials/imgs/D83.png""]","false","random","","",""
"","","","","","html-keyboard-response","225","344965","0.0-15.0-0.4-0.34","yoevce1vmq","","yoevce1vmq","""2024-11-12T18:18:09.911Z""","null","+","null","","","","","","",""
"","","","","","image-keyboard-response","226","346110","0.0-15.0-0.4-1.34","yoevce1vmq","","yoevce1vmq","""2024-11-12T18:18:09.911Z""","1144","materials/imgs/D14.png","arrowright","","[""materials/imgs/D111.png"",""materials/imgs/D52.png""]","false","random","","",""
"","","","","","html-keyboard-response","227","346611","0.0-15.0-1.4-0.4","yoevce1vmq","","yoevce1vmq","""2024-11-12T18:18:09.911Z""","null","+","null","","","","","","",""
"","","","","","image-keyboard-response","228","347231","0.0-15.0-1.4-1.4","yoevce1vmq","","yoevce1vmq","""2024-11-12T18:18:09.911Z""","619","materials/imgs/D18.png","arrowright","","[""materials/imgs/D8.png"",""materials/imgs/D18.png""]","","check","materials/imgs/D18.png","1","true"
"","","","","","html-keyboard-response","229","347732","0.0-15.0-2.4-0.8","yoevce1vmq","","yoevce1vmq","""2024-11-12T18:18:09.911Z""","null","+","null","","","","","","",""
"","","","","","image-keyboard-response","230","349862","0.0-15.0-2.4-1.8","yoevce1vmq","","yoevce1vmq","""2024-11-12T18:18:09.911Z""","2129","materials/imgs/D101.png","arrowright","","[""materials/imgs/D76.png"",""materials/imgs/D47.png""]","false","validation","","",""
"","","","","","html-keyboard-response","231","350363","0.0-15.0-2.4-0.9","yoevce1vmq","","yoevce1vmq","""2024-11-12T18:18:09.911Z""","null","+","null","","","","","","",""
"","","","","","image-keyboard-response","232","351927","0.0-15.0-2.4-1.9","yoevce1vmq","","yoevce1vmq","""2024-11-12T18:18:09.911Z""","1563","materials/imgs/D82.png","arrowleft","","[""materials/imgs/D83.png"",""materials/imgs/D22.png""]","false","validation","","",""
"","","","","","html-button-response","233","353047","0.0-16.0","yoevce1vmq","","yoevce1vmq","""2024-11-12T18:18:09.911Z""","1119","You have completed 50% of the trials. Please click 'Continue' when you are ready proceed.","0","","","","","","",""
"","","","","","html-keyboard-response","234","353548","0.0-17.0-0.0-0.0","yoevce1vmq","","yoevce1vmq","""2024-11-12T18:18:09.911Z""","null","+","null","","","","","","",""
"","","","","","image-keyboard-response","235","356200","0.0-17.0-0.0-1.0","yoevce1vmq","","yoevce1vmq","""2024-11-12T18:18:09.911Z""","2650","materials/imgs/D75.png","arrowright","","[""materials/imgs/D76.png"",""materials/imgs/D92.png""]","false","random","","",""
"","","","","","html-keyboard-response","236","356701","0.0-17.0-0.0-0.1","yoevce1vmq","","yoevce1vmq","""2024-11-12T18:18:09.911Z""","null","+","null","","","","","","",""
"","","","","","image-keyboard-response","237","358368","0.0-17.0-0.0-1.1","yoevce1vmq","","yoevce1vmq","""2024-11-12T18:18:09.911Z""","1665","materials/imgs/D55.png","arrowleft","","[""materials/imgs/D64.png"",""materials/imgs/D102.png""]","false","random","","",""
"","","","","","html-keyboard-response","238","358870","0.0-17.0-0.0-0.2","yoevce1vmq","","yoevce1vmq","""2024-11-12T18:18:09.911Z""","null","+","null","","","","","","",""
"","","","","","image-keyboard-response","239","360405","0.0-17.0-0.0-1.2","yoevce1vmq","","yoevce1vmq","""2024-11-12T18:18:09.911Z""","1534","materials/imgs/D51.png","arrowright","","[""materials/imgs/D6.png"",""materials/imgs/D96.png""]","false","random","","",""
"","","","","","html-keyboard-response","240","360906","0.0-17.0-0.0-0.3","yoevce1vmq","","yoevce1vmq","""2024-11-12T18:18:09.911Z""","null","+","null","","","","","","",""
"","","","","","image-keyboard-response","241","362117","0.0-17.0-0.0-1.3","yoevce1vmq","","yoevce1vmq","""2024-11-12T18:18:09.911Z""","1209","materials/imgs/D24.png","arrowleft","","[""materials/imgs/D85.png"",""materials/imgs/D64.png""]","false","random","","",""
"","","","","","html-keyboard-response","242","362618","0.0-17.0-0.0-0.4","yoevce1vmq","","yoevce1vmq","""2024-11-12T18:18:09.911Z""","null","+","null","","","","","","",""
"","","","","","image-keyboard-response","243","364727","0.0-17.0-0.0-1.4","yoevce1vmq","","yoevce1vmq","""2024-11-12T18:18:09.911Z""","2108","materials/imgs/D18.png","arrowleft","","[""materials/imgs/D66.png"",""materials/imgs/D6.png""]","false","random","","",""
"","","","","","html-keyboard-response","244","365228","0.0-17.0-0.0-0.5","yoevce1vmq","","yoevce1vmq","""2024-11-12T18:18:09.911Z""","null","+","null","","","","","","",""
"","","","","","image-keyboard-response","245","366584","0.0-17.0-0.0-1.5","yoevce1vmq","","yoevce1vmq","""2024-11-12T18:18:09.911Z""","1354","materials/imgs/D95.png","arrowleft","","[""materials/imgs/D55.png"",""materials/imgs/D53.png""]","false","random","","",""
"","","","","","html-keyboard-response","246","367085","0.0-17.0-0.0-0.6","yoevce1vmq","","yoevce1vmq","""2024-11-12T18:18:09.911Z""","null","+","null","","","","","","",""
"","","","","","image-keyboard-response","247","367426","0.0-17.0-0.0-1.6","yoevce1vmq","","yoevce1vmq","""2024-11-12T18:18:09.911Z""","340","materials/imgs/D4.png","arrowright","","[""materials/imgs/D95.png"",""materials/imgs/D66.png""]","true","random","","",""
"","","","","","html-keyboard-response","248","371066","0.0-17.0-0.0-2.6-0.6","yoevce1vmq","","yoevce1vmq","""2024-11-12T18:18:09.911Z""","3639","<p><strong>You're going too fast.</strong><p>Please slow down and assess each triplet.<p>Press 'y' to continue.</p></p>","y","","","","","","",""
"","","","","","html-keyboard-response","249","371567","0.0-17.0-1.0-0.0","yoevce1vmq","","yoevce1vmq","""2024-11-12T18:18:09.911Z""","null","+","null","","","","","","",""
"","","","","","image-keyboard-response","250","372401","0.0-17.0-1.0-1.0","yoevce1vmq","","yoevce1vmq","""2024-11-12T18:18:09.911Z""","833","materials/imgs/D26.png","arrowleft","","[""materials/imgs/D26.png"",""materials/imgs/D46.png""]","","check","materials/imgs/D26.png","0","true"
"","","","","","html-keyboard-response","251","372903","0.0-17.0-2.0-0.0","yoevce1vmq","","yoevce1vmq","""2024-11-12T18:18:09.911Z""","null","+","null","","","","","","",""
"","","","","","image-keyboard-response","252","374682","0.0-17.0-2.0-1.0","yoevce1vmq","","yoevce1vmq","""2024-11-12T18:18:09.911Z""","1778","materials/imgs/D68.png","arrowleft","","[""materials/imgs/D96.png"",""materials/imgs/D48.png""]","false","validation","","",""
"","","","","","html-keyboard-response","253","375183","0.0-17.0-2.0-0.1","yoevce1vmq","","yoevce1vmq","""2024-11-12T18:18:09.911Z""","null","+","null","","","","","","",""
"","","","","","image-keyboard-response","254","378170","0.0-17.0-2.0-1.1","yoevce1vmq","","yoevce1vmq","""2024-11-12T18:18:09.911Z""","2986","materials/imgs/D35.png","arrowleft","","[""materials/imgs/D83.png"",""materials/imgs/D24.png""]","false","validation","","",""
"","","","","","html-keyboard-response","255","378672","0.0-17.0-0.1-0.7","yoevce1vmq","","yoevce1vmq","""2024-11-12T18:18:09.911Z""","null","+","null","","","","","","",""
"","","","","","image-keyboard-response","256","379463","0.0-17.0-0.1-1.7","yoevce1vmq","","yoevce1vmq","""2024-11-12T18:18:09.911Z""","789","materials/imgs/D8.png","arrowright","","[""materials/imgs/D24.png"",""materials/imgs/D95.png""]","false","random","","",""
"","","","","","html-keyboard-response","257","379964","0.0-17.0-0.1-0.8","yoevce1vmq","","yoevce1vmq","""2024-11-12T18:18:09.911Z""","null","+","null","","","","","","",""
"","","","","","image-keyboard-response","258","382069","0.0-17.0-0.1-1.8","yoevce1vmq","","yoevce1vmq","""2024-11-12T18:18:09.911Z""","2103","materials/imgs/D17.png","arrowleft","","[""materials/imgs/D104.png"",""materials/imgs/D84.png""]","false","random","","",""
"","","","","","html-keyboard-response","259","382570","0.0-17.0-0.1-0.9","yoevce1vmq","","yoevce1vmq","""2024-11-12T18:18:09.911Z""","null","+","null","","","","","","",""
"","","","","","image-keyboard-response","260","383600","0.0-17.0-0.1-1.9","yoevce1vmq","","yoevce1vmq","""2024-11-12T18:18:09.911Z""","1029","materials/imgs/D8.png","arrowright","","[""materials/imgs/D17.png"",""materials/imgs/D1.png""]","false","random","","",""
"","","","","","html-keyboard-response","261","384101","0.0-17.0-0.1-0.10","yoevce1vmq","","yoevce1vmq","""2024-11-12T18:18:09.911Z""","null","+","null","","","","","","",""
"","","","","","image-keyboard-response","262","384915","0.0-17.0-0.1-1.10","yoevce1vmq","","yoevce1vmq","""2024-11-12T18:18:09.911Z""","813","materials/imgs/D104.png","arrowright","","[""materials/imgs/D46.png"",""materials/imgs/D3.png""]","false","random","","",""
"","","","","","html-keyboard-response","263","385417","0.0-17.0-0.1-0.11","yoevce1vmq","","yoevce1vmq","""2024-11-12T18:18:09.911Z""","null","+","null","","","","","","",""
"","","","","","image-keyboard-response","264","387517","0.0-17.0-0.1-1.11","yoevce1vmq","","yoevce1vmq","""2024-11-12T18:18:09.911Z""","2099","materials/imgs/D8.png","arrowright","","[""materials/imgs/D51.png"",""materials/imgs/D56.png""]","false","random","","",""
"","","","","","html-keyboard-response","265","388018","0.0-17.0-0.1-0.12","yoevce1vmq","","yoevce1vmq","""2024-11-12T18:18:09.911Z""","null","+","null","","","","","","",""
"","","","","","image-keyboard-response","266","388980","0.0-17.0-0.1-1.12","yoevce1vmq","","yoevce1vmq","""2024-11-12T18:18:09.911Z""","960","materials/imgs/D56.png","arrowleft","","[""materials/imgs/D8.png"",""materials/imgs/D87.png""]","false","random","","",""
"","","","","","html-keyboard-response","267","389481","0.0-17.0-0.1-0.13","yoevce1vmq","","yoevce1vmq","""2024-11-12T18:18:09.911Z""","null","+","null","","","","","","",""
"","","","","","image-keyboard-response","268","391434","0.0-17.0-0.1-1.13","yoevce1vmq","","yoevce1vmq","""2024-11-12T18:18:09.911Z""","1952","materials/imgs/D85.png","arrowright","","[""materials/imgs/D75.png"",""materials/imgs/D94.png""]","false","random","","",""
"","","","","","html-keyboard-response","269","391935","0.0-17.0-1.1-0.1","yoevce1vmq","","yoevce1vmq","""2024-11-12T18:18:09.911Z""","null","+","null","","","","","","",""
"","","","","","image-keyboard-response","270","392644","0.0-17.0-1.1-1.1","yoevce1vmq","","yoevce1vmq","""2024-11-12T18:18:09.911Z""","707","materials/imgs/D76.png","arrowleft","","[""materials/imgs/D76.png"",""materials/imgs/D78.png""]","","check","materials/imgs/D76.png","0","true"
"","","","","","html-keyboard-response","271","393146","0.0-17.0-2.1-0.2","yoevce1vmq","","yoevce1vmq","""2024-11-12T18:18:09.911Z""","null","+","null","","","","","","",""
"","","","","","image-keyboard-response","272","396408","0.0-17.0-2.1-1.2","yoevce1vmq","","yoevce1vmq","""2024-11-12T18:18:09.911Z""","3261","materials/imgs/D56.png","arrowright","","[""materials/imgs/D25.png"",""materials/imgs/D105.png""]","false","validation","","",""
"","","","","","html-keyboard-response","273","396909","0.0-17.0-2.1-0.3","yoevce1vmq","","yoevce1vmq","""2024-11-12T18:18:09.911Z""","null","+","null","","","","","","",""
"","","","","","image-keyboard-response","274","400276","0.0-17.0-2.1-1.3","yoevce1vmq","","yoevce1vmq","""2024-11-12T18:18:09.911Z""","3366","materials/imgs/D24.png","arrowleft","","[""materials/imgs/D36.png"",""materials/imgs/D8.png""]","false","validation","","",""
"","","","","","html-keyboard-response","275","400777","0.0-17.0-0.2-0.14","yoevce1vmq","","yoevce1vmq","""2024-11-12T18:18:09.911Z""","null","+","null","","","","","","",""
"","","","","","image-keyboard-response","276","401583","0.0-17.0-0.2-1.14","yoevce1vmq","","yoevce1vmq","""2024-11-12T18:18:09.911Z""","804","materials/imgs/D35.png","arrowright","","[""materials/imgs/D74.png"",""materials/imgs/D55.png""]","false","random","","",""
"","","","","","html-keyboard-response","277","402084","0.0-17.0-0.2-0.15","yoevce1vmq","","yoevce1vmq","""2024-11-12T18:18:09.911Z""","null","+","null","","","","","","",""
"","","","","","image-keyboard-response","278","404167","0.0-17.0-0.2-1.15","yoevce1vmq","","yoevce1vmq","""2024-11-12T18:18:09.911Z""","2081","materials/imgs/D95.png","arrowleft","","[""materials/imgs/D8.png"",""materials/imgs/D51.png""]","false","random","","",""
"","","","","","html-keyboard-response","279","404668","0.0-17.0-0.2-0.16","yoevce1vmq","","yoevce1vmq","""2024-11-12T18:18:09.911Z""","null","+","null","","","","","","",""
"","","","","","image-keyboard-response","280","406724","0.0-17.0-0.2-1.16","yoevce1vmq","","yoevce1vmq","""2024-11-12T18:18:09.911Z""","2055","materials/imgs/D56.png","arrowleft","","[""materials/imgs/D83.png"",""materials/imgs/D32.png""]","false","random","","",""
"","","","","","html-keyboard-response","281","407225","0.0-17.0-0.2-0.17","yoevce1vmq","","yoevce1vmq","""2024-11-12T18:18:09.911Z""","null","+","null","","","","","","",""
"","","","","","image-keyboard-response","282","408060","0.0-17.0-0.2-1.17","yoevce1vmq","","yoevce1vmq","""2024-11-12T18:18:09.911Z""","833","materials/imgs/D64.png","arrowleft","","[""materials/imgs/D20.png"",""materials/imgs/D92.png""]","false","random","","",""
"","","","","","html-keyboard-response","283","408562","0.0-17.0-0.2-0.18","yoevce1vmq","","yoevce1vmq","""2024-11-12T18:18:09.911Z""","null","+","null","","","","","","",""
"","","","","","image-keyboard-response","284","409768","0.0-17.0-0.2-1.18","yoevce1vmq","","yoevce1vmq","""2024-11-12T18:18:09.911Z""","1204","materials/imgs/D79.png","arrowleft","","[""materials/imgs/D87.png"",""materials/imgs/D96.png""]","false","random","","",""
"","","","","","html-keyboard-response","285","410269","0.0-17.0-0.2-0.19","yoevce1vmq","","yoevce1vmq","""2024-11-12T18:18:09.911Z""","null","+","null","","","","","","",""
"","","","","","image-keyboard-response","286","411134","0.0-17.0-0.2-1.19","yoevce1vmq","","yoevce1vmq","""2024-11-12T18:18:09.911Z""","864","materials/imgs/D65.png","arrowleft","","[""materials/imgs/D76.png"",""materials/imgs/D101.png""]","false","random","","",""
"","","","","","html-keyboard-response","287","411635","0.0-17.0-0.2-0.20","yoevce1vmq","","yoevce1vmq","""2024-11-12T18:18:09.911Z""","null","+","null","","","","","","",""
"","","","","","image-keyboard-response","288","412763","0.0-17.0-0.2-1.20","yoevce1vmq","","yoevce1vmq","""2024-11-12T18:18:09.911Z""","1122","materials/imgs/D6.png","arrowleft","","[""materials/imgs/D80.png"",""materials/imgs/D66.png""]","false","random","","",""
"","","","","","html-keyboard-response","289","413264","0.0-17.0-1.2-0.2","yoevce1vmq","","yoevce1vmq","""2024-11-12T18:18:09.911Z""","null","+","null","","","","","","",""
"","","","","","image-keyboard-response","290","414068","0.0-17.0-1.2-1.2","yoevce1vmq","","yoevce1vmq","""2024-11-12T18:18:09.911Z""","804","materials/imgs/D26.png","arrowleft","","[""materials/imgs/D26.png"",""materials/imgs/D46.png""]","","check","materials/imgs/D26.png","0","true"
"","","","","","html-keyboard-response","291","414570","0.0-17.0-2.2-0.4","yoevce1vmq","","yoevce1vmq","""2024-11-12T18:18:09.911Z""","null","+","null","","","","","","",""
"","","","","","image-keyboard-response","292","416631","0.0-17.0-2.2-1.4","yoevce1vmq","","yoevce1vmq","""2024-11-12T18:18:09.911Z""","2060","materials/imgs/D82.png","arrowleft","","[""materials/imgs/D83.png"",""materials/imgs/D22.png""]","false","validation","","",""
"","","","","","html-keyboard-response","293","417132","0.0-17.0-2.2-0.5","yoevce1vmq","","yoevce1vmq","""2024-11-12T18:18:09.911Z""","null","+","null","","","","","","",""
"","","","","","image-keyboard-response","294","420986","0.0-17.0-2.2-1.5","yoevce1vmq","","yoevce1vmq","""2024-11-12T18:18:09.911Z""","3853","materials/imgs/D49.png","arrowright","","[""materials/imgs/D8.png"",""materials/imgs/D101.png""]","false","validation","","",""
"","","","","","html-keyboard-response","295","421487","0.0-17.0-0.3-0.21","yoevce1vmq","","yoevce1vmq","""2024-11-12T18:18:09.911Z""","null","+","null","","","","","","",""
"","","","","","image-keyboard-response","296","422364","0.0-17.0-0.3-1.21","yoevce1vmq","","yoevce1vmq","""2024-11-12T18:18:09.911Z""","874","materials/imgs/D81.png","arrowleft","","[""materials/imgs/D80.png"",""materials/imgs/D25.png""]","false","random","","",""
"","","","","","html-keyboard-response","297","422865","0.0-17.0-0.3-0.22","yoevce1vmq","","yoevce1vmq","""2024-11-12T18:18:09.911Z""","null","+","null","","","","","","",""
"","","","","","image-keyboard-response","298","425374","0.0-17.0-0.3-1.22","yoevce1vmq","","yoevce1vmq","""2024-11-12T18:18:09.911Z""","2508","materials/imgs/D1.png","arrowleft","","[""materials/imgs/D66.png"",""materials/imgs/D102.png""]","false","random","","",""
"","","","","","html-keyboard-response","299","425876","0.0-17.0-0.3-0.23","yoevce1vmq","","yoevce1vmq","""2024-11-12T18:18:09.911Z""","null","+","null","","","","","","",""
"","","","","","image-keyboard-response","300","427939","0.0-17.0-0.3-1.23","yoevce1vmq","","yoevce1vmq","""2024-11-12T18:18:09.911Z""","2062","materials/imgs/D92.png","arrowleft","","[""materials/imgs/D68.png"",""materials/imgs/D34.png""]","false","random","","",""
"","","","","","html-keyboard-response","301","428441","0.0-17.0-0.3-0.24","yoevce1vmq","","yoevce1vmq","""2024-11-12T18:18:09.911Z""","null","+","null","","","","","","",""
"","","","","","image-keyboard-response","302","430110","0.0-17.0-0.3-1.24","yoevce1vmq","","yoevce1vmq","""2024-11-12T18:18:09.911Z""","1667","materials/imgs/D84.png","arrowright","","[""materials/imgs/D75.png"",""materials/imgs/D36.png""]","false","random","","",""
"","","","","","html-keyboard-response","303","430611","0.0-17.0-0.3-0.25","yoevce1vmq","","yoevce1vmq","""2024-11-12T18:18:09.911Z""","null","+","null","","","","","","",""
"","","","","","image-keyboard-response","304","439447","0.0-17.0-0.3-1.25","yoevce1vmq","","yoevce1vmq","""2024-11-12T18:18:09.911Z""","8834","materials/imgs/D20.png","arrowright","","[""materials/imgs/D87.png"",""materials/imgs/D101.png""]","false","random","","",""
"","","","","","html-keyboard-response","305","439948","0.0-17.0-0.3-0.26","yoevce1vmq","","yoevce1vmq","""2024-11-12T18:18:09.911Z""","null","+","null","","","","","","",""
"","","","","","image-keyboard-response","306","442259","0.0-17.0-0.3-1.26","yoevce1vmq","","yoevce1vmq","""2024-11-12T18:18:09.911Z""","2309","materials/imgs/D78.png","arrowleft","","[""materials/imgs/D22.png"",""materials/imgs/D25.png""]","false","random","","",""
"","","","","","html-keyboard-response","307","442760","0.0-17.0-0.3-0.27","yoevce1vmq","","yoevce1vmq","""2024-11-12T18:18:09.911Z""","null","+","null","","","","","","",""
"","","","","","image-keyboard-response","308","445175","0.0-17.0-0.3-1.27","yoevce1vmq","","yoevce1vmq","""2024-11-12T18:18:09.911Z""","2413","materials/imgs/D95.png","arrowleft","","[""materials/imgs/D51.png"",""materials/imgs/D9.png""]","false","random","","",""
"","","","","","html-keyboard-response","309","445676","0.0-17.0-1.3-0.3","yoevce1vmq","","yoevce1vmq","""2024-11-12T18:18:09.911Z""","null","+","null","","","","","","",""
"","","","","","image-keyboard-response","310","446370","0.0-17.0-1.3-1.3","yoevce1vmq","","yoevce1vmq","""2024-11-12T18:18:09.911Z""","693","materials/imgs/D76.png","arrowleft","","[""materials/imgs/D76.png"",""materials/imgs/D78.png""]","","check","materials/imgs/D76.png","0","true"
"","","","","","html-keyboard-response","311","446872","0.0-17.0-2.3-0.6","yoevce1vmq","","yoevce1vmq","""2024-11-12T18:18:09.911Z""","null","+","null","","","","","","",""
"","","","","","image-keyboard-response","312","447943","0.0-17.0-2.3-1.6","yoevce1vmq","","yoevce1vmq","""2024-11-12T18:18:09.911Z""","1069","materials/imgs/D53.png","arrowleft","","[""materials/imgs/D77.png"",""materials/imgs/D75.png""]","false","validation","","",""
"","","","","","html-keyboard-response","313","448444","0.0-17.0-2.3-0.7","yoevce1vmq","","yoevce1vmq","""2024-11-12T18:18:09.911Z""","null","+","null","","","","","","",""
"","","","","","image-keyboard-response","314","449179","0.0-17.0-2.3-1.7","yoevce1vmq","","yoevce1vmq","""2024-11-12T18:18:09.911Z""","734","materials/imgs/D57.png","arrowright","","[""materials/imgs/D111.png"",""materials/imgs/D4.png""]","false","validation","","",""
"","","","","","html-keyboard-response","315","449680","0.0-17.0-0.4-0.28","yoevce1vmq","","yoevce1vmq","""2024-11-12T18:18:09.911Z""","null","+","null","","","","","","",""
"","","","","","image-keyboard-response","316","450415","0.0-17.0-0.4-1.28","yoevce1vmq","","yoevce1vmq","""2024-11-12T18:18:09.911Z""","733","materials/imgs/D17.png","arrowright","","[""materials/imgs/D20.png"",""materials/imgs/D104.png""]","false","random","","",""
"","","","","","html-keyboard-response","317","450916","0.0-17.0-0.4-0.29","yoevce1vmq","","yoevce1vmq","""2024-11-12T18:18:09.911Z""","null","+","null","","","","","","",""
"","","","","","image-keyboard-response","318","456267","0.0-17.0-0.4-1.29","yoevce1vmq","","yoevce1vmq","""2024-11-12T18:18:09.911Z""","5349","materials/imgs/D85.png","arrowleft","","[""materials/imgs/D37.png"",""materials/imgs/D35.png""]","false","random","","",""
"","","","","","html-keyboard-response","319","456768","0.0-17.0-0.4-0.30","yoevce1vmq","","yoevce1vmq","""2024-11-12T18:18:09.911Z""","null","+","null","","","","","","",""
"","","","","","image-keyboard-response","320","458707","0.0-17.0-0.4-1.30","yoevce1vmq","","yoevce1vmq","""2024-11-12T18:18:09.911Z""","1937","materials/imgs/D96.png","arrowright","","[""materials/imgs/D66.png"",""materials/imgs/D57.png""]","false","random","","",""
"","","","","","html-keyboard-response","321","459208","0.0-17.0-0.4-0.31","yoevce1vmq","","yoevce1vmq","""2024-11-12T18:18:09.911Z""","null","+","null","","","","","","",""
"","","","","","image-keyboard-response","322","465443","0.0-17.0-0.4-1.31","yoevce1vmq","","yoevce1vmq","""2024-11-12T18:18:09.911Z""","6234","materials/imgs/D47.png","arrowright","","[""materials/imgs/D32.png"",""materials/imgs/D102.png""]","false","random","","",""
"","","","","","html-keyboard-response","323","465944","0.0-17.0-0.4-0.32","yoevce1vmq","","yoevce1vmq","""2024-11-12T18:18:09.911Z""","null","+","null","","","","","","",""
"","","","","","image-keyboard-response","324","468968","0.0-17.0-0.4-1.32","yoevce1vmq","","yoevce1vmq","""2024-11-12T18:18:09.911Z""","3022","materials/imgs/D101.png","arrowright","","[""materials/imgs/D105.png"",""materials/imgs/D57.png""]","false","random","","",""
"","","","","","html-keyboard-response","325","469470","0.0-17.0-0.4-0.33","yoevce1vmq","","yoevce1vmq","""2024-11-12T18:18:09.911Z""","null","+","null","","","","","","",""
"","","","","","image-keyboard-response","326","470938","0.0-17.0-0.4-1.33","yoevce1vmq","","yoevce1vmq","""2024-11-12T18:18:09.911Z""","1466","materials/imgs/D49.png","arrowleft","","[""materials/imgs/D79.png"",""materials/imgs/D56.png""]","false","random","","",""
"","","","","","html-keyboard-response","327","471439","0.0-17.0-0.4-0.34","yoevce1vmq","","yoevce1vmq","""2024-11-12T18:18:09.911Z""","null","+","null","","","","","","",""
"","","","","","image-keyboard-response","328","473524","0.0-17.0-0.4-1.34","yoevce1vmq","","yoevce1vmq","""2024-11-12T18:18:09.911Z""","2083","materials/imgs/D36.png","arrowleft","","[""materials/imgs/D14.png"",""materials/imgs/D80.png""]","false","random","","",""
"","","","","","html-keyboard-response","329","474025","0.0-17.0-1.4-0.4","yoevce1vmq","","yoevce1vmq","""2024-11-12T18:18:09.911Z""","null","+","null","","","","","","",""
"","","","","","image-keyboard-response","330","474820","0.0-17.0-1.4-1.4","yoevce1vmq","","yoevce1vmq","""2024-11-12T18:18:09.911Z""","793","materials/imgs/D26.png","arrowleft","","[""materials/imgs/D26.png"",""materials/imgs/D46.png""]","","check","materials/imgs/D26.png","0","true"
"","","","","","html-keyboard-response","331","475321","0.0-17.0-2.4-0.8","yoevce1vmq","","yoevce1vmq","""2024-11-12T18:18:09.911Z""","null","+","null","","","","","","",""
"","","","","","image-keyboard-response","332","478369","0.0-17.0-2.4-1.8","yoevce1vmq","","yoevce1vmq","""2024-11-12T18:18:09.911Z""","3046","materials/imgs/D77.png","arrowright","","[""materials/imgs/D102.png"",""materials/imgs/D65.png""]","false","validation","","",""
"","","","","","html-keyboard-response","333","478869","0.0-17.0-2.4-0.9","yoevce1vmq","","yoevce1vmq","""2024-11-12T18:18:09.911Z""","null","+","null","","","","","","",""
"","","","","","image-keyboard-response","334","480915","0.0-17.0-2.4-1.9","yoevce1vmq","","yoevce1vmq","""2024-11-12T18:18:09.911Z""","2044","materials/imgs/D65.png","arrowright","","[""materials/imgs/D4.png"",""materials/imgs/D16.png""]","false","validation","","",""
"","","","","","html-button-response","335","483206","0.0-18.0","yoevce1vmq","","yoevce1vmq","""2024-11-12T18:18:09.911Z""","2290","You have completed 75% of the trials. Please click 'Continue' when you are ready proceed.","0","","","","","","",""
"","","","","","html-keyboard-response","336","483706","0.0-19.0-0.0-0.0","yoevce1vmq","","yoevce1vmq","""2024-11-12T18:18:09.911Z""","null","+","null","","","","","","",""
"","","","","","image-keyboard-response","337","486939","0.0-19.0-0.0-1.0","yoevce1vmq","","yoevce1vmq","""2024-11-12T18:18:09.911Z""","3231","materials/imgs/D102.png","arrowleft","","[""materials/imgs/D84.png"",""materials/imgs/D55.png""]","false","random","","",""
"","","","","","html-keyboard-response","338","487441","0.0-19.0-0.0-0.1","yoevce1vmq","","yoevce1vmq","""2024-11-12T18:18:09.911Z""","null","+","null","","","","","","",""
"","","","","","image-keyboard-response","339","488569","0.0-19.0-0.0-1.1","yoevce1vmq","","yoevce1vmq","""2024-11-12T18:18:09.911Z""","1127","materials/imgs/D78.png","arrowright","","[""materials/imgs/D94.png"",""materials/imgs/D111.png""]","false","random","","",""
"","","","","","html-keyboard-response","340","489070","0.0-19.0-0.0-0.2","yoevce1vmq","","yoevce1vmq","""2024-11-12T18:18:09.911Z""","null","+","null","","","","","","",""
"","","","","","image-keyboard-response","341","490288","0.0-19.0-0.0-1.2","yoevce1vmq","","yoevce1vmq","""2024-11-12T18:18:09.911Z""","1216","materials/imgs/D35.png","arrowleft","","[""materials/imgs/D18.png"",""materials/imgs/D94.png""]","false","random","","",""
"","","","","","html-keyboard-response","342","490789","0.0-19.0-0.0-0.3","yoevce1vmq","","yoevce1vmq","""2024-11-12T18:18:09.911Z""","null","+","null","","","","","","",""
"","","","","","image-keyboard-response","343","492183","0.0-19.0-0.0-1.3","yoevce1vmq","","yoevce1vmq","""2024-11-12T18:18:09.911Z""","1392","materials/imgs/D66.png","arrowleft","","[""materials/imgs/D101.png"",""materials/imgs/D6.png""]","false","random","","",""
"","","","","","html-keyboard-response","344","492684","0.0-19.0-0.0-0.4","yoevce1vmq","","yoevce1vmq","""2024-11-12T18:18:09.911Z""","null","+","null","","","","","","",""
"","","","","","image-keyboard-response","345","497867","0.0-19.0-0.0-1.4","yoevce1vmq","","yoevce1vmq","""2024-11-12T18:18:09.911Z""","5181","materials/imgs/D14.png","arrowright","","[""materials/imgs/D84.png"",""materials/imgs/D34.png""]","false","random","","",""
"","","","","","html-keyboard-response","346","498369","0.0-19.0-0.0-0.5","yoevce1vmq","","yoevce1vmq","""2024-11-12T18:18:09.911Z""","null","+","null","","","","","","",""
"","","","","","image-keyboard-response","347","504135","0.0-19.0-0.0-1.5","yoevce1vmq","","yoevce1vmq","""2024-11-12T18:18:09.911Z""","5765","materials/imgs/D104.png","arrowleft","","[""materials/imgs/D65.png"",""materials/imgs/D57.png""]","false","random","","",""
"","","","","","html-keyboard-response","348","504636","0.0-19.0-0.0-0.6","yoevce1vmq","","yoevce1vmq","""2024-11-12T18:18:09.911Z""","null","+","null","","","","","","",""
"","","","","","image-keyboard-response","349","506182","0.0-19.0-0.0-1.6","yoevce1vmq","","yoevce1vmq","""2024-11-12T18:18:09.911Z""","1544","materials/imgs/D22.png","arrowleft","","[""materials/imgs/D49.png"",""materials/imgs/D95.png""]","false","random","","",""
"","","","","","html-keyboard-response","350","506683","0.0-19.0-1.0-0.0","yoevce1vmq","","yoevce1vmq","""2024-11-12T18:18:09.911Z""","null","+","null","","","","","","",""
"","","","","","image-keyboard-response","351","507274","0.0-19.0-1.0-1.0","yoevce1vmq","","yoevce1vmq","""2024-11-12T18:18:09.911Z""","590","materials/imgs/D53.png","arrowright","","[""materials/imgs/D64.png"",""materials/imgs/D53.png""]","","check","materials/imgs/D53.png","1","true"
"","","","","","html-keyboard-response","352","507775","0.0-19.0-2.0-0.0","yoevce1vmq","","yoevce1vmq","""2024-11-12T18:18:09.911Z""","null","+","null","","","","","","",""
"","","","","","image-keyboard-response","353","508743","0.0-19.0-2.0-1.0","yoevce1vmq","","yoevce1vmq","""2024-11-12T18:18:09.911Z""","967","materials/imgs/D19.png","arrowleft","","[""materials/imgs/D111.png"",""materials/imgs/D56.png""]","false","validation","","",""
"","","","","","html-keyboard-response","354","509244","0.0-19.0-2.0-0.1","yoevce1vmq","","yoevce1vmq","""2024-11-12T18:18:09.911Z""","null","+","null","","","","","","",""
"","","","","","image-keyboard-response","355","511761","0.0-19.0-2.0-1.1","yoevce1vmq","","yoevce1vmq","""2024-11-12T18:18:09.911Z""","2515","materials/imgs/D51.png","arrowright","","[""materials/imgs/D92.png"",""materials/imgs/D20.png""]","false","validation","","",""
"","","","","","html-keyboard-response","356","512262","0.0-19.0-0.1-0.7","yoevce1vmq","","yoevce1vmq","""2024-11-12T18:18:09.911Z""","null","+","null","","","","","","",""
"","","","","","image-keyboard-response","357","513342","0.0-19.0-0.1-1.7","yoevce1vmq","","yoevce1vmq","""2024-11-12T18:18:09.911Z""","1078","materials/imgs/D1.png","arrowleft","","[""materials/imgs/D65.png"",""materials/imgs/D48.png""]","false","random","","",""
"","","","","","html-keyboard-response","358","513844","0.0-19.0-0.1-0.8","yoevce1vmq","","yoevce1vmq","""2024-11-12T18:18:09.911Z""","null","+","null","","","","","","",""
"","","","","","image-keyboard-response","359","514639","0.0-19.0-0.1-1.8","yoevce1vmq","","yoevce1vmq","""2024-11-12T18:18:09.911Z""","794","materials/imgs/D4.png","arrowright","","[""materials/imgs/D111.png"",""materials/imgs/D3.png""]","false","random","","",""
"","","","","","html-keyboard-response","360","515140","0.0-19.0-0.1-0.9","yoevce1vmq","","yoevce1vmq","""2024-11-12T18:18:09.911Z""","null","+","null","","","","","","",""
"","","","","","image-keyboard-response","361","516606","0.0-19.0-0.1-1.9","yoevce1vmq","","yoevce1vmq","""2024-11-12T18:18:09.911Z""","1465","materials/imgs/D111.png","arrowleft","","[""materials/imgs/D29.png"",""materials/imgs/D35.png""]","false","random","","",""
"","","","","","html-keyboard-response","362","517108","0.0-19.0-0.1-0.10","yoevce1vmq","","yoevce1vmq","""2024-11-12T18:18:09.911Z""","null","+","null","","","","","","",""
"","","","","","image-keyboard-response","363","520189","0.0-19.0-0.1-1.10","yoevce1vmq","","yoevce1vmq","""2024-11-12T18:18:09.911Z""","3079","materials/imgs/D94.png","arrowleft","","[""materials/imgs/D103.png"",""materials/imgs/D21.png""]","false","random","","",""
"","","","","","html-keyboard-response","364","520690","0.0-19.0-0.1-0.11","yoevce1vmq","","yoevce1vmq","""2024-11-12T18:18:09.911Z""","null","+","null","","","","","","",""
"","","","","","image-keyboard-response","365","521992","0.0-19.0-0.1-1.11","yoevce1vmq","","yoevce1vmq","""2024-11-12T18:18:09.911Z""","1300","materials/imgs/D101.png","arrowleft","","[""materials/imgs/D20.png"",""materials/imgs/D77.png""]","false","random","","",""
"","","","","","html-keyboard-response","366","522493","0.0-19.0-0.1-0.12","yoevce1vmq","","yoevce1vmq","""2024-11-12T18:18:09.911Z""","null","+","null","","","","","","",""
"","","","","","image-keyboard-response","367","525117","0.0-19.0-0.1-1.12","yoevce1vmq","","yoevce1vmq","""2024-11-12T18:18:09.911Z""","2622","materials/imgs/D56.png","arrowleft","","[""materials/imgs/D17.png"",""materials/imgs/D79.png""]","false","random","","",""
"","","","","","html-keyboard-response","368","525617","0.0-19.0-0.1-0.13","yoevce1vmq","","yoevce1vmq","""2024-11-12T18:18:09.911Z""","null","+","null","","","","","","",""
"","","","","","image-keyboard-response","369","526791","0.0-19.0-0.1-1.13","yoevce1vmq","","yoevce1vmq","""2024-11-12T18:18:09.911Z""","1172","materials/imgs/D82.png","arrowleft","","[""materials/imgs/D81.png"",""materials/imgs/D102.png""]","false","random","","",""
"","","","","","html-keyboard-response","370","527292","0.0-19.0-1.1-0.1","yoevce1vmq","","yoevce1vmq","""2024-11-12T18:18:09.911Z""","null","+","null","","","","","","",""
"","","","","","image-keyboard-response","371","527886","0.0-19.0-1.1-1.1","yoevce1vmq","","yoevce1vmq","""2024-11-12T18:18:09.911Z""","593","materials/imgs/D18.png","arrowright","","[""materials/imgs/D8.png"",""materials/imgs/D18.png""]","","check","materials/imgs/D18.png","1","true"
"","","","","","html-keyboard-response","372","528388","0.0-19.0-2.1-0.2","yoevce1vmq","","yoevce1vmq","""2024-11-12T18:18:09.911Z""","null","+","null","","","","","","",""
"","","","","","image-keyboard-response","373","531085","0.0-19.0-2.1-1.2","yoevce1vmq","","yoevce1vmq","""2024-11-12T18:18:09.911Z""","2696","materials/imgs/D52.png","arrowleft","","[""materials/imgs/D9.png"",""materials/imgs/D19.png""]","false","validation","","",""
"","","","","","html-keyboard-response","374","531586","0.0-19.0-2.1-0.3","yoevce1vmq","","yoevce1vmq","""2024-11-12T18:18:09.911Z""","null","+","null","","","","","","",""
"","","","","","image-keyboard-response","375","533577","0.0-19.0-2.1-1.3","yoevce1vmq","","yoevce1vmq","""2024-11-12T18:18:09.911Z""","1989","materials/imgs/D46.png","arrowright","","[""materials/imgs/D92.png"",""materials/imgs/D77.png""]","false","validation","","",""
"","","","","","html-keyboard-response","376","534078","0.0-19.0-0.2-0.14","yoevce1vmq","","yoevce1vmq","""2024-11-12T18:18:09.911Z""","null","+","null","","","","","","",""
"","","","","","image-keyboard-response","377","538229","0.0-19.0-0.2-1.14","yoevce1vmq","","yoevce1vmq","""2024-11-12T18:18:09.911Z""","4149","materials/imgs/D83.png","arrowright","","[""materials/imgs/D87.png"",""materials/imgs/D18.png""]","false","random","","",""
"","","","","","html-keyboard-response","378","538731","0.0-19.0-0.2-0.15","yoevce1vmq","","yoevce1vmq","""2024-11-12T18:18:09.911Z""","null","+","null","","","","","","",""
"","","","","","image-keyboard-response","379","539462","0.0-19.0-0.2-1.15","yoevce1vmq","","yoevce1vmq","""2024-11-12T18:18:09.911Z""","730","materials/imgs/D77.png","arrowright","","[""materials/imgs/D64.png"",""materials/imgs/D78.png""]","false","random","","",""
"","","","","","html-keyboard-response","380","539963","0.0-19.0-0.2-0.16","yoevce1vmq","","yoevce1vmq","""2024-11-12T18:18:09.911Z""","null","+","null","","","","","","",""
"","","","","","image-keyboard-response","381","541286","0.0-19.0-0.2-1.16","yoevce1vmq","","yoevce1vmq","""2024-11-12T18:18:09.911Z""","1321","materials/imgs/D20.png","arrowright","","[""materials/imgs/D57.png"",""materials/imgs/D17.png""]","false","random","","",""
"","","","","","html-keyboard-response","382","541787","0.0-19.0-0.2-0.17","yoevce1vmq","","yoevce1vmq","""2024-11-12T18:18:09.911Z""","null","+","null","","","","","","",""
"","","","","","image-keyboard-response","383","543773","0.0-19.0-0.2-1.17","yoevce1vmq","","yoevce1vmq","""2024-11-12T18:18:09.911Z""","1984","materials/imgs/D53.png","arrowright","","[""materials/imgs/D87.png"",""materials/imgs/D32.png""]","false","random","","",""
"","","","","","html-keyboard-response","384","544274","0.0-19.0-0.2-0.18","yoevce1vmq","","yoevce1vmq","""2024-11-12T18:18:09.911Z""","null","+","null","","","","","","",""
"","","","","","image-keyboard-response","385","546072","0.0-19.0-0.2-1.18","yoevce1vmq","","yoevce1vmq","""2024-11-12T18:18:09.911Z""","1797","materials/imgs/D36.png","arrowright","","[""materials/imgs/D37.png"",""materials/imgs/D82.png""]","false","random","","",""
"","","","","","html-keyboard-response","386","546573","0.0-19.0-0.2-0.19","yoevce1vmq","","yoevce1vmq","""2024-11-12T18:18:09.911Z""","null","+","null","","","","","","",""
"","","","","","image-keyboard-response","387","548585","0.0-19.0-0.2-1.19","yoevce1vmq","","yoevce1vmq","""2024-11-12T18:18:09.911Z""","2011","materials/imgs/D105.png","arrowleft","","[""materials/imgs/D16.png"",""materials/imgs/D24.png""]","false","random","","",""
"","","","","","html-keyboard-response","388","549086","0.0-19.0-0.2-0.20","yoevce1vmq","","yoevce1vmq","""2024-11-12T18:18:09.911Z""","null","+","null","","","","","","",""
"","","","","","image-keyboard-response","389","550466","0.0-19.0-0.2-1.20","yoevce1vmq","","yoevce1vmq","""2024-11-12T18:18:09.911Z""","1377","materials/imgs/D4.png","arrowleft","","[""materials/imgs/D14.png"",""materials/imgs/D16.png""]","false","random","","",""
"","","","","","html-keyboard-response","390","550967","0.0-19.0-1.2-0.2","yoevce1vmq","","yoevce1vmq","""2024-11-12T18:18:09.911Z""","null","+","null","","","","","","",""
"","","","","","image-keyboard-response","391","551582","0.0-19.0-1.2-1.2","yoevce1vmq","","yoevce1vmq","""2024-11-12T18:18:09.911Z""","613","materials/imgs/D53.png","arrowright","","[""materials/imgs/D64.png"",""materials/imgs/D53.png""]","","check","materials/imgs/D53.png","1","true"
"","","","","","html-keyboard-response","392","552082","0.0-19.0-2.2-0.4","yoevce1vmq","","yoevce1vmq","""2024-11-12T18:18:09.911Z""","null","+","null","","","","","","",""
"","","","","","image-keyboard-response","393","552855","0.0-19.0-2.2-1.4","yoevce1vmq","","yoevce1vmq","""2024-11-12T18:18:09.911Z""","772","materials/imgs/D9.png","arrowright","","[""materials/imgs/D103.png"",""materials/imgs/D4.png""]","false","validation","","",""
"","","","","","html-keyboard-response","394","553357","0.0-19.0-2.2-0.5","yoevce1vmq","","yoevce1vmq","""2024-11-12T18:18:09.911Z""","null","+","null","","","","","","",""
"","","","","","image-keyboard-response","395","554444","0.0-19.0-2.2-1.5","yoevce1vmq","","yoevce1vmq","""2024-11-12T18:18:09.911Z""","1086","materials/imgs/D48.png","arrowright","","[""materials/imgs/D4.png"",""materials/imgs/D37.png""]","false","validation","","",""
"","","","","","html-keyboard-response","396","554945","0.0-19.0-0.3-0.21","yoevce1vmq","","yoevce1vmq","""2024-11-12T18:18:09.911Z""","null","+","null","","","","","","",""
"","","","","","image-keyboard-response","397","556165","0.0-19.0-0.3-1.21","yoevce1vmq","","yoevce1vmq","""2024-11-12T18:18:09.911Z""","1219","materials/imgs/D75.png","arrowleft","","[""materials/imgs/D4.png"",""materials/imgs/D105.png""]","false","random","","",""
"","","","","","html-keyboard-response","398","556666","0.0-19.0-0.3-0.22","yoevce1vmq","","yoevce1vmq","""2024-11-12T18:18:09.911Z""","null","+","null","","","","","","",""
"","","","","","image-keyboard-response","399","559065","0.0-19.0-0.3-1.22","yoevce1vmq","","yoevce1vmq","""2024-11-12T18:18:09.911Z""","2397","materials/imgs/D74.png","arrowright","","[""materials/imgs/D78.png"",""materials/imgs/D1.png""]","false","random","","",""
"","","","","","html-keyboard-response","400","559566","0.0-19.0-0.3-0.23","yoevce1vmq","","yoevce1vmq","""2024-11-12T18:18:09.911Z""","null","+","null","","","","","","",""
"","","","","","image-keyboard-response","401","560326","0.0-19.0-0.3-1.23","yoevce1vmq","","yoevce1vmq","""2024-11-12T18:18:09.911Z""","758","materials/imgs/D21.png","arrowleft","","[""materials/imgs/D6.png"",""materials/imgs/D66.png""]","false","random","","",""
"","","","","","html-keyboard-response","402","560828","0.0-19.0-0.3-0.24","yoevce1vmq","","yoevce1vmq","""2024-11-12T18:18:09.911Z""","null","+","null","","","","","","",""
"","","","","","image-keyboard-response","403","562176","0.0-19.0-0.3-1.24","yoevce1vmq","","yoevce1vmq","""2024-11-12T18:18:09.911Z""","1347","materials/imgs/D51.png","arrowright","","[""materials/imgs/D11.png"",""materials/imgs/D105.png""]","false","random","","",""
"","","","","","html-keyboard-response","404","562677","0.0-19.0-0.3-0.25","yoevce1vmq","","yoevce1vmq","""2024-11-12T18:18:09.911Z""","null","+","null","","","","","","",""
"","","","","","image-keyboard-response","405","564625","0.0-19.0-0.3-1.25","yoevce1vmq","","yoevce1vmq","""2024-11-12T18:18:09.911Z""","1946","materials/imgs/D96.png","arrowleft","","[""materials/imgs/D22.png"",""materials/imgs/D4.png""]","false","random","","",""
"","","","","","html-keyboard-response","406","565127","0.0-19.0-0.3-0.26","yoevce1vmq","","yoevce1vmq","""2024-11-12T18:18:09.911Z""","null","+","null","","","","","","",""
"","","","","","image-keyboard-response","407","566546","0.0-19.0-0.3-1.26","yoevce1vmq","","yoevce1vmq","""2024-11-12T18:18:09.911Z""","1418","materials/imgs/D74.png","arrowleft","","[""materials/imgs/D8.png"",""materials/imgs/D65.png""]","false","random","","",""
"","","","","","html-keyboard-response","408","567047","0.0-19.0-0.3-0.27","yoevce1vmq","","yoevce1vmq","""2024-11-12T18:18:09.911Z""","null","+","null","","","","","","",""
"","","","","","image-keyboard-response","409","567906","0.0-19.0-0.3-1.27","yoevce1vmq","","yoevce1vmq","""2024-11-12T18:18:09.911Z""","857","materials/imgs/D56.png","arrowright","","[""materials/imgs/D53.png"",""materials/imgs/D1.png""]","false","random","","",""
"","","","","","html-keyboard-response","410","568407","0.0-19.0-1.3-0.3","yoevce1vmq","","yoevce1vmq","""2024-11-12T18:18:09.911Z""","null","+","null","","","","","","",""
"","","","","","image-keyboard-response","411","569082","0.0-19.0-1.3-1.3","yoevce1vmq","","yoevce1vmq","""2024-11-12T18:18:09.911Z""","673","materials/imgs/D78.png","arrowright","","[""materials/imgs/D76.png"",""materials/imgs/D78.png""]","","check","materials/imgs/D78.png","1","true"
"","","","","","html-keyboard-response","412","569583","0.0-19.0-2.3-0.6","yoevce1vmq","","yoevce1vmq","""2024-11-12T18:18:09.911Z""","null","+","null","","","","","","",""
"","","","","","image-keyboard-response","413","571112","0.0-19.0-2.3-1.6","yoevce1vmq","","yoevce1vmq","""2024-11-12T18:18:09.911Z""","1527","materials/imgs/D6.png","arrowright","","[""materials/imgs/D26.png"",""materials/imgs/D76.png""]","false","validation","","",""
"","","","","","html-keyboard-response","414","571613","0.0-19.0-2.3-0.7","yoevce1vmq","","yoevce1vmq","""2024-11-12T18:18:09.911Z""","null","+","null","","","","","","",""
"","","","","","image-keyboard-response","415","573545","0.0-19.0-2.3-1.7","yoevce1vmq","","yoevce1vmq","""2024-11-12T18:18:09.911Z""","1927","materials/imgs/D79.png","arrowright","","[""materials/imgs/D51.png"",""materials/imgs/D64.png""]","false","validation","","",""
"","","","","","html-keyboard-response","416","574046","0.0-19.0-0.4-0.28","yoevce1vmq","","yoevce1vmq","""2024-11-12T18:18:09.911Z""","null","+","null","","","","","","",""
"","","","","","image-keyboard-response","417","574756","0.0-19.0-0.4-1.28","yoevce1vmq","","yoevce1vmq","""2024-11-12T18:18:09.911Z""","708","materials/imgs/D106.png","arrowleft","","[""materials/imgs/D105.png"",""materials/imgs/D8.png""]","false","random","","",""
"","","","","","html-keyboard-response","418","575257","0.0-19.0-0.4-0.29","yoevce1vmq","","yoevce1vmq","""2024-11-12T18:18:09.911Z""","null","+","null","","","","","","",""
"","","","","","image-keyboard-response","419","577185","0.0-19.0-0.4-1.29","yoevce1vmq","","yoevce1vmq","""2024-11-12T18:18:09.911Z""","1927","materials/imgs/D64.png","arrowright","","[""materials/imgs/D94.png"",""materials/imgs/D53.png""]","false","random","","",""
"","","","","","html-keyboard-response","420","577686","0.0-19.0-0.4-0.30","yoevce1vmq","","yoevce1vmq","""2024-11-12T18:18:09.911Z""","null","+","null","","","","","","",""
"","","","","","image-keyboard-response","421","579281","0.0-19.0-0.4-1.30","yoevce1vmq","","yoevce1vmq","""2024-11-12T18:18:09.911Z""","1594","materials/imgs/D8.png","arrowright","","[""materials/imgs/D20.png"",""materials/imgs/D22.png""]","false","random","","",""
"","","","","","html-keyboard-response","422","579782","0.0-19.0-0.4-0.31","yoevce1vmq","","yoevce1vmq","""2024-11-12T18:18:09.911Z""","null","+","null","","","","","","",""
"","","","","","image-keyboard-response","423","580996","0.0-19.0-0.4-1.31","yoevce1vmq","","yoevce1vmq","""2024-11-12T18:18:09.911Z""","1212","materials/imgs/D36.png","arrowleft","","[""materials/imgs/D102.png"",""materials/imgs/D29.png""]","false","random","","",""
"","","","","","html-keyboard-response","424","581496","0.0-19.0-0.4-0.32","yoevce1vmq","","yoevce1vmq","""2024-11-12T18:18:09.911Z""","null","+","null","","","","","","",""
"","","","","","image-keyboard-response","425","582449","0.0-19.0-0.4-1.32","yoevce1vmq","","yoevce1vmq","""2024-11-12T18:18:09.911Z""","951","materials/imgs/D18.png","arrowleft","","[""materials/imgs/D52.png"",""materials/imgs/D57.png""]","false","random","","",""
"","","","","","html-keyboard-response","426","582950","0.0-19.0-0.4-0.33","yoevce1vmq","","yoevce1vmq","""2024-11-12T18:18:09.911Z""","null","+","null","","","","","","",""
"","","","","","image-keyboard-response","427","584396","0.0-19.0-0.4-1.33","yoevce1vmq","","yoevce1vmq","""2024-11-12T18:18:09.911Z""","1444","materials/imgs/D37.png","arrowright","","[""materials/imgs/D80.png"",""materials/imgs/D34.png""]","false","random","","",""
"","","","","","html-keyboard-response","428","584897","0.0-19.0-0.4-0.34","yoevce1vmq","","yoevce1vmq","""2024-11-12T18:18:09.911Z""","null","+","null","","","","","","",""
"","","","","","image-keyboard-response","429","587234","0.0-19.0-0.4-1.34","yoevce1vmq","","yoevce1vmq","""2024-11-12T18:18:09.911Z""","2335","materials/imgs/D16.png","arrowright","","[""materials/imgs/D3.png"",""materials/imgs/D68.png""]","false","random","","",""
"","","","","","html-keyboard-response","430","587735","0.0-19.0-1.4-0.4","yoevce1vmq","","yoevce1vmq","""2024-11-12T18:18:09.911Z""","null","+","null","","","","","","",""
"","","","","","image-keyboard-response","431","588390","0.0-19.0-1.4-1.4","yoevce1vmq","","yoevce1vmq","""2024-11-12T18:18:09.911Z""","653","materials/imgs/D106.png","arrowleft","","[""materials/imgs/D106.png"",""materials/imgs/D101.png""]","","check","materials/imgs/D106.png","0","true"
"","","","","","html-keyboard-response","432","588891","0.0-19.0-2.4-0.8","yoevce1vmq","","yoevce1vmq","""2024-11-12T18:18:09.911Z""","null","+","null","","","","","","",""
"","","","","","image-keyboard-response","433","592353","0.0-19.0-2.4-1.8","yoevce1vmq","","yoevce1vmq","""2024-11-12T18:18:09.911Z""","3461","materials/imgs/D111.png","arrowleft","","[""materials/imgs/D82.png"",""materials/imgs/D95.png""]","false","validation","","",""
"","","","","","html-keyboard-response","434","592855","0.0-19.0-2.4-0.9","yoevce1vmq","","yoevce1vmq","""2024-11-12T18:18:09.911Z""","null","+","null","","","","","","",""
"","","","","","image-keyboard-response","435","593563","0.0-19.0-2.4-1.9","yoevce1vmq","","yoevce1vmq","""2024-11-12T18:18:09.911Z""","707","materials/imgs/D8.png","arrowleft","","[""materials/imgs/D101.png"",""materials/imgs/D52.png""]","false","validation","","",""
