"success","timeout","failed_images","failed_audio","failed_video","trial_type","trial_index","time_elapsed","internal_node_id","subject_id","sona_id","subjectID","dateInfo","rt","stimulus","response","question_order","choices","speedy","sampleAlg","selected_image","selected_index","correct"
"true","false","[]","[]","[]","preload","0","204","0.0-0.0","ys5k4de9dg","","ys5k4de9dg","""2024-11-12T20:30:52.871Z""","","","","","","","","","",""
"true","","","","","fullscreen","1","2184","0.0-1.0","ys5k4de9dg","","ys5k4de9dg","""2024-11-12T20:30:52.871Z""","","","","","","","","","",""
"","","","","","html-keyboard-response","2","2198","0.0-2.0","ys5k4de9dg","","ys5k4de9dg","""2024-11-12T20:30:52.871Z""","null","","null","","","","","","",""
"","","","","","html-button-response","3","3266","0.0-3.0","ys5k4de9dg","","ys5k4de9dg","""2024-11-12T20:30:52.871Z""","1066","<div style='text-align:center; font-size:20px; line-height:25px; width: 1200px;'>
                Welcome to our experiment! <br>
                <br>At the bottom of this screen, you will see a button that says 'Begin Experiment.
                <br>Please only click that button when you are ready to complete the 25 minute experiment in one sitting. <br>
                <br> Once you click that button, it will not be possible to restart the experiment. <br><br>","0","","","","","","",""
"true","","","","","fullscreen","4","7599","0.0-4.0","ys5k4de9dg","","ys5k4de9dg","""2024-11-12T20:30:52.871Z""","","","","","","","","","",""
"","","","","","survey-multi-select","5","66784","0.0-5.0","ys5k4de9dg","","ys5k4de9dg","""2024-11-12T20:30:52.871Z""","59180","","{""Consent"":[""<strong>I consent</strong>""]}","[0]","","","","","",""
"","","","","","html-button-response","6","71033","0.0-6.0","ys5k4de9dg","","ys5k4de9dg","""2024-11-12T20:30:52.871Z""","4246","Welcome! <p> This experiment involves two parts: demographic information, followed by the experimental task.<p> It will take about 25 minutes to complete both parts.","0","","","","","","",""
"","","","","","survey-text","7","85736","0.0-7.0","ys5k4de9dg","","ys5k4de9dg","""2024-11-12T20:30:52.871Z""","14699","","{""Age"":""18"",""Gender"":""Female"",""Race/ethnicity"":""White""}","","","","","","",""
"","","","","","html-button-response","8","118283","0.0-8.0","ys5k4de9dg","","ys5k4de9dg","""2024-11-12T20:30:52.871Z""","32544","<div style='text-align: center;'>
      <p>In each trial of this task, you will see three texture images: one target item on top, and two choices beneath the target item.</p>
      <p><strong>Please select the item that is most like the target item.</strong></p>
      <p>To select the option on the <strong>LEFT</strong>, press the <strong>LEFT ARROW</strong> key. 
      To select the option on the <strong>RIGHT</strong>, press the <strong>RIGHT ARROW</strong> key.</p>
                  <!-- Target Image at the Top -->
      <div style='margin: 20px;'>
        <img src='materials/imgs/instruction_images/InstructionImg1D78.png' alt='Target Image' style='width:200px; height:auto;' />
        <p><em>Target Image</em></p>
      </div>

      <!-- Two Choice Images Below -->
      <div style='display: flex; justify-content: center;'>
        <div style='margin-right: 50px;'>
          <img src='materials/imgs/instruction_images/InstructionImg2D34.png' alt='Choice Image 1' style='width:150px; height:auto;' />
          <p><em><strong>LEFT ARROW</strong></em></p>
        </div>
        <div style='margin-left: 50px;'>
          <img src='materials/imgs/instruction_images/InstructionImg3D80.png' alt='Choice Image 2' style='width:150px; height:auto;' />
          <p><em><strong>RIGHT ARROW</strong></em></p>
        </div>
      </div>
    </div>

      <p>When you are ready to proceed, please click 'Continue' to begin practice.</p>","0","","","","","","",""
"","","","","","html-keyboard-response","9","120787","0.0-9.0","ys5k4de9dg","","ys5k4de9dg","""2024-11-12T20:30:52.871Z""","null","+","null","","","","","","",""
"","","","","","html-keyboard-response","10","121289","0.0-10.0-0.0-0.0","ys5k4de9dg","","ys5k4de9dg","""2024-11-12T20:30:52.871Z""","null","+","null","","","","","","",""
"","","","","","image-keyboard-response","11","123929","0.0-10.0-0.0-1.0","ys5k4de9dg","","ys5k4de9dg","""2024-11-12T20:30:52.871Z""","2637","materials/imgs/D81.png","arrowright","","[""materials/imgs/D94.png"",""materials/imgs/D19.png""]","false","random","","",""
"","","","","","html-keyboard-response","12","124432","0.0-10.0-0.0-0.1","ys5k4de9dg","","ys5k4de9dg","""2024-11-12T20:30:52.871Z""","null","+","null","","","","","","",""
"","","","","","image-keyboard-response","13","127526","0.0-10.0-0.0-1.1","ys5k4de9dg","","ys5k4de9dg","""2024-11-12T20:30:52.871Z""","3092","materials/imgs/D21.png","arrowleft","","[""materials/imgs/D104.png"",""materials/imgs/D82.png""]","false","random","","",""
"","","","","","html-keyboard-response","14","128028","0.0-10.0-0.0-0.2","ys5k4de9dg","","ys5k4de9dg","""2024-11-12T20:30:52.871Z""","null","+","null","","","","","","",""
"","","","","","image-keyboard-response","15","129068","0.0-10.0-0.0-1.2","ys5k4de9dg","","ys5k4de9dg","""2024-11-12T20:30:52.871Z""","1038","materials/imgs/D66.png","arrowleft","","[""materials/imgs/D19.png"",""materials/imgs/D82.png""]","false","random","","",""
"","","","","","html-keyboard-response","16","129570","0.0-10.0-0.0-0.3","ys5k4de9dg","","ys5k4de9dg","""2024-11-12T20:30:52.871Z""","null","+","null","","","","","","",""
"","","","","","image-keyboard-response","17","130616","0.0-10.0-0.0-1.3","ys5k4de9dg","","ys5k4de9dg","""2024-11-12T20:30:52.871Z""","1045","materials/imgs/D25.png","arrowleft","","[""materials/imgs/D95.png"",""materials/imgs/D32.png""]","false","random","","",""
"","","","","","html-keyboard-response","18","131118","0.0-10.0-0.0-0.4","ys5k4de9dg","","ys5k4de9dg","""2024-11-12T20:30:52.871Z""","null","+","null","","","","","","",""
"","","","","","image-keyboard-response","19","132993","0.0-10.0-0.0-1.4","ys5k4de9dg","","ys5k4de9dg","""2024-11-12T20:30:52.871Z""","1873","materials/imgs/D35.png","arrowright","","[""materials/imgs/D80.png"",""materials/imgs/D102.png""]","false","random","","",""
"","","","","","html-keyboard-response","20","133495","0.0-10.0-0.0-0.5","ys5k4de9dg","","ys5k4de9dg","""2024-11-12T20:30:52.871Z""","null","+","null","","","","","","",""
"","","","","","image-keyboard-response","21","134450","0.0-10.0-0.0-1.5","ys5k4de9dg","","ys5k4de9dg","""2024-11-12T20:30:52.871Z""","953","materials/imgs/D75.png","arrowleft","","[""materials/imgs/D8.png"",""materials/imgs/D25.png""]","false","random","","",""
"","","","","","html-keyboard-response","22","134951","0.0-10.0-0.0-0.6","ys5k4de9dg","","ys5k4de9dg","""2024-11-12T20:30:52.871Z""","null","+","null","","","","","","",""
"","","","","","image-keyboard-response","23","135997","0.0-10.0-0.0-1.6","ys5k4de9dg","","ys5k4de9dg","""2024-11-12T20:30:52.871Z""","1044","materials/imgs/D25.png","arrowright","","[""materials/imgs/D4.png"",""materials/imgs/D35.png""]","false","random","","",""
"","","","","","html-keyboard-response","24","136498","0.0-10.0-0.0-0.7","ys5k4de9dg","","ys5k4de9dg","""2024-11-12T20:30:52.871Z""","null","+","null","","","","","","",""
"","","","","","image-keyboard-response","25","137314","0.0-10.0-0.0-1.7","ys5k4de9dg","","ys5k4de9dg","""2024-11-12T20:30:52.871Z""","814","materials/imgs/D16.png","arrowright","","[""materials/imgs/D65.png"",""materials/imgs/D77.png""]","false","random","","",""
"","","","","","html-keyboard-response","26","137815","0.0-10.0-0.0-0.8","ys5k4de9dg","","ys5k4de9dg","""2024-11-12T20:30:52.871Z""","null","+","null","","","","","","",""
"","","","","","image-keyboard-response","27","138438","0.0-10.0-0.0-1.8","ys5k4de9dg","","ys5k4de9dg","""2024-11-12T20:30:52.871Z""","620","materials/imgs/D77.png","arrowleft","","[""materials/imgs/D53.png"",""materials/imgs/D8.png""]","false","random","","",""
"","","","","","html-keyboard-response","28","138939","0.0-10.0-0.0-0.9","ys5k4de9dg","","ys5k4de9dg","""2024-11-12T20:30:52.871Z""","null","+","null","","","","","","",""
"","","","","","image-keyboard-response","29","139791","0.0-10.0-0.0-1.9","ys5k4de9dg","","ys5k4de9dg","""2024-11-12T20:30:52.871Z""","850","materials/imgs/D95.png","arrowleft","","[""materials/imgs/D55.png"",""materials/imgs/D9.png""]","false","random","","",""
"","","","","","html-button-response","30","144797","0.0-11.0","ys5k4de9dg","","ys5k4de9dg","""2024-11-12T20:30:52.871Z""","5004","<p>Great job!</p>
      <p>You are now ready to begin the experiment.</p>
      <p>There will be around 200 trials. You will have opportunities to take breaks at three stages of the trials.</p>
      <p>When you are ready to begin please click 'Continue'.</p>","0","","","","","","",""
"","","","","","html-keyboard-response","31","147302","0.0-12.0","ys5k4de9dg","","ys5k4de9dg","""2024-11-12T20:30:52.871Z""","null","+","null","","","","","","",""
"","","","","","html-keyboard-response","32","147803","0.0-13.0-0.0-0.0","ys5k4de9dg","","ys5k4de9dg","""2024-11-12T20:30:52.871Z""","null","+","null","","","","","","",""
"","","","","","image-keyboard-response","33","149138","0.0-13.0-0.0-1.0","ys5k4de9dg","","ys5k4de9dg","""2024-11-12T20:30:52.871Z""","1333","materials/imgs/D36.png","arrowleft","","[""materials/imgs/D3.png"",""materials/imgs/D105.png""]","false","random","","",""
"","","","","","html-keyboard-response","34","149640","0.0-13.0-0.0-0.1","ys5k4de9dg","","ys5k4de9dg","""2024-11-12T20:30:52.871Z""","null","+","null","","","","","","",""
"","","","","","image-keyboard-response","35","150469","0.0-13.0-0.0-1.1","ys5k4de9dg","","ys5k4de9dg","""2024-11-12T20:30:52.871Z""","827","materials/imgs/D4.png","arrowright","","[""materials/imgs/D26.png"",""materials/imgs/D92.png""]","false","random","","",""
"","","","","","html-keyboard-response","36","150971","0.0-13.0-0.0-0.2","ys5k4de9dg","","ys5k4de9dg","""2024-11-12T20:30:52.871Z""","null","+","null","","","","","","",""
"","","","","","image-keyboard-response","37","152002","0.0-13.0-0.0-1.2","ys5k4de9dg","","ys5k4de9dg","""2024-11-12T20:30:52.871Z""","1029","materials/imgs/D83.png","arrowright","","[""materials/imgs/D56.png"",""materials/imgs/D111.png""]","false","random","","",""
"","","","","","html-keyboard-response","38","152504","0.0-13.0-0.0-0.3","ys5k4de9dg","","ys5k4de9dg","""2024-11-12T20:30:52.871Z""","null","+","null","","","","","","",""
"","","","","","image-keyboard-response","39","153775","0.0-13.0-0.0-1.3","ys5k4de9dg","","ys5k4de9dg","""2024-11-12T20:30:52.871Z""","1269","materials/imgs/D75.png","arrowleft","","[""materials/imgs/D85.png"",""materials/imgs/D78.png""]","false","random","","",""
"","","","","","html-keyboard-response","40","154277","0.0-13.0-0.0-0.4","ys5k4de9dg","","ys5k4de9dg","""2024-11-12T20:30:52.871Z""","null","+","null","","","","","","",""
"","","","","","image-keyboard-response","41","155150","0.0-13.0-0.0-1.4","ys5k4de9dg","","ys5k4de9dg","""2024-11-12T20:30:52.871Z""","872","materials/imgs/D35.png","arrowright","","[""materials/imgs/D51.png"",""materials/imgs/D34.png""]","false","random","","",""
"","","","","","html-keyboard-response","42","155652","0.0-13.0-0.0-0.5","ys5k4de9dg","","ys5k4de9dg","""2024-11-12T20:30:52.871Z""","null","+","null","","","","","","",""
"","","","","","image-keyboard-response","43","156409","0.0-13.0-0.0-1.5","ys5k4de9dg","","ys5k4de9dg","""2024-11-12T20:30:52.871Z""","756","materials/imgs/D57.png","arrowleft","","[""materials/imgs/D65.png"",""materials/imgs/D102.png""]","false","random","","",""
"","","","","","html-keyboard-response","44","156911","0.0-13.0-0.0-0.6","ys5k4de9dg","","ys5k4de9dg","""2024-11-12T20:30:52.871Z""","null","+","null","","","","","","",""
"","","","","","image-keyboard-response","45","157541","0.0-13.0-0.0-1.6","ys5k4de9dg","","ys5k4de9dg","""2024-11-12T20:30:52.871Z""","629","materials/imgs/D19.png","arrowleft","","[""materials/imgs/D9.png"",""materials/imgs/D17.png""]","false","random","","",""
"","","","","","html-keyboard-response","46","158043","0.0-13.0-1.0-0.0","ys5k4de9dg","","ys5k4de9dg","""2024-11-12T20:30:52.871Z""","null","+","null","","","","","","",""
"","","","","","image-keyboard-response","47","158626","0.0-13.0-1.0-1.0","ys5k4de9dg","","ys5k4de9dg","""2024-11-12T20:30:52.871Z""","582","materials/imgs/D106.png","arrowleft","","[""materials/imgs/D106.png"",""materials/imgs/D101.png""]","","check","materials/imgs/D106.png","0","true"
"","","","","","html-keyboard-response","48","159128","0.0-13.0-2.0-0.0","ys5k4de9dg","","ys5k4de9dg","""2024-11-12T20:30:52.871Z""","null","+","null","","","","","","",""
"","","","","","image-keyboard-response","49","159777","0.0-13.0-2.0-1.0","ys5k4de9dg","","ys5k4de9dg","""2024-11-12T20:30:52.871Z""","647","materials/imgs/D9.png","arrowright","","[""materials/imgs/D103.png"",""materials/imgs/D4.png""]","false","validation","","",""
"","","","","","html-keyboard-response","50","160279","0.0-13.0-2.0-0.1","ys5k4de9dg","","ys5k4de9dg","""2024-11-12T20:30:52.871Z""","null","+","null","","","","","","",""
"","","","","","image-keyboard-response","51","161244","0.0-13.0-2.0-1.1","ys5k4de9dg","","ys5k4de9dg","""2024-11-12T20:30:52.871Z""","964","materials/imgs/D47.png","arrowright","","[""materials/imgs/D1.png"",""materials/imgs/D52.png""]","false","validation","","",""
"","","","","","html-keyboard-response","52","161747","0.0-13.0-0.1-0.7","ys5k4de9dg","","ys5k4de9dg","""2024-11-12T20:30:52.871Z""","null","+","null","","","","","","",""
"","","","","","image-keyboard-response","53","162500","0.0-13.0-0.1-1.7","ys5k4de9dg","","ys5k4de9dg","""2024-11-12T20:30:52.871Z""","752","materials/imgs/D14.png","arrowleft","","[""materials/imgs/D35.png"",""materials/imgs/D8.png""]","false","random","","",""
"","","","","","html-keyboard-response","54","163001","0.0-13.0-0.1-0.8","ys5k4de9dg","","ys5k4de9dg","""2024-11-12T20:30:52.871Z""","null","+","null","","","","","","",""
"","","","","","image-keyboard-response","55","163961","0.0-13.0-0.1-1.8","ys5k4de9dg","","ys5k4de9dg","""2024-11-12T20:30:52.871Z""","958","materials/imgs/D94.png","arrowright","","[""materials/imgs/D83.png"",""materials/imgs/D75.png""]","false","random","","",""
"","","","","","html-keyboard-response","56","164462","0.0-13.0-0.1-0.9","ys5k4de9dg","","ys5k4de9dg","""2024-11-12T20:30:52.871Z""","null","+","null","","","","","","",""
"","","","","","image-keyboard-response","57","165406","0.0-13.0-0.1-1.9","ys5k4de9dg","","ys5k4de9dg","""2024-11-12T20:30:52.871Z""","943","materials/imgs/D6.png","arrowright","","[""materials/imgs/D111.png"",""materials/imgs/D80.png""]","false","random","","",""
"","","","","","html-keyboard-response","58","165908","0.0-13.0-0.1-0.10","ys5k4de9dg","","ys5k4de9dg","""2024-11-12T20:30:52.871Z""","null","+","null","","","","","","",""
"","","","","","image-keyboard-response","59","166566","0.0-13.0-0.1-1.10","ys5k4de9dg","","ys5k4de9dg","""2024-11-12T20:30:52.871Z""","657","materials/imgs/D79.png","arrowright","","[""materials/imgs/D101.png"",""materials/imgs/D55.png""]","false","random","","",""
"","","","","","html-keyboard-response","60","167067","0.0-13.0-0.1-0.11","ys5k4de9dg","","ys5k4de9dg","""2024-11-12T20:30:52.871Z""","null","+","null","","","","","","",""
"","","","","","image-keyboard-response","61","168161","0.0-13.0-0.1-1.11","ys5k4de9dg","","ys5k4de9dg","""2024-11-12T20:30:52.871Z""","1091","materials/imgs/D20.png","arrowright","","[""materials/imgs/D66.png"",""materials/imgs/D8.png""]","false","random","","",""
"","","","","","html-keyboard-response","62","168662","0.0-13.0-0.1-0.12","ys5k4de9dg","","ys5k4de9dg","""2024-11-12T20:30:52.871Z""","null","+","null","","","","","","",""
"","","","","","image-keyboard-response","63","169629","0.0-13.0-0.1-1.12","ys5k4de9dg","","ys5k4de9dg","""2024-11-12T20:30:52.871Z""","966","materials/imgs/D95.png","arrowright","","[""materials/imgs/D32.png"",""materials/imgs/D92.png""]","false","random","","",""
"","","","","","html-keyboard-response","64","170131","0.0-13.0-0.1-0.13","ys5k4de9dg","","ys5k4de9dg","""2024-11-12T20:30:52.871Z""","null","+","null","","","","","","",""
"","","","","","image-keyboard-response","65","171127","0.0-13.0-0.1-1.13","ys5k4de9dg","","ys5k4de9dg","""2024-11-12T20:30:52.871Z""","995","materials/imgs/D11.png","arrowleft","","[""materials/imgs/D52.png"",""materials/imgs/D49.png""]","false","random","","",""
"","","","","","html-keyboard-response","66","171629","0.0-13.0-1.1-0.1","ys5k4de9dg","","ys5k4de9dg","""2024-11-12T20:30:52.871Z""","null","+","null","","","","","","",""
"","","","","","image-keyboard-response","67","172232","0.0-13.0-1.1-1.1","ys5k4de9dg","","ys5k4de9dg","""2024-11-12T20:30:52.871Z""","602","materials/imgs/D8.png","arrowright","","[""materials/imgs/D18.png"",""materials/imgs/D8.png""]","","check","materials/imgs/D8.png","1","true"
"","","","","","html-keyboard-response","68","172734","0.0-13.0-2.1-0.2","ys5k4de9dg","","ys5k4de9dg","""2024-11-12T20:30:52.871Z""","null","+","null","","","","","","",""
"","","","","","image-keyboard-response","69","173617","0.0-13.0-2.1-1.2","ys5k4de9dg","","ys5k4de9dg","""2024-11-12T20:30:52.871Z""","882","materials/imgs/D81.png","arrowright","","[""materials/imgs/D105.png"",""materials/imgs/D24.png""]","false","validation","","",""
"","","","","","html-keyboard-response","70","174119","0.0-13.0-2.1-0.3","ys5k4de9dg","","ys5k4de9dg","""2024-11-12T20:30:52.871Z""","null","+","null","","","","","","",""
"","","","","","image-keyboard-response","71","175446","0.0-13.0-2.1-1.3","ys5k4de9dg","","ys5k4de9dg","""2024-11-12T20:30:52.871Z""","1326","materials/imgs/D85.png","arrowleft","","[""materials/imgs/D6.png"",""materials/imgs/D111.png""]","false","validation","","",""
"","","","","","html-keyboard-response","72","175948","0.0-13.0-0.2-0.14","ys5k4de9dg","","ys5k4de9dg","""2024-11-12T20:30:52.871Z""","null","+","null","","","","","","",""
"","","","","","image-keyboard-response","73","178483","0.0-13.0-0.2-1.14","ys5k4de9dg","","ys5k4de9dg","""2024-11-12T20:30:52.871Z""","2534","materials/imgs/D51.png","arrowright","","[""materials/imgs/D96.png"",""materials/imgs/D75.png""]","false","random","","",""
"","","","","","html-keyboard-response","74","178984","0.0-13.0-0.2-0.15","ys5k4de9dg","","ys5k4de9dg","""2024-11-12T20:30:52.871Z""","null","+","null","","","","","","",""
"","","","","","image-keyboard-response","75","180028","0.0-13.0-0.2-1.15","ys5k4de9dg","","ys5k4de9dg","""2024-11-12T20:30:52.871Z""","1042","materials/imgs/D34.png","arrowright","","[""materials/imgs/D106.png"",""materials/imgs/D83.png""]","false","random","","",""
"","","","","","html-keyboard-response","76","180529","0.0-13.0-0.2-0.16","ys5k4de9dg","","ys5k4de9dg","""2024-11-12T20:30:52.871Z""","null","+","null","","","","","","",""
"","","","","","image-keyboard-response","77","182584","0.0-13.0-0.2-1.16","ys5k4de9dg","","ys5k4de9dg","""2024-11-12T20:30:52.871Z""","2053","materials/imgs/D103.png","arrowright","","[""materials/imgs/D20.png"",""materials/imgs/D3.png""]","false","random","","",""
"","","","","","html-keyboard-response","78","183085","0.0-13.0-0.2-0.17","ys5k4de9dg","","ys5k4de9dg","""2024-11-12T20:30:52.871Z""","null","+","null","","","","","","",""
"","","","","","image-keyboard-response","79","184087","0.0-13.0-0.2-1.17","ys5k4de9dg","","ys5k4de9dg","""2024-11-12T20:30:52.871Z""","1000","materials/imgs/D92.png","arrowleft","","[""materials/imgs/D19.png"",""materials/imgs/D55.png""]","false","random","","",""
"","","","","","html-keyboard-response","80","184588","0.0-13.0-0.2-0.18","ys5k4de9dg","","ys5k4de9dg","""2024-11-12T20:30:52.871Z""","null","+","null","","","","","","",""
"","","","","","image-keyboard-response","81","186335","0.0-13.0-0.2-1.18","ys5k4de9dg","","ys5k4de9dg","""2024-11-12T20:30:52.871Z""","1745","materials/imgs/D105.png","arrowleft","","[""materials/imgs/D21.png"",""materials/imgs/D65.png""]","false","random","","",""
"","","","","","html-keyboard-response","82","186837","0.0-13.0-0.2-0.19","ys5k4de9dg","","ys5k4de9dg","""2024-11-12T20:30:52.871Z""","null","+","null","","","","","","",""
"","","","","","image-keyboard-response","83","187473","0.0-13.0-0.2-1.19","ys5k4de9dg","","ys5k4de9dg","""2024-11-12T20:30:52.871Z""","634","materials/imgs/D14.png","arrowleft","","[""materials/imgs/D21.png"",""materials/imgs/D104.png""]","false","random","","",""
"","","","","","html-keyboard-response","84","187975","0.0-13.0-0.2-0.20","ys5k4de9dg","","ys5k4de9dg","""2024-11-12T20:30:52.871Z""","null","+","null","","","","","","",""
"","","","","","image-keyboard-response","85","189350","0.0-13.0-0.2-1.20","ys5k4de9dg","","ys5k4de9dg","""2024-11-12T20:30:52.871Z""","1373","materials/imgs/D87.png","arrowright","","[""materials/imgs/D22.png"",""materials/imgs/D52.png""]","false","random","","",""
"","","","","","html-keyboard-response","86","189851","0.0-13.0-1.2-0.2","ys5k4de9dg","","ys5k4de9dg","""2024-11-12T20:30:52.871Z""","null","+","null","","","","","","",""
"","","","","","image-keyboard-response","87","190533","0.0-13.0-1.2-1.2","ys5k4de9dg","","ys5k4de9dg","""2024-11-12T20:30:52.871Z""","681","materials/imgs/D18.png","arrowright","","[""materials/imgs/D8.png"",""materials/imgs/D18.png""]","","check","materials/imgs/D18.png","1","true"
"","","","","","html-keyboard-response","88","191035","0.0-13.0-2.2-0.4","ys5k4de9dg","","ys5k4de9dg","""2024-11-12T20:30:52.871Z""","null","+","null","","","","","","",""
"","","","","","image-keyboard-response","89","192082","0.0-13.0-2.2-1.4","ys5k4de9dg","","ys5k4de9dg","""2024-11-12T20:30:52.871Z""","1046","materials/imgs/D35.png","arrowright","","[""materials/imgs/D83.png"",""materials/imgs/D24.png""]","false","validation","","",""
"","","","","","html-keyboard-response","90","192583","0.0-13.0-2.2-0.5","ys5k4de9dg","","ys5k4de9dg","""2024-11-12T20:30:52.871Z""","null","+","null","","","","","","",""
"","","","","","image-keyboard-response","91","193697","0.0-13.0-2.2-1.5","ys5k4de9dg","","ys5k4de9dg","""2024-11-12T20:30:52.871Z""","1112","materials/imgs/D19.png","arrowleft","","[""materials/imgs/D111.png"",""materials/imgs/D56.png""]","false","validation","","",""
"","","","","","html-keyboard-response","92","194197","0.0-13.0-0.3-0.21","ys5k4de9dg","","ys5k4de9dg","""2024-11-12T20:30:52.871Z""","null","+","null","","","","","","",""
"","","","","","image-keyboard-response","93","195348","0.0-13.0-0.3-1.21","ys5k4de9dg","","ys5k4de9dg","""2024-11-12T20:30:52.871Z""","1150","materials/imgs/D85.png","arrowright","","[""materials/imgs/D20.png"",""materials/imgs/D16.png""]","false","random","","",""
"","","","","","html-keyboard-response","94","195850","0.0-13.0-0.3-0.22","ys5k4de9dg","","ys5k4de9dg","""2024-11-12T20:30:52.871Z""","null","+","null","","","","","","",""
"","","","","","image-keyboard-response","95","196485","0.0-13.0-0.3-1.22","ys5k4de9dg","","ys5k4de9dg","""2024-11-12T20:30:52.871Z""","632","materials/imgs/D111.png","arrowleft","","[""materials/imgs/D66.png"",""materials/imgs/D87.png""]","false","random","","",""
"","","","","","html-keyboard-response","96","196986","0.0-13.0-0.3-0.23","ys5k4de9dg","","ys5k4de9dg","""2024-11-12T20:30:52.871Z""","null","+","null","","","","","","",""
"","","","","","image-keyboard-response","97","197694","0.0-13.0-0.3-1.23","ys5k4de9dg","","ys5k4de9dg","""2024-11-12T20:30:52.871Z""","706","materials/imgs/D53.png","arrowright","","[""materials/imgs/D18.png"",""materials/imgs/D79.png""]","false","random","","",""
"","","","","","html-keyboard-response","98","198196","0.0-13.0-0.3-0.24","ys5k4de9dg","","ys5k4de9dg","""2024-11-12T20:30:52.871Z""","null","+","null","","","","","","",""
"","","","","","image-keyboard-response","99","199070","0.0-13.0-0.3-1.24","ys5k4de9dg","","ys5k4de9dg","""2024-11-12T20:30:52.871Z""","873","materials/imgs/D95.png","arrowright","","[""materials/imgs/D85.png"",""materials/imgs/D56.png""]","false","random","","",""
"","","","","","html-keyboard-response","100","199571","0.0-13.0-0.3-0.25","ys5k4de9dg","","ys5k4de9dg","""2024-11-12T20:30:52.871Z""","null","+","null","","","","","","",""
"","","","","","image-keyboard-response","101","200325","0.0-13.0-0.3-1.25","ys5k4de9dg","","ys5k4de9dg","""2024-11-12T20:30:52.871Z""","752","materials/imgs/D20.png","arrowleft","","[""materials/imgs/D51.png"",""materials/imgs/D25.png""]","false","random","","",""
"","","","","","html-keyboard-response","102","200827","0.0-13.0-0.3-0.26","ys5k4de9dg","","ys5k4de9dg","""2024-11-12T20:30:52.871Z""","null","+","null","","","","","","",""
"","","","","","image-keyboard-response","103","201809","0.0-13.0-0.3-1.26","ys5k4de9dg","","ys5k4de9dg","""2024-11-12T20:30:52.871Z""","981","materials/imgs/D22.png","arrowleft","","[""materials/imgs/D75.png"",""materials/imgs/D83.png""]","false","random","","",""
"","","","","","html-keyboard-response","104","202310","0.0-13.0-0.3-0.27","ys5k4de9dg","","ys5k4de9dg","""2024-11-12T20:30:52.871Z""","null","+","null","","","","","","",""
"","","","","","image-keyboard-response","105","203850","0.0-13.0-0.3-1.27","ys5k4de9dg","","ys5k4de9dg","""2024-11-12T20:30:52.871Z""","1539","materials/imgs/D48.png","arrowleft","","[""materials/imgs/D6.png"",""materials/imgs/D95.png""]","false","random","","",""
"","","","","","html-keyboard-response","106","204352","0.0-13.0-1.3-0.3","ys5k4de9dg","","ys5k4de9dg","""2024-11-12T20:30:52.871Z""","null","+","null","","","","","","",""
"","","","","","image-keyboard-response","107","204938","0.0-13.0-1.3-1.3","ys5k4de9dg","","ys5k4de9dg","""2024-11-12T20:30:52.871Z""","584","materials/imgs/D53.png","arrowright","","[""materials/imgs/D64.png"",""materials/imgs/D53.png""]","","check","materials/imgs/D53.png","1","true"
"","","","","","html-keyboard-response","108","205440","0.0-13.0-2.3-0.6","ys5k4de9dg","","ys5k4de9dg","""2024-11-12T20:30:52.871Z""","null","+","null","","","","","","",""
"","","","","","image-keyboard-response","109","206262","0.0-13.0-2.3-1.6","ys5k4de9dg","","ys5k4de9dg","""2024-11-12T20:30:52.871Z""","821","materials/imgs/D96.png","arrowright","","[""materials/imgs/D46.png"",""materials/imgs/D18.png""]","false","validation","","",""
"","","","","","html-keyboard-response","110","206764","0.0-13.0-2.3-0.7","ys5k4de9dg","","ys5k4de9dg","""2024-11-12T20:30:52.871Z""","null","+","null","","","","","","",""
"","","","","","image-keyboard-response","111","208046","0.0-13.0-2.3-1.7","ys5k4de9dg","","ys5k4de9dg","""2024-11-12T20:30:52.871Z""","1280","materials/imgs/D66.png","arrowleft","","[""materials/imgs/D85.png"",""materials/imgs/D25.png""]","false","validation","","",""
"","","","","","html-keyboard-response","112","208547","0.0-13.0-0.4-0.28","ys5k4de9dg","","ys5k4de9dg","""2024-11-12T20:30:52.871Z""","null","+","null","","","","","","",""
"","","","","","image-keyboard-response","113","209148","0.0-13.0-0.4-1.28","ys5k4de9dg","","ys5k4de9dg","""2024-11-12T20:30:52.871Z""","600","materials/imgs/D77.png","arrowright","","[""materials/imgs/D103.png"",""materials/imgs/D57.png""]","false","random","","",""
"","","","","","html-keyboard-response","114","209650","0.0-13.0-0.4-0.29","ys5k4de9dg","","ys5k4de9dg","""2024-11-12T20:30:52.871Z""","null","+","null","","","","","","",""
"","","","","","image-keyboard-response","115","211435","0.0-13.0-0.4-1.29","ys5k4de9dg","","ys5k4de9dg","""2024-11-12T20:30:52.871Z""","1784","materials/imgs/D1.png","arrowright","","[""materials/imgs/D55.png"",""materials/imgs/D83.png""]","false","random","","",""
"","","","","","html-keyboard-response","116","211936","0.0-13.0-0.4-0.30","ys5k4de9dg","","ys5k4de9dg","""2024-11-12T20:30:52.871Z""","null","+","null","","","","","","",""
"","","","","","image-keyboard-response","117","212801","0.0-13.0-0.4-1.30","ys5k4de9dg","","ys5k4de9dg","""2024-11-12T20:30:52.871Z""","862","materials/imgs/D55.png","arrowleft","","[""materials/imgs/D104.png"",""materials/imgs/D51.png""]","false","random","","",""
"","","","","","html-keyboard-response","118","213302","0.0-13.0-0.4-0.31","ys5k4de9dg","","ys5k4de9dg","""2024-11-12T20:30:52.871Z""","null","+","null","","","","","","",""
"","","","","","image-keyboard-response","119","214669","0.0-13.0-0.4-1.31","ys5k4de9dg","","ys5k4de9dg","""2024-11-12T20:30:52.871Z""","1366","materials/imgs/D21.png","arrowleft","","[""materials/imgs/D9.png"",""materials/imgs/D25.png""]","false","random","","",""
"","","","","","html-keyboard-response","120","215170","0.0-13.0-0.4-0.32","ys5k4de9dg","","ys5k4de9dg","""2024-11-12T20:30:52.871Z""","null","+","null","","","","","","",""
"","","","","","image-keyboard-response","121","216208","0.0-13.0-0.4-1.32","ys5k4de9dg","","ys5k4de9dg","""2024-11-12T20:30:52.871Z""","1036","materials/imgs/D95.png","arrowright","","[""materials/imgs/D79.png"",""materials/imgs/D29.png""]","false","random","","",""
"","","","","","html-keyboard-response","122","216709","0.0-13.0-0.4-0.33","ys5k4de9dg","","ys5k4de9dg","""2024-11-12T20:30:52.871Z""","null","+","null","","","","","","",""
"","","","","","image-keyboard-response","123","217633","0.0-13.0-0.4-1.33","ys5k4de9dg","","ys5k4de9dg","""2024-11-12T20:30:52.871Z""","923","materials/imgs/D55.png","arrowright","","[""materials/imgs/D8.png"",""materials/imgs/D19.png""]","false","random","","",""
"","","","","","html-keyboard-response","124","218135","0.0-13.0-0.4-0.34","ys5k4de9dg","","ys5k4de9dg","""2024-11-12T20:30:52.871Z""","null","+","null","","","","","","",""
"","","","","","image-keyboard-response","125","219048","0.0-13.0-0.4-1.34","ys5k4de9dg","","ys5k4de9dg","""2024-11-12T20:30:52.871Z""","912","materials/imgs/D29.png","arrowleft","","[""materials/imgs/D84.png"",""materials/imgs/D103.png""]","false","random","","",""
"","","","","","html-keyboard-response","126","219549","0.0-13.0-1.4-0.4","ys5k4de9dg","","ys5k4de9dg","""2024-11-12T20:30:52.871Z""","null","+","null","","","","","","",""
"","","","","","image-keyboard-response","127","220107","0.0-13.0-1.4-1.4","ys5k4de9dg","","ys5k4de9dg","""2024-11-12T20:30:52.871Z""","557","materials/imgs/D53.png","arrowright","","[""materials/imgs/D64.png"",""materials/imgs/D53.png""]","","check","materials/imgs/D53.png","1","true"
"","","","","","html-keyboard-response","128","220608","0.0-13.0-2.4-0.8","ys5k4de9dg","","ys5k4de9dg","""2024-11-12T20:30:52.871Z""","null","+","null","","","","","","",""
"","","","","","image-keyboard-response","129","221317","0.0-13.0-2.4-1.8","ys5k4de9dg","","ys5k4de9dg","""2024-11-12T20:30:52.871Z""","708","materials/imgs/D16.png","arrowleft","","[""materials/imgs/D52.png"",""materials/imgs/D25.png""]","false","validation","","",""
"","","","","","html-keyboard-response","130","221819","0.0-13.0-2.4-0.9","ys5k4de9dg","","ys5k4de9dg","""2024-11-12T20:30:52.871Z""","null","+","null","","","","","","",""
"","","","","","image-keyboard-response","131","222510","0.0-13.0-2.4-1.9","ys5k4de9dg","","ys5k4de9dg","""2024-11-12T20:30:52.871Z""","689","materials/imgs/D19.png","arrowright","","[""materials/imgs/D111.png"",""materials/imgs/D56.png""]","false","validation","","",""
"","","","","","html-button-response","132","224881","0.0-14.0","ys5k4de9dg","","ys5k4de9dg","""2024-11-12T20:30:52.871Z""","2369","You have completed 25% of the trials. Please click 'Continue' when you are ready proceed.","0","","","","","","",""
"","","","","","html-keyboard-response","133","225383","0.0-15.0-0.0-0.0","ys5k4de9dg","","ys5k4de9dg","""2024-11-12T20:30:52.871Z""","null","+","null","","","","","","",""
"","","","","","image-keyboard-response","134","226276","0.0-15.0-0.0-1.0","ys5k4de9dg","","ys5k4de9dg","""2024-11-12T20:30:52.871Z""","891","materials/imgs/D87.png","arrowright","","[""materials/imgs/D26.png"",""materials/imgs/D103.png""]","false","random","","",""
"","","","","","html-keyboard-response","135","226777","0.0-15.0-0.0-0.1","ys5k4de9dg","","ys5k4de9dg","""2024-11-12T20:30:52.871Z""","null","+","null","","","","","","",""
"","","","","","image-keyboard-response","136","227356","0.0-15.0-0.0-1.1","ys5k4de9dg","","ys5k4de9dg","""2024-11-12T20:30:52.871Z""","577","materials/imgs/D83.png","arrowright","","[""materials/imgs/D102.png"",""materials/imgs/D24.png""]","false","random","","",""
"","","","","","html-keyboard-response","137","227857","0.0-15.0-0.0-0.2","ys5k4de9dg","","ys5k4de9dg","""2024-11-12T20:30:52.871Z""","null","+","null","","","","","","",""
"","","","","","image-keyboard-response","138","230508","0.0-15.0-0.0-1.2","ys5k4de9dg","","ys5k4de9dg","""2024-11-12T20:30:52.871Z""","2649","materials/imgs/D95.png","arrowright","","[""materials/imgs/D84.png"",""materials/imgs/D29.png""]","false","random","","",""
"","","","","","html-keyboard-response","139","231009","0.0-15.0-0.0-0.3","ys5k4de9dg","","ys5k4de9dg","""2024-11-12T20:30:52.871Z""","null","+","null","","","","","","",""
"","","","","","image-keyboard-response","140","232122","0.0-15.0-0.0-1.3","ys5k4de9dg","","ys5k4de9dg","""2024-11-12T20:30:52.871Z""","1112","materials/imgs/D32.png","arrowright","","[""materials/imgs/D74.png"",""materials/imgs/D106.png""]","false","random","","",""
"","","","","","html-keyboard-response","141","232624","0.0-15.0-0.0-0.4","ys5k4de9dg","","ys5k4de9dg","""2024-11-12T20:30:52.871Z""","null","+","null","","","","","","",""
"","","","","","image-keyboard-response","142","233686","0.0-15.0-0.0-1.4","ys5k4de9dg","","ys5k4de9dg","""2024-11-12T20:30:52.871Z""","1060","materials/imgs/D74.png","arrowright","","[""materials/imgs/D21.png"",""materials/imgs/D8.png""]","false","random","","",""
"","","","","","html-keyboard-response","143","234187","0.0-15.0-0.0-0.5","ys5k4de9dg","","ys5k4de9dg","""2024-11-12T20:30:52.871Z""","null","+","null","","","","","","",""
"","","","","","image-keyboard-response","144","234885","0.0-15.0-0.0-1.5","ys5k4de9dg","","ys5k4de9dg","""2024-11-12T20:30:52.871Z""","696","materials/imgs/D56.png","arrowright","","[""materials/imgs/D55.png"",""materials/imgs/D74.png""]","false","random","","",""
"","","","","","html-keyboard-response","145","235386","0.0-15.0-0.0-0.6","ys5k4de9dg","","ys5k4de9dg","""2024-11-12T20:30:52.871Z""","null","+","null","","","","","","",""
"","","","","","image-keyboard-response","146","237127","0.0-15.0-0.0-1.6","ys5k4de9dg","","ys5k4de9dg","""2024-11-12T20:30:52.871Z""","1739","materials/imgs/D47.png","arrowleft","","[""materials/imgs/D1.png"",""materials/imgs/D84.png""]","false","random","","",""
"","","","","","html-keyboard-response","147","237629","0.0-15.0-1.0-0.0","ys5k4de9dg","","ys5k4de9dg","""2024-11-12T20:30:52.871Z""","null","+","null","","","","","","",""
"","","","","","image-keyboard-response","148","238291","0.0-15.0-1.0-1.0","ys5k4de9dg","","ys5k4de9dg","""2024-11-12T20:30:52.871Z""","661","materials/imgs/D46.png","arrowleft","","[""materials/imgs/D46.png"",""materials/imgs/D26.png""]","","check","materials/imgs/D46.png","0","true"
"","","","","","html-keyboard-response","149","238793","0.0-15.0-2.0-0.0","ys5k4de9dg","","ys5k4de9dg","""2024-11-12T20:30:52.871Z""","null","+","null","","","","","","",""
"","","","","","image-keyboard-response","150","239675","0.0-15.0-2.0-1.0","ys5k4de9dg","","ys5k4de9dg","""2024-11-12T20:30:52.871Z""","880","materials/imgs/D6.png","arrowright","","[""materials/imgs/D26.png"",""materials/imgs/D76.png""]","false","validation","","",""
"","","","","","html-keyboard-response","151","240176","0.0-15.0-2.0-0.1","ys5k4de9dg","","ys5k4de9dg","""2024-11-12T20:30:52.871Z""","null","+","null","","","","","","",""
"","","","","","image-keyboard-response","152","240733","0.0-15.0-2.0-1.1","ys5k4de9dg","","ys5k4de9dg","""2024-11-12T20:30:52.871Z""","556","materials/imgs/D22.png","arrowleft","","[""materials/imgs/D4.png"",""materials/imgs/D25.png""]","false","validation","","",""
"","","","","","html-keyboard-response","153","241234","0.0-15.0-0.1-0.7","ys5k4de9dg","","ys5k4de9dg","""2024-11-12T20:30:52.871Z""","null","+","null","","","","","","",""
"","","","","","image-keyboard-response","154","241847","0.0-15.0-0.1-1.7","ys5k4de9dg","","ys5k4de9dg","""2024-11-12T20:30:52.871Z""","612","materials/imgs/D53.png","arrowleft","","[""materials/imgs/D36.png"",""materials/imgs/D87.png""]","false","random","","",""
"","","","","","html-keyboard-response","155","242349","0.0-15.0-0.1-0.8","ys5k4de9dg","","ys5k4de9dg","""2024-11-12T20:30:52.871Z""","null","+","null","","","","","","",""
"","","","","","image-keyboard-response","156","243164","0.0-15.0-0.1-1.8","ys5k4de9dg","","ys5k4de9dg","""2024-11-12T20:30:52.871Z""","813","materials/imgs/D65.png","arrowleft","","[""materials/imgs/D94.png"",""materials/imgs/D53.png""]","false","random","","",""
"","","","","","html-keyboard-response","157","243664","0.0-15.0-0.1-0.9","ys5k4de9dg","","ys5k4de9dg","""2024-11-12T20:30:52.871Z""","null","+","null","","","","","","",""
"","","","","","image-keyboard-response","158","245308","0.0-15.0-0.1-1.9","ys5k4de9dg","","ys5k4de9dg","""2024-11-12T20:30:52.871Z""","1642","materials/imgs/D46.png","arrowright","","[""materials/imgs/D68.png"",""materials/imgs/D21.png""]","false","random","","",""
"","","","","","html-keyboard-response","159","245810","0.0-15.0-0.1-0.10","ys5k4de9dg","","ys5k4de9dg","""2024-11-12T20:30:52.871Z""","null","+","null","","","","","","",""
"","","","","","image-keyboard-response","160","246553","0.0-15.0-0.1-1.10","ys5k4de9dg","","ys5k4de9dg","""2024-11-12T20:30:52.871Z""","742","materials/imgs/D101.png","arrowleft","","[""materials/imgs/D55.png"",""materials/imgs/D85.png""]","false","random","","",""
"","","","","","html-keyboard-response","161","247055","0.0-15.0-0.1-0.11","ys5k4de9dg","","ys5k4de9dg","""2024-11-12T20:30:52.871Z""","null","+","null","","","","","","",""
"","","","","","image-keyboard-response","162","247834","0.0-15.0-0.1-1.11","ys5k4de9dg","","ys5k4de9dg","""2024-11-12T20:30:52.871Z""","778","materials/imgs/D74.png","arrowleft","","[""materials/imgs/D1.png"",""materials/imgs/D102.png""]","false","random","","",""
"","","","","","html-keyboard-response","163","248336","0.0-15.0-0.1-0.12","ys5k4de9dg","","ys5k4de9dg","""2024-11-12T20:30:52.871Z""","null","+","null","","","","","","",""
"","","","","","image-keyboard-response","164","249289","0.0-15.0-0.1-1.12","ys5k4de9dg","","ys5k4de9dg","""2024-11-12T20:30:52.871Z""","953","materials/imgs/D6.png","arrowright","","[""materials/imgs/D11.png"",""materials/imgs/D56.png""]","false","random","","",""
"","","","","","html-keyboard-response","165","249790","0.0-15.0-0.1-0.13","ys5k4de9dg","","ys5k4de9dg","""2024-11-12T20:30:52.871Z""","null","+","null","","","","","","",""
"","","","","","image-keyboard-response","166","250630","0.0-15.0-0.1-1.13","ys5k4de9dg","","ys5k4de9dg","""2024-11-12T20:30:52.871Z""","839","materials/imgs/D26.png","arrowleft","","[""materials/imgs/D66.png"",""materials/imgs/D111.png""]","false","random","","",""
"","","","","","html-keyboard-response","167","251131","0.0-15.0-1.1-0.1","ys5k4de9dg","","ys5k4de9dg","""2024-11-12T20:30:52.871Z""","null","+","null","","","","","","",""
"","","","","","image-keyboard-response","168","251686","0.0-15.0-1.1-1.1","ys5k4de9dg","","ys5k4de9dg","""2024-11-12T20:30:52.871Z""","553","materials/imgs/D76.png","arrowleft","","[""materials/imgs/D76.png"",""materials/imgs/D78.png""]","","check","materials/imgs/D76.png","0","true"
"","","","","","html-keyboard-response","169","252187","0.0-15.0-2.1-0.2","ys5k4de9dg","","ys5k4de9dg","""2024-11-12T20:30:52.871Z""","null","+","null","","","","","","",""
"","","","","","image-keyboard-response","170","253356","0.0-15.0-2.1-1.2","ys5k4de9dg","","ys5k4de9dg","""2024-11-12T20:30:52.871Z""","1168","materials/imgs/D75.png","arrowleft","","[""materials/imgs/D96.png"",""materials/imgs/D4.png""]","false","validation","","",""
"","","","","","html-keyboard-response","171","253858","0.0-15.0-2.1-0.3","ys5k4de9dg","","ys5k4de9dg","""2024-11-12T20:30:52.871Z""","null","+","null","","","","","","",""
"","","","","","image-keyboard-response","172","254565","0.0-15.0-2.1-1.3","ys5k4de9dg","","ys5k4de9dg","""2024-11-12T20:30:52.871Z""","706","materials/imgs/D8.png","arrowleft","","[""materials/imgs/D101.png"",""materials/imgs/D52.png""]","false","validation","","",""
"","","","","","html-keyboard-response","173","255066","0.0-15.0-0.2-0.14","ys5k4de9dg","","ys5k4de9dg","""2024-11-12T20:30:52.871Z""","null","+","null","","","","","","",""
"","","","","","image-keyboard-response","174","256232","0.0-15.0-0.2-1.14","ys5k4de9dg","","ys5k4de9dg","""2024-11-12T20:30:52.871Z""","1163","materials/imgs/D101.png","arrowleft","","[""materials/imgs/D24.png"",""materials/imgs/D25.png""]","false","random","","",""
"","","","","","html-keyboard-response","175","256733","0.0-15.0-0.2-0.15","ys5k4de9dg","","ys5k4de9dg","""2024-11-12T20:30:52.871Z""","null","+","null","","","","","","",""
"","","","","","image-keyboard-response","176","257370","0.0-15.0-0.2-1.15","ys5k4de9dg","","ys5k4de9dg","""2024-11-12T20:30:52.871Z""","635","materials/imgs/D32.png","arrowleft","","[""materials/imgs/D17.png"",""materials/imgs/D47.png""]","false","random","","",""
"","","","","","html-keyboard-response","177","257872","0.0-15.0-0.2-0.16","ys5k4de9dg","","ys5k4de9dg","""2024-11-12T20:30:52.871Z""","null","+","null","","","","","","",""
"","","","","","image-keyboard-response","178","258629","0.0-15.0-0.2-1.16","ys5k4de9dg","","ys5k4de9dg","""2024-11-12T20:30:52.871Z""","756","materials/imgs/D46.png","arrowright","","[""materials/imgs/D49.png"",""materials/imgs/D104.png""]","false","random","","",""
"","","","","","html-keyboard-response","179","259131","0.0-15.0-0.2-0.17","ys5k4de9dg","","ys5k4de9dg","""2024-11-12T20:30:52.871Z""","null","+","null","","","","","","",""
"","","","","","image-keyboard-response","180","260478","0.0-15.0-0.2-1.17","ys5k4de9dg","","ys5k4de9dg","""2024-11-12T20:30:52.871Z""","1346","materials/imgs/D26.png","arrowleft","","[""materials/imgs/D64.png"",""materials/imgs/D104.png""]","false","random","","",""
"","","","","","html-keyboard-response","181","260979","0.0-15.0-0.2-0.18","ys5k4de9dg","","ys5k4de9dg","""2024-11-12T20:30:52.871Z""","null","+","null","","","","","","",""
"","","","","","image-keyboard-response","182","261811","0.0-15.0-0.2-1.18","ys5k4de9dg","","ys5k4de9dg","""2024-11-12T20:30:52.871Z""","830","materials/imgs/D21.png","arrowleft","","[""materials/imgs/D3.png"",""materials/imgs/D26.png""]","false","random","","",""
"","","","","","html-keyboard-response","183","262312","0.0-15.0-0.2-0.19","ys5k4de9dg","","ys5k4de9dg","""2024-11-12T20:30:52.871Z""","null","+","null","","","","","","",""
"","","","","","image-keyboard-response","184","263201","0.0-15.0-0.2-1.19","ys5k4de9dg","","ys5k4de9dg","""2024-11-12T20:30:52.871Z""","887","materials/imgs/D84.png","arrowright","","[""materials/imgs/D75.png"",""materials/imgs/D11.png""]","false","random","","",""
"","","","","","html-keyboard-response","185","263703","0.0-15.0-0.2-0.20","ys5k4de9dg","","ys5k4de9dg","""2024-11-12T20:30:52.871Z""","null","+","null","","","","","","",""
"","","","","","image-keyboard-response","186","264590","0.0-15.0-0.2-1.20","ys5k4de9dg","","ys5k4de9dg","""2024-11-12T20:30:52.871Z""","886","materials/imgs/D78.png","arrowleft","","[""materials/imgs/D29.png"",""materials/imgs/D25.png""]","false","random","","",""
"","","","","","html-keyboard-response","187","265091","0.0-15.0-1.2-0.2","ys5k4de9dg","","ys5k4de9dg","""2024-11-12T20:30:52.871Z""","null","+","null","","","","","","",""
"","","","","","image-keyboard-response","188","265686","0.0-15.0-1.2-1.2","ys5k4de9dg","","ys5k4de9dg","""2024-11-12T20:30:52.871Z""","593","materials/imgs/D46.png","arrowleft","","[""materials/imgs/D46.png"",""materials/imgs/D26.png""]","","check","materials/imgs/D46.png","0","true"
"","","","","","html-keyboard-response","189","266188","0.0-15.0-2.2-0.4","ys5k4de9dg","","ys5k4de9dg","""2024-11-12T20:30:52.871Z""","null","+","null","","","","","","",""
"","","","","","image-keyboard-response","190","267072","0.0-15.0-2.2-1.4","ys5k4de9dg","","ys5k4de9dg","""2024-11-12T20:30:52.871Z""","883","materials/imgs/D37.png","arrowright","","[""materials/imgs/D84.png"",""materials/imgs/D111.png""]","false","validation","","",""
"","","","","","html-keyboard-response","191","267573","0.0-15.0-2.2-0.5","ys5k4de9dg","","ys5k4de9dg","""2024-11-12T20:30:52.871Z""","null","+","null","","","","","","",""
"","","","","","image-keyboard-response","192","268167","0.0-15.0-2.2-1.5","ys5k4de9dg","","ys5k4de9dg","""2024-11-12T20:30:52.871Z""","593","materials/imgs/D53.png","arrowleft","","[""materials/imgs/D77.png"",""materials/imgs/D75.png""]","false","validation","","",""
"","","","","","html-keyboard-response","193","268668","0.0-15.0-0.3-0.21","ys5k4de9dg","","ys5k4de9dg","""2024-11-12T20:30:52.871Z""","null","+","null","","","","","","",""
"","","","","","image-keyboard-response","194","269507","0.0-15.0-0.3-1.21","ys5k4de9dg","","ys5k4de9dg","""2024-11-12T20:30:52.871Z""","837","materials/imgs/D102.png","arrowleft","","[""materials/imgs/D1.png"",""materials/imgs/D17.png""]","false","random","","",""
"","","","","","html-keyboard-response","195","270009","0.0-15.0-0.3-0.22","ys5k4de9dg","","ys5k4de9dg","""2024-11-12T20:30:52.871Z""","null","+","null","","","","","","",""
"","","","","","image-keyboard-response","196","270833","0.0-15.0-0.3-1.22","ys5k4de9dg","","ys5k4de9dg","""2024-11-12T20:30:52.871Z""","822","materials/imgs/D104.png","arrowleft","","[""materials/imgs/D1.png"",""materials/imgs/D51.png""]","false","random","","",""
"","","","","","html-keyboard-response","197","271334","0.0-15.0-0.3-0.23","ys5k4de9dg","","ys5k4de9dg","""2024-11-12T20:30:52.871Z""","null","+","null","","","","","","",""
"","","","","","image-keyboard-response","198","271967","0.0-15.0-0.3-1.23","ys5k4de9dg","","ys5k4de9dg","""2024-11-12T20:30:52.871Z""","631","materials/imgs/D57.png","arrowleft","","[""materials/imgs/D55.png"",""materials/imgs/D17.png""]","false","random","","",""
"","","","","","html-keyboard-response","199","272468","0.0-15.0-0.3-0.24","ys5k4de9dg","","ys5k4de9dg","""2024-11-12T20:30:52.871Z""","null","+","null","","","","","","",""
"","","","","","image-keyboard-response","200","273505","0.0-15.0-0.3-1.24","ys5k4de9dg","","ys5k4de9dg","""2024-11-12T20:30:52.871Z""","1036","materials/imgs/D84.png","arrowleft","","[""materials/imgs/D36.png"",""materials/imgs/D46.png""]","false","random","","",""
"","","","","","html-keyboard-response","201","274007","0.0-15.0-0.3-0.25","ys5k4de9dg","","ys5k4de9dg","""2024-11-12T20:30:52.871Z""","null","+","null","","","","","","",""
"","","","","","image-keyboard-response","202","275047","0.0-15.0-0.3-1.25","ys5k4de9dg","","ys5k4de9dg","""2024-11-12T20:30:52.871Z""","1039","materials/imgs/D19.png","arrowright","","[""materials/imgs/D53.png"",""materials/imgs/D22.png""]","false","random","","",""
"","","","","","html-keyboard-response","203","275548","0.0-15.0-0.3-0.26","ys5k4de9dg","","ys5k4de9dg","""2024-11-12T20:30:52.871Z""","null","+","null","","","","","","",""
"","","","","","image-keyboard-response","204","276488","0.0-15.0-0.3-1.26","ys5k4de9dg","","ys5k4de9dg","""2024-11-12T20:30:52.871Z""","938","materials/imgs/D26.png","arrowright","","[""materials/imgs/D66.png"",""materials/imgs/D57.png""]","false","random","","",""
"","","","","","html-keyboard-response","205","276989","0.0-15.0-0.3-0.27","ys5k4de9dg","","ys5k4de9dg","""2024-11-12T20:30:52.871Z""","null","+","null","","","","","","",""
"","","","","","image-keyboard-response","206","277845","0.0-15.0-0.3-1.27","ys5k4de9dg","","ys5k4de9dg","""2024-11-12T20:30:52.871Z""","853","materials/imgs/D17.png","arrowright","","[""materials/imgs/D74.png"",""materials/imgs/D4.png""]","false","random","","",""
"","","","","","html-keyboard-response","207","278346","0.0-15.0-1.3-0.3","ys5k4de9dg","","ys5k4de9dg","""2024-11-12T20:30:52.871Z""","null","+","null","","","","","","",""
"","","","","","image-keyboard-response","208","278995","0.0-15.0-1.3-1.3","ys5k4de9dg","","ys5k4de9dg","""2024-11-12T20:30:52.871Z""","648","materials/imgs/D18.png","arrowright","","[""materials/imgs/D8.png"",""materials/imgs/D18.png""]","","check","materials/imgs/D18.png","1","true"
"","","","","","html-keyboard-response","209","279497","0.0-15.0-2.3-0.6","ys5k4de9dg","","ys5k4de9dg","""2024-11-12T20:30:52.871Z""","null","+","null","","","","","","",""
"","","","","","image-keyboard-response","210","280569","0.0-15.0-2.3-1.6","ys5k4de9dg","","ys5k4de9dg","""2024-11-12T20:30:52.871Z""","1072","materials/imgs/D3.png","arrowleft","","[""materials/imgs/D79.png"",""materials/imgs/D48.png""]","false","validation","","",""
"","","","","","html-keyboard-response","211","281071","0.0-15.0-2.3-0.7","ys5k4de9dg","","ys5k4de9dg","""2024-11-12T20:30:52.871Z""","null","+","null","","","","","","",""
"","","","","","image-keyboard-response","212","282169","0.0-15.0-2.3-1.7","ys5k4de9dg","","ys5k4de9dg","""2024-11-12T20:30:52.871Z""","1097","materials/imgs/D102.png","arrowright","","[""materials/imgs/D32.png"",""materials/imgs/D111.png""]","false","validation","","",""
"","","","","","html-keyboard-response","213","282670","0.0-15.0-0.4-0.28","ys5k4de9dg","","ys5k4de9dg","""2024-11-12T20:30:52.871Z""","null","+","null","","","","","","",""
"","","","","","image-keyboard-response","214","284091","0.0-15.0-0.4-1.28","ys5k4de9dg","","ys5k4de9dg","""2024-11-12T20:30:52.871Z""","1419","materials/imgs/D26.png","arrowleft","","[""materials/imgs/D74.png"",""materials/imgs/D77.png""]","false","random","","",""
"","","","","","html-keyboard-response","215","284592","0.0-15.0-0.4-0.29","ys5k4de9dg","","ys5k4de9dg","""2024-11-12T20:30:52.871Z""","null","+","null","","","","","","",""
"","","","","","image-keyboard-response","216","285468","0.0-15.0-0.4-1.29","ys5k4de9dg","","ys5k4de9dg","""2024-11-12T20:30:52.871Z""","875","materials/imgs/D19.png","arrowleft","","[""materials/imgs/D32.png"",""materials/imgs/D24.png""]","false","random","","",""
"","","","","","html-keyboard-response","217","285970","0.0-15.0-0.4-0.30","ys5k4de9dg","","ys5k4de9dg","""2024-11-12T20:30:52.871Z""","null","+","null","","","","","","",""
"","","","","","image-keyboard-response","218","286939","0.0-15.0-0.4-1.30","ys5k4de9dg","","ys5k4de9dg","""2024-11-12T20:30:52.871Z""","968","materials/imgs/D25.png","arrowleft","","[""materials/imgs/D80.png"",""materials/imgs/D92.png""]","false","random","","",""
"","","","","","html-keyboard-response","219","287440","0.0-15.0-0.4-0.31","ys5k4de9dg","","ys5k4de9dg","""2024-11-12T20:30:52.871Z""","null","+","null","","","","","","",""
"","","","","","image-keyboard-response","220","288641","0.0-15.0-0.4-1.31","ys5k4de9dg","","ys5k4de9dg","""2024-11-12T20:30:52.871Z""","1199","materials/imgs/D14.png","arrowright","","[""materials/imgs/D101.png"",""materials/imgs/D26.png""]","false","random","","",""
"","","","","","html-keyboard-response","221","289142","0.0-15.0-0.4-0.32","ys5k4de9dg","","ys5k4de9dg","""2024-11-12T20:30:52.871Z""","null","+","null","","","","","","",""
"","","","","","image-keyboard-response","222","289998","0.0-15.0-0.4-1.32","ys5k4de9dg","","ys5k4de9dg","""2024-11-12T20:30:52.871Z""","854","materials/imgs/D53.png","arrowleft","","[""materials/imgs/D83.png"",""materials/imgs/D32.png""]","false","random","","",""
"","","","","","html-keyboard-response","223","290500","0.0-15.0-0.4-0.33","ys5k4de9dg","","ys5k4de9dg","""2024-11-12T20:30:52.871Z""","null","+","null","","","","","","",""
"","","","","","image-keyboard-response","224","291134","0.0-15.0-0.4-1.33","ys5k4de9dg","","ys5k4de9dg","""2024-11-12T20:30:52.871Z""","633","materials/imgs/D24.png","arrowleft","","[""materials/imgs/D14.png"",""materials/imgs/D81.png""]","false","random","","",""
"","","","","","html-keyboard-response","225","291635","0.0-15.0-0.4-0.34","ys5k4de9dg","","ys5k4de9dg","""2024-11-12T20:30:52.871Z""","null","+","null","","","","","","",""
"","","","","","image-keyboard-response","226","292536","0.0-15.0-0.4-1.34","ys5k4de9dg","","ys5k4de9dg","""2024-11-12T20:30:52.871Z""","900","materials/imgs/D25.png","arrowright","","[""materials/imgs/D68.png"",""materials/imgs/D77.png""]","false","random","","",""
"","","","","","html-keyboard-response","227","293037","0.0-15.0-1.4-0.4","ys5k4de9dg","","ys5k4de9dg","""2024-11-12T20:30:52.871Z""","null","+","null","","","","","","",""
"","","","","","image-keyboard-response","228","293726","0.0-15.0-1.4-1.4","ys5k4de9dg","","ys5k4de9dg","""2024-11-12T20:30:52.871Z""","688","materials/imgs/D101.png","arrowright","","[""materials/imgs/D106.png"",""materials/imgs/D101.png""]","","check","materials/imgs/D101.png","1","true"
"","","","","","html-keyboard-response","229","294228","0.0-15.0-2.4-0.8","ys5k4de9dg","","ys5k4de9dg","""2024-11-12T20:30:52.871Z""","null","+","null","","","","","","",""
"","","","","","image-keyboard-response","230","294849","0.0-15.0-2.4-1.8","ys5k4de9dg","","ys5k4de9dg","""2024-11-12T20:30:52.871Z""","620","materials/imgs/D11.png","arrowleft","","[""materials/imgs/D83.png"",""materials/imgs/D48.png""]","false","validation","","",""
"","","","","","html-keyboard-response","231","295350","0.0-15.0-2.4-0.9","ys5k4de9dg","","ys5k4de9dg","""2024-11-12T20:30:52.871Z""","null","+","null","","","","","","",""
"","","","","","image-keyboard-response","232","296787","0.0-15.0-2.4-1.9","ys5k4de9dg","","ys5k4de9dg","""2024-11-12T20:30:52.871Z""","1436","materials/imgs/D26.png","arrowleft","","[""materials/imgs/D36.png"",""materials/imgs/D92.png""]","false","validation","","",""
"","","","","","html-button-response","233","298048","0.0-16.0","ys5k4de9dg","","ys5k4de9dg","""2024-11-12T20:30:52.871Z""","1259","You have completed 50% of the trials. Please click 'Continue' when you are ready proceed.","0","","","","","","",""
"","","","","","html-keyboard-response","234","298550","0.0-17.0-0.0-0.0","ys5k4de9dg","","ys5k4de9dg","""2024-11-12T20:30:52.871Z""","null","+","null","","","","","","",""
"","","","","","image-keyboard-response","235","299270","0.0-17.0-0.0-1.0","ys5k4de9dg","","ys5k4de9dg","""2024-11-12T20:30:52.871Z""","719","materials/imgs/D35.png","arrowright","","[""materials/imgs/D105.png"",""materials/imgs/D20.png""]","false","random","","",""
"","","","","","html-keyboard-response","236","299772","0.0-17.0-0.0-0.1","ys5k4de9dg","","ys5k4de9dg","""2024-11-12T20:30:52.871Z""","null","+","null","","","","","","",""
"","","","","","image-keyboard-response","237","300823","0.0-17.0-0.0-1.1","ys5k4de9dg","","ys5k4de9dg","""2024-11-12T20:30:52.871Z""","1049","materials/imgs/D83.png","arrowleft","","[""materials/imgs/D78.png"",""materials/imgs/D46.png""]","false","random","","",""
"","","","","","html-keyboard-response","238","301325","0.0-17.0-0.0-0.2","ys5k4de9dg","","ys5k4de9dg","""2024-11-12T20:30:52.871Z""","null","+","null","","","","","","",""
"","","","","","image-keyboard-response","239","301913","0.0-17.0-0.0-1.2","ys5k4de9dg","","ys5k4de9dg","""2024-11-12T20:30:52.871Z""","586","materials/imgs/D105.png","arrowleft","","[""materials/imgs/D78.png"",""materials/imgs/D103.png""]","false","random","","",""
"","","","","","html-keyboard-response","240","302414","0.0-17.0-0.0-0.3","ys5k4de9dg","","ys5k4de9dg","""2024-11-12T20:30:52.871Z""","null","+","null","","","","","","",""
"","","","","","image-keyboard-response","241","303239","0.0-17.0-0.0-1.3","ys5k4de9dg","","ys5k4de9dg","""2024-11-12T20:30:52.871Z""","824","materials/imgs/D96.png","arrowleft","","[""materials/imgs/D18.png"",""materials/imgs/D29.png""]","false","random","","",""
"","","","","","html-keyboard-response","242","303741","0.0-17.0-0.0-0.4","ys5k4de9dg","","ys5k4de9dg","""2024-11-12T20:30:52.871Z""","null","+","null","","","","","","",""
"","","","","","image-keyboard-response","243","304468","0.0-17.0-0.0-1.4","ys5k4de9dg","","ys5k4de9dg","""2024-11-12T20:30:52.871Z""","726","materials/imgs/D85.png","arrowleft","","[""materials/imgs/D64.png"",""materials/imgs/D25.png""]","false","random","","",""
"","","","","","html-keyboard-response","244","304970","0.0-17.0-0.0-0.5","ys5k4de9dg","","ys5k4de9dg","""2024-11-12T20:30:52.871Z""","null","+","null","","","","","","",""
"","","","","","image-keyboard-response","245","305668","0.0-17.0-0.0-1.5","ys5k4de9dg","","ys5k4de9dg","""2024-11-12T20:30:52.871Z""","696","materials/imgs/D29.png","arrowright","","[""materials/imgs/D75.png"",""materials/imgs/D79.png""]","false","random","","",""
"","","","","","html-keyboard-response","246","306169","0.0-17.0-0.0-0.6","ys5k4de9dg","","ys5k4de9dg","""2024-11-12T20:30:52.871Z""","null","+","null","","","","","","",""
"","","","","","image-keyboard-response","247","306865","0.0-17.0-0.0-1.6","ys5k4de9dg","","ys5k4de9dg","""2024-11-12T20:30:52.871Z""","694","materials/imgs/D22.png","arrowleft","","[""materials/imgs/D111.png"",""materials/imgs/D75.png""]","false","random","","",""
"","","","","","html-keyboard-response","248","307366","0.0-17.0-1.0-0.0","ys5k4de9dg","","ys5k4de9dg","""2024-11-12T20:30:52.871Z""","null","+","null","","","","","","",""
"","","","","","image-keyboard-response","249","307922","0.0-17.0-1.0-1.0","ys5k4de9dg","","ys5k4de9dg","""2024-11-12T20:30:52.871Z""","555","materials/imgs/D101.png","arrowright","","[""materials/imgs/D106.png"",""materials/imgs/D101.png""]","","check","materials/imgs/D101.png","1","true"
"","","","","","html-keyboard-response","250","308424","0.0-17.0-2.0-0.0","ys5k4de9dg","","ys5k4de9dg","""2024-11-12T20:30:52.871Z""","null","+","null","","","","","","",""
"","","","","","image-keyboard-response","251","309120","0.0-17.0-2.0-1.0","ys5k4de9dg","","ys5k4de9dg","""2024-11-12T20:30:52.871Z""","695","materials/imgs/D95.png","arrowright","","[""materials/imgs/D36.png"",""materials/imgs/D4.png""]","false","validation","","",""
"","","","","","html-keyboard-response","252","309622","0.0-17.0-2.0-0.1","ys5k4de9dg","","ys5k4de9dg","""2024-11-12T20:30:52.871Z""","null","+","null","","","","","","",""
"","","","","","image-keyboard-response","253","310318","0.0-17.0-2.0-1.1","ys5k4de9dg","","ys5k4de9dg","""2024-11-12T20:30:52.871Z""","695","materials/imgs/D52.png","arrowright","","[""materials/imgs/D9.png"",""materials/imgs/D19.png""]","false","validation","","",""
"","","","","","html-keyboard-response","254","310819","0.0-17.0-0.1-0.7","ys5k4de9dg","","ys5k4de9dg","""2024-11-12T20:30:52.871Z""","null","+","null","","","","","","",""
"","","","","","image-keyboard-response","255","311589","0.0-17.0-0.1-1.7","ys5k4de9dg","","ys5k4de9dg","""2024-11-12T20:30:52.871Z""","768","materials/imgs/D64.png","arrowleft","","[""materials/imgs/D22.png"",""materials/imgs/D85.png""]","false","random","","",""
"","","","","","html-keyboard-response","256","312090","0.0-17.0-0.1-0.8","ys5k4de9dg","","ys5k4de9dg","""2024-11-12T20:30:52.871Z""","null","+","null","","","","","","",""
"","","","","","image-keyboard-response","257","312619","0.0-17.0-0.1-1.8","ys5k4de9dg","","ys5k4de9dg","""2024-11-12T20:30:52.871Z""","527","materials/imgs/D106.png","arrowleft","","[""materials/imgs/D105.png"",""materials/imgs/D26.png""]","false","random","","",""
"","","","","","html-keyboard-response","258","313121","0.0-17.0-0.1-0.9","ys5k4de9dg","","ys5k4de9dg","""2024-11-12T20:30:52.871Z""","null","+","null","","","","","","",""
"","","","","","image-keyboard-response","259","313960","0.0-17.0-0.1-1.9","ys5k4de9dg","","ys5k4de9dg","""2024-11-12T20:30:52.871Z""","837","materials/imgs/D87.png","arrowleft","","[""materials/imgs/D34.png"",""materials/imgs/D46.png""]","false","random","","",""
"","","","","","html-keyboard-response","260","314462","0.0-17.0-0.1-0.10","ys5k4de9dg","","ys5k4de9dg","""2024-11-12T20:30:52.871Z""","null","+","null","","","","","","",""
"","","","","","image-keyboard-response","261","315104","0.0-17.0-0.1-1.10","ys5k4de9dg","","ys5k4de9dg","""2024-11-12T20:30:52.871Z""","641","materials/imgs/D3.png","arrowright","","[""materials/imgs/D53.png"",""materials/imgs/D52.png""]","false","random","","",""
"","","","","","html-keyboard-response","262","315606","0.0-17.0-0.1-0.11","ys5k4de9dg","","ys5k4de9dg","""2024-11-12T20:30:52.871Z""","null","+","null","","","","","","",""
"","","","","","image-keyboard-response","263","316289","0.0-17.0-0.1-1.11","ys5k4de9dg","","ys5k4de9dg","""2024-11-12T20:30:52.871Z""","681","materials/imgs/D66.png","arrowright","","[""materials/imgs/D48.png"",""materials/imgs/D8.png""]","false","random","","",""
"","","","","","html-keyboard-response","264","316790","0.0-17.0-0.1-0.12","ys5k4de9dg","","ys5k4de9dg","""2024-11-12T20:30:52.871Z""","null","+","null","","","","","","",""
"","","","","","image-keyboard-response","265","317587","0.0-17.0-0.1-1.12","ys5k4de9dg","","ys5k4de9dg","""2024-11-12T20:30:52.871Z""","795","materials/imgs/D3.png","arrowleft","","[""materials/imgs/D76.png"",""materials/imgs/D102.png""]","false","random","","",""
"","","","","","html-keyboard-response","266","318088","0.0-17.0-0.1-0.13","ys5k4de9dg","","ys5k4de9dg","""2024-11-12T20:30:52.871Z""","null","+","null","","","","","","",""
"","","","","","image-keyboard-response","267","318709","0.0-17.0-0.1-1.13","ys5k4de9dg","","ys5k4de9dg","""2024-11-12T20:30:52.871Z""","619","materials/imgs/D3.png","arrowleft","","[""materials/imgs/D11.png"",""materials/imgs/D8.png""]","false","random","","",""
"","","","","","html-keyboard-response","268","319211","0.0-17.0-1.1-0.1","ys5k4de9dg","","ys5k4de9dg","""2024-11-12T20:30:52.871Z""","null","+","null","","","","","","",""
"","","","","","image-keyboard-response","269","319742","0.0-17.0-1.1-1.1","ys5k4de9dg","","ys5k4de9dg","""2024-11-12T20:30:52.871Z""","531","materials/imgs/D46.png","arrowleft","","[""materials/imgs/D46.png"",""materials/imgs/D26.png""]","","check","materials/imgs/D46.png","0","true"
"","","","","","html-keyboard-response","270","320243","0.0-17.0-2.1-0.2","ys5k4de9dg","","ys5k4de9dg","""2024-11-12T20:30:52.871Z""","null","+","null","","","","","","",""
"","","","","","image-keyboard-response","271","321113","0.0-17.0-2.1-1.2","ys5k4de9dg","","ys5k4de9dg","""2024-11-12T20:30:52.871Z""","868","materials/imgs/D81.png","arrowright","","[""materials/imgs/D105.png"",""materials/imgs/D24.png""]","false","validation","","",""
"","","","","","html-keyboard-response","272","321614","0.0-17.0-2.1-0.3","ys5k4de9dg","","ys5k4de9dg","""2024-11-12T20:30:52.871Z""","null","+","null","","","","","","",""
"","","","","","image-keyboard-response","273","322440","0.0-17.0-2.1-1.3","ys5k4de9dg","","ys5k4de9dg","""2024-11-12T20:30:52.871Z""","824","materials/imgs/D49.png","arrowright","","[""materials/imgs/D8.png"",""materials/imgs/D101.png""]","false","validation","","",""
"","","","","","html-keyboard-response","274","322941","0.0-17.0-0.2-0.14","ys5k4de9dg","","ys5k4de9dg","""2024-11-12T20:30:52.871Z""","null","+","null","","","","","","",""
"","","","","","image-keyboard-response","275","323465","0.0-17.0-0.2-1.14","ys5k4de9dg","","ys5k4de9dg","""2024-11-12T20:30:52.871Z""","523","materials/imgs/D78.png","arrowleft","","[""materials/imgs/D106.png"",""materials/imgs/D21.png""]","false","random","","",""
"","","","","","html-keyboard-response","276","323966","0.0-17.0-0.2-0.15","ys5k4de9dg","","ys5k4de9dg","""2024-11-12T20:30:52.871Z""","null","+","null","","","","","","",""
"","","","","","image-keyboard-response","277","324763","0.0-17.0-0.2-1.15","ys5k4de9dg","","ys5k4de9dg","""2024-11-12T20:30:52.871Z""","795","materials/imgs/D26.png","arrowright","","[""materials/imgs/D75.png"",""materials/imgs/D17.png""]","false","random","","",""
"","","","","","html-keyboard-response","278","325264","0.0-17.0-0.2-0.16","ys5k4de9dg","","ys5k4de9dg","""2024-11-12T20:30:52.871Z""","null","+","null","","","","","","",""
"","","","","","image-keyboard-response","279","327362","0.0-17.0-0.2-1.16","ys5k4de9dg","","ys5k4de9dg","""2024-11-12T20:30:52.871Z""","2096","materials/imgs/D82.png","arrowright","","[""materials/imgs/D6.png"",""materials/imgs/D29.png""]","false","random","","",""
"","","","","","html-keyboard-response","280","327863","0.0-17.0-0.2-0.17","ys5k4de9dg","","ys5k4de9dg","""2024-11-12T20:30:52.871Z""","null","+","null","","","","","","",""
"","","","","","image-keyboard-response","281","328765","0.0-17.0-0.2-1.17","ys5k4de9dg","","ys5k4de9dg","""2024-11-12T20:30:52.871Z""","901","materials/imgs/D48.png","arrowright","","[""materials/imgs/D18.png"",""materials/imgs/D78.png""]","false","random","","",""
"","","","","","html-keyboard-response","282","329266","0.0-17.0-0.2-0.18","ys5k4de9dg","","ys5k4de9dg","""2024-11-12T20:30:52.871Z""","null","+","null","","","","","","",""
"","","","","","image-keyboard-response","283","329864","0.0-17.0-0.2-1.18","ys5k4de9dg","","ys5k4de9dg","""2024-11-12T20:30:52.871Z""","597","materials/imgs/D16.png","arrowleft","","[""materials/imgs/D49.png"",""materials/imgs/D9.png""]","false","random","","",""
"","","","","","html-keyboard-response","284","330365","0.0-17.0-0.2-0.19","ys5k4de9dg","","ys5k4de9dg","""2024-11-12T20:30:52.871Z""","null","+","null","","","","","","",""
"","","","","","image-keyboard-response","285","330842","0.0-17.0-0.2-1.19","ys5k4de9dg","","ys5k4de9dg","""2024-11-12T20:30:52.871Z""","476","materials/imgs/D19.png","arrowright","","[""materials/imgs/D101.png"",""materials/imgs/D4.png""]","true","random","","",""
"","","","","","html-keyboard-response","286","335855","0.0-17.0-0.2-2.19-0.19","ys5k4de9dg","","ys5k4de9dg","""2024-11-12T20:30:52.871Z""","5011","<p><strong>You're going too fast.</strong><p>Please slow down and assess each triplet.<p>Press 'y' to continue.</p></p>","y","","","","","","",""
"","","","","","html-keyboard-response","287","336356","0.0-17.0-0.2-0.20","ys5k4de9dg","","ys5k4de9dg","""2024-11-12T20:30:52.871Z""","null","+","null","","","","","","",""
"","","","","","image-keyboard-response","288","337455","0.0-17.0-0.2-1.20","ys5k4de9dg","","ys5k4de9dg","""2024-11-12T20:30:52.871Z""","1098","materials/imgs/D14.png","arrowright","","[""materials/imgs/D68.png"",""materials/imgs/D65.png""]","false","random","","",""
"","","","","","html-keyboard-response","289","337957","0.0-17.0-1.2-0.2","ys5k4de9dg","","ys5k4de9dg","""2024-11-12T20:30:52.871Z""","null","+","null","","","","","","",""
"","","","","","image-keyboard-response","290","339128","0.0-17.0-1.2-1.2","ys5k4de9dg","","ys5k4de9dg","""2024-11-12T20:30:52.871Z""","1170","materials/imgs/D101.png","arrowright","","[""materials/imgs/D106.png"",""materials/imgs/D101.png""]","","check","materials/imgs/D101.png","1","true"
"","","","","","html-keyboard-response","291","339630","0.0-17.0-2.2-0.4","ys5k4de9dg","","ys5k4de9dg","""2024-11-12T20:30:52.871Z""","null","+","null","","","","","","",""
"","","","","","image-keyboard-response","292","341254","0.0-17.0-2.2-1.4","ys5k4de9dg","","ys5k4de9dg","""2024-11-12T20:30:52.871Z""","1623","materials/imgs/D77.png","arrowright","","[""materials/imgs/D102.png"",""materials/imgs/D65.png""]","false","validation","","",""
"","","","","","html-keyboard-response","293","341755","0.0-17.0-2.2-0.5","ys5k4de9dg","","ys5k4de9dg","""2024-11-12T20:30:52.871Z""","null","+","null","","","","","","",""
"","","","","","image-keyboard-response","294","343435","0.0-17.0-2.2-1.5","ys5k4de9dg","","ys5k4de9dg","""2024-11-12T20:30:52.871Z""","1678","materials/imgs/D20.png","arrowright","","[""materials/imgs/D84.png"",""materials/imgs/D85.png""]","false","validation","","",""
"","","","","","html-keyboard-response","295","343936","0.0-17.0-0.3-0.21","ys5k4de9dg","","ys5k4de9dg","""2024-11-12T20:30:52.871Z""","null","+","null","","","","","","",""
"","","","","","image-keyboard-response","296","344667","0.0-17.0-0.3-1.21","ys5k4de9dg","","ys5k4de9dg","""2024-11-12T20:30:52.871Z""","730","materials/imgs/D19.png","arrowleft","","[""materials/imgs/D92.png"",""materials/imgs/D104.png""]","false","random","","",""
"","","","","","html-keyboard-response","297","345169","0.0-17.0-0.3-0.22","ys5k4de9dg","","ys5k4de9dg","""2024-11-12T20:30:52.871Z""","null","+","null","","","","","","",""
"","","","","","image-keyboard-response","298","346303","0.0-17.0-0.3-1.22","ys5k4de9dg","","ys5k4de9dg","""2024-11-12T20:30:52.871Z""","1132","materials/imgs/D9.png","arrowleft","","[""materials/imgs/D79.png"",""materials/imgs/D16.png""]","false","random","","",""
"","","","","","html-keyboard-response","299","346804","0.0-17.0-0.3-0.23","ys5k4de9dg","","ys5k4de9dg","""2024-11-12T20:30:52.871Z""","null","+","null","","","","","","",""
"","","","","","image-keyboard-response","300","347886","0.0-17.0-0.3-1.23","ys5k4de9dg","","ys5k4de9dg","""2024-11-12T20:30:52.871Z""","1081","materials/imgs/D82.png","arrowright","","[""materials/imgs/D77.png"",""materials/imgs/D96.png""]","false","random","","",""
"","","","","","html-keyboard-response","301","348387","0.0-17.0-0.3-0.24","ys5k4de9dg","","ys5k4de9dg","""2024-11-12T20:30:52.871Z""","null","+","null","","","","","","",""
"","","","","","image-keyboard-response","302","350921","0.0-17.0-0.3-1.24","ys5k4de9dg","","ys5k4de9dg","""2024-11-12T20:30:52.871Z""","2532","materials/imgs/D51.png","arrowleft","","[""materials/imgs/D35.png"",""materials/imgs/D24.png""]","false","random","","",""
"","","","","","html-keyboard-response","303","351422","0.0-17.0-0.3-0.25","ys5k4de9dg","","ys5k4de9dg","""2024-11-12T20:30:52.871Z""","null","+","null","","","","","","",""
"","","","","","image-keyboard-response","304","352505","0.0-17.0-0.3-1.25","ys5k4de9dg","","ys5k4de9dg","""2024-11-12T20:30:52.871Z""","1081","materials/imgs/D77.png","arrowleft","","[""materials/imgs/D9.png"",""materials/imgs/D85.png""]","false","random","","",""
"","","","","","html-keyboard-response","305","353006","0.0-17.0-0.3-0.26","ys5k4de9dg","","ys5k4de9dg","""2024-11-12T20:30:52.871Z""","null","+","null","","","","","","",""
"","","","","","image-keyboard-response","306","354245","0.0-17.0-0.3-1.26","ys5k4de9dg","","ys5k4de9dg","""2024-11-12T20:30:52.871Z""","1238","materials/imgs/D83.png","arrowright","","[""materials/imgs/D8.png"",""materials/imgs/D17.png""]","false","random","","",""
"","","","","","html-keyboard-response","307","354746","0.0-17.0-0.3-0.27","ys5k4de9dg","","ys5k4de9dg","""2024-11-12T20:30:52.871Z""","null","+","null","","","","","","",""
"","","","","","image-keyboard-response","308","356007","0.0-17.0-0.3-1.27","ys5k4de9dg","","ys5k4de9dg","""2024-11-12T20:30:52.871Z""","1259","materials/imgs/D25.png","arrowleft","","[""materials/imgs/D81.png"",""materials/imgs/D16.png""]","false","random","","",""
"","","","","","html-keyboard-response","309","356508","0.0-17.0-1.3-0.3","ys5k4de9dg","","ys5k4de9dg","""2024-11-12T20:30:52.871Z""","null","+","null","","","","","","",""
"","","","","","image-keyboard-response","310","357803","0.0-17.0-1.3-1.3","ys5k4de9dg","","ys5k4de9dg","""2024-11-12T20:30:52.871Z""","1294","materials/imgs/D106.png","arrowleft","","[""materials/imgs/D106.png"",""materials/imgs/D101.png""]","","check","materials/imgs/D106.png","0","true"
"","","","","","html-keyboard-response","311","358305","0.0-17.0-2.3-0.6","ys5k4de9dg","","ys5k4de9dg","""2024-11-12T20:30:52.871Z""","null","+","null","","","","","","",""
"","","","","","image-keyboard-response","312","359764","0.0-17.0-2.3-1.6","ys5k4de9dg","","ys5k4de9dg","""2024-11-12T20:30:52.871Z""","1457","materials/imgs/D66.png","arrowleft","","[""materials/imgs/D85.png"",""materials/imgs/D25.png""]","false","validation","","",""
"","","","","","html-keyboard-response","313","360265","0.0-17.0-2.3-0.7","ys5k4de9dg","","ys5k4de9dg","""2024-11-12T20:30:52.871Z""","null","+","null","","","","","","",""
"","","","","","image-keyboard-response","314","361291","0.0-17.0-2.3-1.7","ys5k4de9dg","","ys5k4de9dg","""2024-11-12T20:30:52.871Z""","1025","materials/imgs/D103.png","arrowleft","","[""materials/imgs/D76.png"",""materials/imgs/D106.png""]","false","validation","","",""
"","","","","","html-keyboard-response","315","361792","0.0-17.0-0.4-0.28","ys5k4de9dg","","ys5k4de9dg","""2024-11-12T20:30:52.871Z""","null","+","null","","","","","","",""
"","","","","","image-keyboard-response","316","362620","0.0-17.0-0.4-1.28","ys5k4de9dg","","ys5k4de9dg","""2024-11-12T20:30:52.871Z""","826","materials/imgs/D14.png","arrowleft","","[""materials/imgs/D103.png"",""materials/imgs/D18.png""]","false","random","","",""
"","","","","","html-keyboard-response","317","363121","0.0-17.0-0.4-0.29","ys5k4de9dg","","ys5k4de9dg","""2024-11-12T20:30:52.871Z""","null","+","null","","","","","","",""
"","","","","","image-keyboard-response","318","364545","0.0-17.0-0.4-1.29","ys5k4de9dg","","ys5k4de9dg","""2024-11-12T20:30:52.871Z""","1422","materials/imgs/D51.png","arrowleft","","[""materials/imgs/D81.png"",""materials/imgs/D6.png""]","false","random","","",""
"","","","","","html-keyboard-response","319","365046","0.0-17.0-0.4-0.30","ys5k4de9dg","","ys5k4de9dg","""2024-11-12T20:30:52.871Z""","null","+","null","","","","","","",""
"","","","","","image-keyboard-response","320","365673","0.0-17.0-0.4-1.30","ys5k4de9dg","","ys5k4de9dg","""2024-11-12T20:30:52.871Z""","626","materials/imgs/D82.png","arrowleft","","[""materials/imgs/D17.png"",""materials/imgs/D3.png""]","false","random","","",""
"","","","","","html-keyboard-response","321","366175","0.0-17.0-0.4-0.31","ys5k4de9dg","","ys5k4de9dg","""2024-11-12T20:30:52.871Z""","null","+","null","","","","","","",""
"","","","","","image-keyboard-response","322","368761","0.0-17.0-0.4-1.31","ys5k4de9dg","","ys5k4de9dg","""2024-11-12T20:30:52.871Z""","2584","materials/imgs/D25.png","arrowleft","","[""materials/imgs/D36.png"",""materials/imgs/D56.png""]","false","random","","",""
"","","","","","html-keyboard-response","323","369262","0.0-17.0-0.4-0.32","ys5k4de9dg","","ys5k4de9dg","""2024-11-12T20:30:52.871Z""","null","+","null","","","","","","",""
"","","","","","image-keyboard-response","324","370233","0.0-17.0-0.4-1.32","ys5k4de9dg","","ys5k4de9dg","""2024-11-12T20:30:52.871Z""","970","materials/imgs/D101.png","arrowleft","","[""materials/imgs/D14.png"",""materials/imgs/D57.png""]","false","random","","",""
"","","","","","html-keyboard-response","325","370734","0.0-17.0-0.4-0.33","ys5k4de9dg","","ys5k4de9dg","""2024-11-12T20:30:52.871Z""","null","+","null","","","","","","",""
"","","","","","image-keyboard-response","326","371668","0.0-17.0-0.4-1.33","ys5k4de9dg","","ys5k4de9dg","""2024-11-12T20:30:52.871Z""","933","materials/imgs/D6.png","arrowright","","[""materials/imgs/D25.png"",""materials/imgs/D55.png""]","false","random","","",""
"","","","","","html-keyboard-response","327","372170","0.0-17.0-0.4-0.34","ys5k4de9dg","","ys5k4de9dg","""2024-11-12T20:30:52.871Z""","null","+","null","","","","","","",""
"","","","","","image-keyboard-response","328","373017","0.0-17.0-0.4-1.34","ys5k4de9dg","","ys5k4de9dg","""2024-11-12T20:30:52.871Z""","846","materials/imgs/D78.png","arrowleft","","[""materials/imgs/D53.png"",""materials/imgs/D64.png""]","false","random","","",""
"","","","","","html-keyboard-response","329","373518","0.0-17.0-1.4-0.4","ys5k4de9dg","","ys5k4de9dg","""2024-11-12T20:30:52.871Z""","null","+","null","","","","","","",""
"","","","","","image-keyboard-response","330","374555","0.0-17.0-1.4-1.4","ys5k4de9dg","","ys5k4de9dg","""2024-11-12T20:30:52.871Z""","1035","materials/imgs/D46.png","arrowleft","","[""materials/imgs/D46.png"",""materials/imgs/D26.png""]","","check","materials/imgs/D46.png","0","true"
"","","","","","html-keyboard-response","331","375056","0.0-17.0-2.4-0.8","ys5k4de9dg","","ys5k4de9dg","""2024-11-12T20:30:52.871Z""","null","+","null","","","","","","",""
"","","","","","image-keyboard-response","332","375905","0.0-17.0-2.4-1.8","ys5k4de9dg","","ys5k4de9dg","""2024-11-12T20:30:52.871Z""","847","materials/imgs/D32.png","arrowleft","","[""materials/imgs/D68.png"",""materials/imgs/D96.png""]","false","validation","","",""
"","","","","","html-keyboard-response","333","376406","0.0-17.0-2.4-0.9","ys5k4de9dg","","ys5k4de9dg","""2024-11-12T20:30:52.871Z""","null","+","null","","","","","","",""
"","","","","","image-keyboard-response","334","377042","0.0-17.0-2.4-1.9","ys5k4de9dg","","ys5k4de9dg","""2024-11-12T20:30:52.871Z""","634","materials/imgs/D32.png","arrowleft","","[""materials/imgs/D68.png"",""materials/imgs/D96.png""]","false","validation","","",""
"","","","","","html-button-response","335","378913","0.0-18.0","ys5k4de9dg","","ys5k4de9dg","""2024-11-12T20:30:52.871Z""","1869","You have completed 75% of the trials. Please click 'Continue' when you are ready proceed.","0","","","","","","",""
"","","","","","html-keyboard-response","336","379414","0.0-19.0-0.0-0.0","ys5k4de9dg","","ys5k4de9dg","""2024-11-12T20:30:52.871Z""","null","+","null","","","","","","",""
"","","","","","image-keyboard-response","337","381204","0.0-19.0-0.0-1.0","ys5k4de9dg","","ys5k4de9dg","""2024-11-12T20:30:52.871Z""","1789","materials/imgs/D75.png","arrowright","","[""materials/imgs/D25.png"",""materials/imgs/D1.png""]","false","random","","",""
"","","","","","html-keyboard-response","338","381705","0.0-19.0-0.0-0.1","ys5k4de9dg","","ys5k4de9dg","""2024-11-12T20:30:52.871Z""","null","+","null","","","","","","",""
"","","","","","image-keyboard-response","339","382476","0.0-19.0-0.0-1.1","ys5k4de9dg","","ys5k4de9dg","""2024-11-12T20:30:52.871Z""","769","materials/imgs/D77.png","arrowright","","[""materials/imgs/D48.png"",""materials/imgs/D32.png""]","false","random","","",""
"","","","","","html-keyboard-response","340","382978","0.0-19.0-0.0-0.2","ys5k4de9dg","","ys5k4de9dg","""2024-11-12T20:30:52.871Z""","null","+","null","","","","","","",""
"","","","","","image-keyboard-response","341","384595","0.0-19.0-0.0-1.2","ys5k4de9dg","","ys5k4de9dg","""2024-11-12T20:30:52.871Z""","1616","materials/imgs/D95.png","arrowleft","","[""materials/imgs/D76.png"",""materials/imgs/D106.png""]","false","random","","",""
"","","","","","html-keyboard-response","342","385097","0.0-19.0-0.0-0.3","ys5k4de9dg","","ys5k4de9dg","""2024-11-12T20:30:52.871Z""","null","+","null","","","","","","",""
"","","","","","image-keyboard-response","343","385887","0.0-19.0-0.0-1.3","ys5k4de9dg","","ys5k4de9dg","""2024-11-12T20:30:52.871Z""","788","materials/imgs/D75.png","arrowleft","","[""materials/imgs/D111.png"",""materials/imgs/D78.png""]","false","random","","",""
"","","","","","html-keyboard-response","344","386388","0.0-19.0-0.0-0.4","ys5k4de9dg","","ys5k4de9dg","""2024-11-12T20:30:52.871Z""","null","+","null","","","","","","",""
"","","","","","image-keyboard-response","345","387707","0.0-19.0-0.0-1.4","ys5k4de9dg","","ys5k4de9dg","""2024-11-12T20:30:52.871Z""","1318","materials/imgs/D52.png","arrowleft","","[""materials/imgs/D53.png"",""materials/imgs/D80.png""]","false","random","","",""
"","","","","","html-keyboard-response","346","388209","0.0-19.0-0.0-0.5","ys5k4de9dg","","ys5k4de9dg","""2024-11-12T20:30:52.871Z""","null","+","null","","","","","","",""
"","","","","","image-keyboard-response","347","388926","0.0-19.0-0.0-1.5","ys5k4de9dg","","ys5k4de9dg","""2024-11-12T20:30:52.871Z""","716","materials/imgs/D47.png","arrowright","","[""materials/imgs/D57.png"",""materials/imgs/D46.png""]","false","random","","",""
"","","","","","html-keyboard-response","348","389427","0.0-19.0-0.0-0.6","ys5k4de9dg","","ys5k4de9dg","""2024-11-12T20:30:52.871Z""","null","+","null","","","","","","",""
"","","","","","image-keyboard-response","349","390185","0.0-19.0-0.0-1.6","ys5k4de9dg","","ys5k4de9dg","""2024-11-12T20:30:52.871Z""","757","materials/imgs/D68.png","arrowright","","[""materials/imgs/D56.png"",""materials/imgs/D103.png""]","false","random","","",""
"","","","","","html-keyboard-response","350","390686","0.0-19.0-1.0-0.0","ys5k4de9dg","","ys5k4de9dg","""2024-11-12T20:30:52.871Z""","null","+","null","","","","","","",""
"","","","","","image-keyboard-response","351","391186","0.0-19.0-1.0-1.0","ys5k4de9dg","","ys5k4de9dg","""2024-11-12T20:30:52.871Z""","497","materials/imgs/D78.png","arrowright","","[""materials/imgs/D76.png"",""materials/imgs/D78.png""]","","check","materials/imgs/D78.png","1","true"
"","","","","","html-keyboard-response","352","391688","0.0-19.0-2.0-0.0","ys5k4de9dg","","ys5k4de9dg","""2024-11-12T20:30:52.871Z""","null","+","null","","","","","","",""
"","","","","","image-keyboard-response","353","392991","0.0-19.0-2.0-1.0","ys5k4de9dg","","ys5k4de9dg","""2024-11-12T20:30:52.871Z""","1303","materials/imgs/D65.png","arrowleft","","[""materials/imgs/D4.png"",""materials/imgs/D16.png""]","false","validation","","",""
"","","","","","html-keyboard-response","354","393493","0.0-19.0-2.0-0.1","ys5k4de9dg","","ys5k4de9dg","""2024-11-12T20:30:52.871Z""","null","+","null","","","","","","",""
"","","","","","image-keyboard-response","355","394827","0.0-19.0-2.0-1.1","ys5k4de9dg","","ys5k4de9dg","""2024-11-12T20:30:52.871Z""","1333","materials/imgs/D49.png","arrowleft","","[""materials/imgs/D8.png"",""materials/imgs/D101.png""]","false","validation","","",""
"","","","","","html-keyboard-response","356","395328","0.0-19.0-0.1-0.7","ys5k4de9dg","","ys5k4de9dg","""2024-11-12T20:30:52.871Z""","null","+","null","","","","","","",""
"","","","","","image-keyboard-response","357","396089","0.0-19.0-0.1-1.7","ys5k4de9dg","","ys5k4de9dg","""2024-11-12T20:30:52.871Z""","759","materials/imgs/D64.png","arrowleft","","[""materials/imgs/D78.png"",""materials/imgs/D77.png""]","false","random","","",""
"","","","","","html-keyboard-response","358","396591","0.0-19.0-0.1-0.8","ys5k4de9dg","","ys5k4de9dg","""2024-11-12T20:30:52.871Z""","null","+","null","","","","","","",""
"","","","","","image-keyboard-response","359","397213","0.0-19.0-0.1-1.8","ys5k4de9dg","","ys5k4de9dg","""2024-11-12T20:30:52.871Z""","621","materials/imgs/D51.png","arrowright","","[""materials/imgs/D96.png"",""materials/imgs/D105.png""]","false","random","","",""
"","","","","","html-keyboard-response","360","397714","0.0-19.0-0.1-0.9","ys5k4de9dg","","ys5k4de9dg","""2024-11-12T20:30:52.871Z""","null","+","null","","","","","","",""
"","","","","","image-keyboard-response","361","398733","0.0-19.0-0.1-1.9","ys5k4de9dg","","ys5k4de9dg","""2024-11-12T20:30:52.871Z""","1018","materials/imgs/D29.png","arrowright","","[""materials/imgs/D56.png"",""materials/imgs/D35.png""]","false","random","","",""
"","","","","","html-keyboard-response","362","399234","0.0-19.0-0.1-0.10","ys5k4de9dg","","ys5k4de9dg","""2024-11-12T20:30:52.871Z""","null","+","null","","","","","","",""
"","","","","","image-keyboard-response","363","401015","0.0-19.0-0.1-1.10","ys5k4de9dg","","ys5k4de9dg","""2024-11-12T20:30:52.871Z""","1780","materials/imgs/D85.png","arrowleft","","[""materials/imgs/D76.png"",""materials/imgs/D111.png""]","false","random","","",""
"","","","","","html-keyboard-response","364","401516","0.0-19.0-0.1-0.11","ys5k4de9dg","","ys5k4de9dg","""2024-11-12T20:30:52.871Z""","null","+","null","","","","","","",""
"","","","","","image-keyboard-response","365","402475","0.0-19.0-0.1-1.11","ys5k4de9dg","","ys5k4de9dg","""2024-11-12T20:30:52.871Z""","956","materials/imgs/D111.png","arrowleft","","[""materials/imgs/D84.png"",""materials/imgs/D81.png""]","false","random","","",""
"","","","","","html-keyboard-response","366","402976","0.0-19.0-0.1-0.12","ys5k4de9dg","","ys5k4de9dg","""2024-11-12T20:30:52.871Z""","null","+","null","","","","","","",""
"","","","","","image-keyboard-response","367","403686","0.0-19.0-0.1-1.12","ys5k4de9dg","","ys5k4de9dg","""2024-11-12T20:30:52.871Z""","708","materials/imgs/D8.png","arrowleft","","[""materials/imgs/D94.png"",""materials/imgs/D102.png""]","false","random","","",""
"","","","","","html-keyboard-response","368","404187","0.0-19.0-0.1-0.13","ys5k4de9dg","","ys5k4de9dg","""2024-11-12T20:30:52.871Z""","null","+","null","","","","","","",""
"","","","","","image-keyboard-response","369","405588","0.0-19.0-0.1-1.13","ys5k4de9dg","","ys5k4de9dg","""2024-11-12T20:30:52.871Z""","1400","materials/imgs/D16.png","arrowright","","[""materials/imgs/D37.png"",""materials/imgs/D35.png""]","false","random","","",""
"","","","","","html-keyboard-response","370","406089","0.0-19.0-1.1-0.1","ys5k4de9dg","","ys5k4de9dg","""2024-11-12T20:30:52.871Z""","null","+","null","","","","","","",""
"","","","","","image-keyboard-response","371","406741","0.0-19.0-1.1-1.1","ys5k4de9dg","","ys5k4de9dg","""2024-11-12T20:30:52.871Z""","651","materials/imgs/D106.png","arrowleft","","[""materials/imgs/D106.png"",""materials/imgs/D101.png""]","","check","materials/imgs/D106.png","0","true"
"","","","","","html-keyboard-response","372","407243","0.0-19.0-2.1-0.2","ys5k4de9dg","","ys5k4de9dg","""2024-11-12T20:30:52.871Z""","null","+","null","","","","","","",""
"","","","","","image-keyboard-response","373","408403","0.0-19.0-2.1-1.2","ys5k4de9dg","","ys5k4de9dg","""2024-11-12T20:30:52.871Z""","1159","materials/imgs/D1.png","arrowright","","[""materials/imgs/D57.png"",""materials/imgs/D76.png""]","false","validation","","",""
"","","","","","html-keyboard-response","374","408904","0.0-19.0-2.1-0.3","ys5k4de9dg","","ys5k4de9dg","""2024-11-12T20:30:52.871Z""","null","+","null","","","","","","",""
"","","","","","image-keyboard-response","375","409837","0.0-19.0-2.1-1.3","ys5k4de9dg","","ys5k4de9dg","""2024-11-12T20:30:52.871Z""","931","materials/imgs/D57.png","arrowright","","[""materials/imgs/D111.png"",""materials/imgs/D4.png""]","false","validation","","",""
"","","","","","html-keyboard-response","376","410338","0.0-19.0-0.2-0.14","ys5k4de9dg","","ys5k4de9dg","""2024-11-12T20:30:52.871Z""","null","+","null","","","","","","",""
"","","","","","image-keyboard-response","377","411466","0.0-19.0-0.2-1.14","ys5k4de9dg","","ys5k4de9dg","""2024-11-12T20:30:52.871Z""","1127","materials/imgs/D34.png","arrowright","","[""materials/imgs/D105.png"",""materials/imgs/D14.png""]","false","random","","",""
"","","","","","html-keyboard-response","378","411968","0.0-19.0-0.2-0.15","ys5k4de9dg","","ys5k4de9dg","""2024-11-12T20:30:52.871Z""","null","+","null","","","","","","",""
"","","","","","image-keyboard-response","379","412722","0.0-19.0-0.2-1.15","ys5k4de9dg","","ys5k4de9dg","""2024-11-12T20:30:52.871Z""","753","materials/imgs/D20.png","arrowleft","","[""materials/imgs/D24.png"",""materials/imgs/D21.png""]","false","random","","",""
"","","","","","html-keyboard-response","380","413223","0.0-19.0-0.2-0.16","ys5k4de9dg","","ys5k4de9dg","""2024-11-12T20:30:52.871Z""","null","+","null","","","","","","",""
"","","","","","image-keyboard-response","381","414026","0.0-19.0-0.2-1.16","ys5k4de9dg","","ys5k4de9dg","""2024-11-12T20:30:52.871Z""","801","materials/imgs/D111.png","arrowleft","","[""materials/imgs/D46.png"",""materials/imgs/D53.png""]","false","random","","",""
"","","","","","html-keyboard-response","382","414527","0.0-19.0-0.2-0.17","ys5k4de9dg","","ys5k4de9dg","""2024-11-12T20:30:52.871Z""","null","+","null","","","","","","",""
"","","","","","image-keyboard-response","383","415492","0.0-19.0-0.2-1.17","ys5k4de9dg","","ys5k4de9dg","""2024-11-12T20:30:52.871Z""","964","materials/imgs/D101.png","arrowright","","[""materials/imgs/D92.png"",""materials/imgs/D48.png""]","false","random","","",""
"","","","","","html-keyboard-response","384","415995","0.0-19.0-0.2-0.18","ys5k4de9dg","","ys5k4de9dg","""2024-11-12T20:30:52.871Z""","null","+","null","","","","","","",""
"","","","","","image-keyboard-response","385","417450","0.0-19.0-0.2-1.18","ys5k4de9dg","","ys5k4de9dg","""2024-11-12T20:30:52.871Z""","1454","materials/imgs/D79.png","arrowleft","","[""materials/imgs/D3.png"",""materials/imgs/D77.png""]","false","random","","",""
"","","","","","html-keyboard-response","386","417952","0.0-19.0-0.2-0.19","ys5k4de9dg","","ys5k4de9dg","""2024-11-12T20:30:52.871Z""","null","+","null","","","","","","",""
"","","","","","image-keyboard-response","387","419589","0.0-19.0-0.2-1.19","ys5k4de9dg","","ys5k4de9dg","""2024-11-12T20:30:52.871Z""","1636","materials/imgs/D52.png","arrowleft","","[""materials/imgs/D16.png"",""materials/imgs/D78.png""]","false","random","","",""
"","","","","","html-keyboard-response","388","420091","0.0-19.0-0.2-0.20","ys5k4de9dg","","ys5k4de9dg","""2024-11-12T20:30:52.871Z""","null","+","null","","","","","","",""
"","","","","","image-keyboard-response","389","420660","0.0-19.0-0.2-1.20","ys5k4de9dg","","ys5k4de9dg","""2024-11-12T20:30:52.871Z""","567","materials/imgs/D32.png","arrowright","","[""materials/imgs/D18.png"",""materials/imgs/D9.png""]","false","random","","",""
"","","","","","html-keyboard-response","390","421161","0.0-19.0-1.2-0.2","ys5k4de9dg","","ys5k4de9dg","""2024-11-12T20:30:52.871Z""","null","+","null","","","","","","",""
"","","","","","image-keyboard-response","391","421943","0.0-19.0-1.2-1.2","ys5k4de9dg","","ys5k4de9dg","""2024-11-12T20:30:52.871Z""","780","materials/imgs/D46.png","arrowleft","","[""materials/imgs/D46.png"",""materials/imgs/D26.png""]","","check","materials/imgs/D46.png","0","true"
"","","","","","html-keyboard-response","392","422444","0.0-19.0-2.2-0.4","ys5k4de9dg","","ys5k4de9dg","""2024-11-12T20:30:52.871Z""","null","+","null","","","","","","",""
"","","","","","image-keyboard-response","393","425885","0.0-19.0-2.2-1.4","ys5k4de9dg","","ys5k4de9dg","""2024-11-12T20:30:52.871Z""","3438","materials/imgs/D18.png","arrowleft","","[""materials/imgs/D32.png"",""materials/imgs/D57.png""]","false","validation","","",""
"","","","","","html-keyboard-response","394","426386","0.0-19.0-2.2-0.5","ys5k4de9dg","","ys5k4de9dg","""2024-11-12T20:30:52.871Z""","null","+","null","","","","","","",""
"","","","","","image-keyboard-response","395","427119","0.0-19.0-2.2-1.5","ys5k4de9dg","","ys5k4de9dg","""2024-11-12T20:30:52.871Z""","732","materials/imgs/D105.png","arrowleft","","[""materials/imgs/D106.png"",""materials/imgs/D52.png""]","false","validation","","",""
"","","","","","html-keyboard-response","396","427621","0.0-19.0-0.3-0.21","ys5k4de9dg","","ys5k4de9dg","""2024-11-12T20:30:52.871Z""","null","+","null","","","","","","",""
"","","","","","image-keyboard-response","397","428353","0.0-19.0-0.3-1.21","ys5k4de9dg","","ys5k4de9dg","""2024-11-12T20:30:52.871Z""","730","materials/imgs/D104.png","arrowleft","","[""materials/imgs/D17.png"",""materials/imgs/D66.png""]","false","random","","",""
"","","","","","html-keyboard-response","398","428854","0.0-19.0-0.3-0.22","ys5k4de9dg","","ys5k4de9dg","""2024-11-12T20:30:52.871Z""","null","+","null","","","","","","",""
"","","","","","image-keyboard-response","399","429917","0.0-19.0-0.3-1.22","ys5k4de9dg","","ys5k4de9dg","""2024-11-12T20:30:52.871Z""","1062","materials/imgs/D51.png","arrowright","","[""materials/imgs/D102.png"",""materials/imgs/D96.png""]","false","random","","",""
"","","","","","html-keyboard-response","400","430419","0.0-19.0-0.3-0.23","ys5k4de9dg","","ys5k4de9dg","""2024-11-12T20:30:52.871Z""","null","+","null","","","","","","",""
"","","","","","image-keyboard-response","401","431363","0.0-19.0-0.3-1.23","ys5k4de9dg","","ys5k4de9dg","""2024-11-12T20:30:52.871Z""","943","materials/imgs/D34.png","arrowright","","[""materials/imgs/D76.png"",""materials/imgs/D52.png""]","false","random","","",""
"","","","","","html-keyboard-response","402","431864","0.0-19.0-0.3-0.24","ys5k4de9dg","","ys5k4de9dg","""2024-11-12T20:30:52.871Z""","null","+","null","","","","","","",""
"","","","","","image-keyboard-response","403","434903","0.0-19.0-0.3-1.24","ys5k4de9dg","","ys5k4de9dg","""2024-11-12T20:30:52.871Z""","3038","materials/imgs/D103.png","arrowright","","[""materials/imgs/D46.png"",""materials/imgs/D64.png""]","false","random","","",""
"","","","","","html-keyboard-response","404","435404","0.0-19.0-0.3-0.25","ys5k4de9dg","","ys5k4de9dg","""2024-11-12T20:30:52.871Z""","null","+","null","","","","","","",""
"","","","","","image-keyboard-response","405","438750","0.0-19.0-0.3-1.25","ys5k4de9dg","","ys5k4de9dg","""2024-11-12T20:30:52.871Z""","3345","materials/imgs/D83.png","arrowright","","[""materials/imgs/D9.png"",""materials/imgs/D34.png""]","false","random","","",""
"","","","","","html-keyboard-response","406","439252","0.0-19.0-0.3-0.26","ys5k4de9dg","","ys5k4de9dg","""2024-11-12T20:30:52.871Z""","null","+","null","","","","","","",""
"","","","","","image-keyboard-response","407","441406","0.0-19.0-0.3-1.26","ys5k4de9dg","","ys5k4de9dg","""2024-11-12T20:30:52.871Z""","2153","materials/imgs/D34.png","arrowleft","","[""materials/imgs/D19.png"",""materials/imgs/D57.png""]","false","random","","",""
"","","","","","html-keyboard-response","408","441908","0.0-19.0-0.3-0.27","ys5k4de9dg","","ys5k4de9dg","""2024-11-12T20:30:52.871Z""","null","+","null","","","","","","",""
"","","","","","image-keyboard-response","409","444083","0.0-19.0-0.3-1.27","ys5k4de9dg","","ys5k4de9dg","""2024-11-12T20:30:52.871Z""","2173","materials/imgs/D36.png","arrowleft","","[""materials/imgs/D84.png"",""materials/imgs/D81.png""]","false","random","","",""
"","","","","","html-keyboard-response","410","444585","0.0-19.0-1.3-0.3","ys5k4de9dg","","ys5k4de9dg","""2024-11-12T20:30:52.871Z""","null","+","null","","","","","","",""
"","","","","","image-keyboard-response","411","445203","0.0-19.0-1.3-1.3","ys5k4de9dg","","ys5k4de9dg","""2024-11-12T20:30:52.871Z""","617","materials/imgs/D78.png","arrowright","","[""materials/imgs/D76.png"",""materials/imgs/D78.png""]","","check","materials/imgs/D78.png","1","true"
"","","","","","html-keyboard-response","412","445704","0.0-19.0-2.3-0.6","ys5k4de9dg","","ys5k4de9dg","""2024-11-12T20:30:52.871Z""","null","+","null","","","","","","",""
"","","","","","image-keyboard-response","413","447554","0.0-19.0-2.3-1.6","ys5k4de9dg","","ys5k4de9dg","""2024-11-12T20:30:52.871Z""","1849","materials/imgs/D65.png","arrowleft","","[""materials/imgs/D4.png"",""materials/imgs/D16.png""]","false","validation","","",""
"","","","","","html-keyboard-response","414","448055","0.0-19.0-2.3-0.7","ys5k4de9dg","","ys5k4de9dg","""2024-11-12T20:30:52.871Z""","null","+","null","","","","","","",""
"","","","","","image-keyboard-response","415","448850","0.0-19.0-2.3-1.7","ys5k4de9dg","","ys5k4de9dg","""2024-11-12T20:30:52.871Z""","793","materials/imgs/D92.png","arrowright","","[""materials/imgs/D56.png"",""materials/imgs/D77.png""]","false","validation","","",""
"","","","","","html-keyboard-response","416","449351","0.0-19.0-0.4-0.28","ys5k4de9dg","","ys5k4de9dg","""2024-11-12T20:30:52.871Z""","null","+","null","","","","","","",""
"","","","","","image-keyboard-response","417","449749","0.0-19.0-0.4-1.28","ys5k4de9dg","","ys5k4de9dg","""2024-11-12T20:30:52.871Z""","397","materials/imgs/D82.png","arrowright","","[""materials/imgs/D8.png"",""materials/imgs/D101.png""]","true","random","","",""
"","","","","","html-keyboard-response","418","452291","0.0-19.0-0.4-2.28-0.28","ys5k4de9dg","","ys5k4de9dg","""2024-11-12T20:30:52.871Z""","2540","<p><strong>You're going too fast.</strong><p>Please slow down and assess each triplet.<p>Press 'y' to continue.</p></p>","y","","","","","","",""
"","","","","","html-keyboard-response","419","452792","0.0-19.0-0.4-0.29","ys5k4de9dg","","ys5k4de9dg","""2024-11-12T20:30:52.871Z""","null","+","null","","","","","","",""
"","","","","","image-keyboard-response","420","454416","0.0-19.0-0.4-1.29","ys5k4de9dg","","ys5k4de9dg","""2024-11-12T20:30:52.871Z""","1621","materials/imgs/D4.png","arrowleft","","[""materials/imgs/D77.png"",""materials/imgs/D106.png""]","false","random","","",""
"","","","","","html-keyboard-response","421","454918","0.0-19.0-0.4-0.30","ys5k4de9dg","","ys5k4de9dg","""2024-11-12T20:30:52.871Z""","null","+","null","","","","","","",""
"","","","","","image-keyboard-response","422","455642","0.0-19.0-0.4-1.30","ys5k4de9dg","","ys5k4de9dg","""2024-11-12T20:30:52.871Z""","722","materials/imgs/D65.png","arrowright","","[""materials/imgs/D4.png"",""materials/imgs/D11.png""]","false","random","","",""
"","","","","","html-keyboard-response","423","456143","0.0-19.0-0.4-0.31","ys5k4de9dg","","ys5k4de9dg","""2024-11-12T20:30:52.871Z""","null","+","null","","","","","","",""
"","","","","","image-keyboard-response","424","459518","0.0-19.0-0.4-1.31","ys5k4de9dg","","ys5k4de9dg","""2024-11-12T20:30:52.871Z""","3374","materials/imgs/D78.png","arrowleft","","[""materials/imgs/D32.png"",""materials/imgs/D66.png""]","false","random","","",""
"","","","","","html-keyboard-response","425","460020","0.0-19.0-0.4-0.32","ys5k4de9dg","","ys5k4de9dg","""2024-11-12T20:30:52.871Z""","null","+","null","","","","","","",""
"","","","","","image-keyboard-response","426","461113","0.0-19.0-0.4-1.32","ys5k4de9dg","","ys5k4de9dg","""2024-11-12T20:30:52.871Z""","1091","materials/imgs/D34.png","arrowright","","[""materials/imgs/D64.png"",""materials/imgs/D92.png""]","false","random","","",""
"","","","","","html-keyboard-response","427","461613","0.0-19.0-0.4-0.33","ys5k4de9dg","","ys5k4de9dg","""2024-11-12T20:30:52.871Z""","null","+","null","","","","","","",""
"","","","","","image-keyboard-response","428","462643","0.0-19.0-0.4-1.33","ys5k4de9dg","","ys5k4de9dg","""2024-11-12T20:30:52.871Z""","1029","materials/imgs/D85.png","arrowright","","[""materials/imgs/D8.png"",""materials/imgs/D56.png""]","false","random","","",""
"","","","","","html-keyboard-response","429","463144","0.0-19.0-0.4-0.34","ys5k4de9dg","","ys5k4de9dg","""2024-11-12T20:30:52.871Z""","null","+","null","","","","","","",""
"","","","","","image-keyboard-response","430","464327","0.0-19.0-0.4-1.34","ys5k4de9dg","","ys5k4de9dg","""2024-11-12T20:30:52.871Z""","1181","materials/imgs/D46.png","arrowleft","","[""materials/imgs/D21.png"",""materials/imgs/D94.png""]","false","random","","",""
"","","","","","html-keyboard-response","431","464829","0.0-19.0-1.4-0.4","ys5k4de9dg","","ys5k4de9dg","""2024-11-12T20:30:52.871Z""","null","+","null","","","","","","",""
"","","","","","image-keyboard-response","432","465508","0.0-19.0-1.4-1.4","ys5k4de9dg","","ys5k4de9dg","""2024-11-12T20:30:52.871Z""","678","materials/imgs/D106.png","arrowleft","","[""materials/imgs/D106.png"",""materials/imgs/D101.png""]","","check","materials/imgs/D106.png","0","true"
"","","","","","html-keyboard-response","433","466009","0.0-19.0-2.4-0.8","ys5k4de9dg","","ys5k4de9dg","""2024-11-12T20:30:52.871Z""","null","+","null","","","","","","",""
"","","","","","image-keyboard-response","434","466965","0.0-19.0-2.4-1.8","ys5k4de9dg","","ys5k4de9dg","""2024-11-12T20:30:52.871Z""","954","materials/imgs/D46.png","arrowleft","","[""materials/imgs/D92.png"",""materials/imgs/D77.png""]","false","validation","","",""
"","","","","","html-keyboard-response","435","467466","0.0-19.0-2.4-0.9","ys5k4de9dg","","ys5k4de9dg","""2024-11-12T20:30:52.871Z""","null","+","null","","","","","","",""
"","","","","","image-keyboard-response","436","468155","0.0-19.0-2.4-1.9","ys5k4de9dg","","ys5k4de9dg","""2024-11-12T20:30:52.871Z""","688","materials/imgs/D9.png","arrowright","","[""materials/imgs/D103.png"",""materials/imgs/D4.png""]","false","validation","","",""
